IP_Addresss,target_onset,trial_resp_sp.keys,trial_resp_sp.corr,trial_resp_sp.rt,trials_train_loop.thisRepN,trials_train_loop.thisTrialN,trials_train_loop.thisN,trials_train_loop.thisIndex,trials_train_loop.ran,correct_key,color,participant,date,expName,psychopyVersion,OS,frameRate,trial_resp_timing.keys,trial_resp_timing.rt,trials_train_timing.thisRepN,trials_train_timing.thisTrialN,trials_train_timing.thisN,trials_train_timing.thisIndex,trials_train_timing.ran,block_id,ontime,feedback_cond,forcedRT_resp.keys,forcedRT_resp.corr,forcedRT_resp.rt,trials.thisRepN,trials.thisTrialN,trials.thisN,trials.thisIndex,trials.ran,blocks.thisRepN,blocks.thisTrialN,blocks.thisN,blocks.thisIndex,blocks.ran
99.250.165.145,0,j,1,2.4559,0,0,0,2,1,j,red,60395b3328bb6047f0bea27b,2021-09-27_17h08.56.311,forced_choiceRT_color,2021.2.3,Win32,60.04563468,,,,,,,,,,,,,,,,,,,,,,,
,0,k,1,1.6989,0,1,1,3,1,k,purple,60395b3328bb6047f0bea27b,2021-09-27_17h08.56.311,forced_choiceRT_color,2021.2.3,Win32,60.04563468,,,,,,,,,,,,,,,,,,,,,,,
,0,d,1,1.3055,0,2,2,0,1,d,orange,60395b3328bb6047f0bea27b,2021-09-27_17h08.56.311,forced_choiceRT_color,2021.2.3,Win32,60.04563468,,,,,,,,,,,,,,,,,,,,,,,
,0,k,1,1.9381,0,3,3,3,1,k,purple,60395b3328bb6047f0bea27b,2021-09-27_17h08.56.311,forced_choiceRT_color,2021.2.3,Win32,60.04563468,,,,,,,,,,,,,,,,,,,,,,,
,0,f,1,1.2397,1,0,4,1,1,f,blue,60395b3328bb6047f0bea27b,2021-09-27_17h08.56.311,forced_choiceRT_color,2021.2.3,Win32,60.04563468,,,,,,,,,,,,,,,,,,,,,,,
,0,k,1,1.6661,1,1,5,3,1,k,purple,60395b3328bb6047f0bea27b,2021-09-27_17h08.56.311,forced_choiceRT_color,2021.2.3,Win32,60.04563468,,,,,,,,,,,,,,,,,,,,,,,
,0,k,1,1.3518,1,2,6,3,1,k,purple,60395b3328bb6047f0bea27b,2021-09-27_17h08.56.311,forced_choiceRT_color,2021.2.3,Win32,60.04563468,,,,,,,,,,,,,,,,,,,,,,,
,0,d,1,1.6433,1,3,7,0,1,d,orange,60395b3328bb6047f0bea27b,2021-09-27_17h08.56.311,forced_choiceRT_color,2021.2.3,Win32,60.04563468,,,,,,,,,,,,,,,,,,,,,,,
,0,j,1,1.1647,2,0,8,2,1,j,red,60395b3328bb6047f0bea27b,2021-09-27_17h08.56.311,forced_choiceRT_color,2021.2.3,Win32,60.04563468,,,,,,,,,,,,,,,,,,,,,,,
,0,d,1,0.8957,2,1,9,0,1,d,orange,60395b3328bb6047f0bea27b,2021-09-27_17h08.56.311,forced_choiceRT_color,2021.2.3,Win32,60.04563468,,,,,,,,,,,,,,,,,,,,,,,
,0,d,1,0.8873,2,2,10,0,1,d,orange,60395b3328bb6047f0bea27b,2021-09-27_17h08.56.311,forced_choiceRT_color,2021.2.3,Win32,60.04563468,,,,,,,,,,,,,,,,,,,,,,,
,0,j,0,1.4188,2,3,11,1,1,f,blue,60395b3328bb6047f0bea27b,2021-09-27_17h08.56.311,forced_choiceRT_color,2021.2.3,Win32,60.04563468,,,,,,,,,,,,,,,,,,,,,,,
,0,j,1,1.3408,3,0,12,2,1,j,red,60395b3328bb6047f0bea27b,2021-09-27_17h08.56.311,forced_choiceRT_color,2021.2.3,Win32,60.04563468,,,,,,,,,,,,,,,,,,,,,,,
,0,f,1,1.2553,3,1,13,1,1,f,blue,60395b3328bb6047f0bea27b,2021-09-27_17h08.56.311,forced_choiceRT_color,2021.2.3,Win32,60.04563468,,,,,,,,,,,,,,,,,,,,,,,
,0,d,1,0.8721,3,2,14,0,1,d,orange,60395b3328bb6047f0bea27b,2021-09-27_17h08.56.311,forced_choiceRT_color,2021.2.3,Win32,60.04563468,,,,,,,,,,,,,,,,,,,,,,,
,0,k,1,1.351,3,3,15,3,1,k,purple,60395b3328bb6047f0bea27b,2021-09-27_17h08.56.311,forced_choiceRT_color,2021.2.3,Win32,60.04563468,,,,,,,,,,,,,,,,,,,,,,,
,0,j,1,1.1031,4,0,16,2,1,j,red,60395b3328bb6047f0bea27b,2021-09-27_17h08.56.311,forced_choiceRT_color,2021.2.3,Win32,60.04563468,,,,,,,,,,,,,,,,,,,,,,,
,0,f,1,1.2168,4,1,17,1,1,f,blue,60395b3328bb6047f0bea27b,2021-09-27_17h08.56.311,forced_choiceRT_color,2021.2.3,Win32,60.04563468,,,,,,,,,,,,,,,,,,,,,,,
,0,k,1,1.0494,4,2,18,3,1,k,purple,60395b3328bb6047f0bea27b,2021-09-27_17h08.56.311,forced_choiceRT_color,2021.2.3,Win32,60.04563468,,,,,,,,,,,,,,,,,,,,,,,
,0,j,1,1.0704,4,3,19,2,1,j,red,60395b3328bb6047f0bea27b,2021-09-27_17h08.56.311,forced_choiceRT_color,2021.2.3,Win32,60.04563468,,,,,,,,,,,,,,,,,,,,,,,
,0,d,1,0.8778,5,0,20,0,1,d,orange,60395b3328bb6047f0bea27b,2021-09-27_17h08.56.311,forced_choiceRT_color,2021.2.3,Win32,60.04563468,,,,,,,,,,,,,,,,,,,,,,,
,0,f,1,0.9333,5,1,21,1,1,f,blue,60395b3328bb6047f0bea27b,2021-09-27_17h08.56.311,forced_choiceRT_color,2021.2.3,Win32,60.04563468,,,,,,,,,,,,,,,,,,,,,,,
,0,k,1,1.1652,5,2,22,3,1,k,purple,60395b3328bb6047f0bea27b,2021-09-27_17h08.56.311,forced_choiceRT_color,2021.2.3,Win32,60.04563468,,,,,,,,,,,,,,,,,,,,,,,
,0,j,1,0.5745,5,3,23,2,1,j,red,60395b3328bb6047f0bea27b,2021-09-27_17h08.56.311,forced_choiceRT_color,2021.2.3,Win32,60.04563468,,,,,,,,,,,,,,,,,,,,,,,
,0,f,1,1.1868,6,0,24,1,1,f,blue,60395b3328bb6047f0bea27b,2021-09-27_17h08.56.311,forced_choiceRT_color,2021.2.3,Win32,60.04563468,,,,,,,,,,,,,,,,,,,,,,,
,0,d,1,0.6893,6,1,25,0,1,d,orange,60395b3328bb6047f0bea27b,2021-09-27_17h08.56.311,forced_choiceRT_color,2021.2.3,Win32,60.04563468,,,,,,,,,,,,,,,,,,,,,,,
,0,k,1,0.7796,6,2,26,3,1,k,purple,60395b3328bb6047f0bea27b,2021-09-27_17h08.56.311,forced_choiceRT_color,2021.2.3,Win32,60.04563468,,,,,,,,,,,,,,,,,,,,,,,
,0,k,1,1.0853,6,3,27,3,1,k,purple,60395b3328bb6047f0bea27b,2021-09-27_17h08.56.311,forced_choiceRT_color,2021.2.3,Win32,60.04563468,,,,,,,,,,,,,,,,,,,,,,,
,0,j,1,0.5268,7,0,28,2,1,j,red,60395b3328bb6047f0bea27b,2021-09-27_17h08.56.311,forced_choiceRT_color,2021.2.3,Win32,60.04563468,,,,,,,,,,,,,,,,,,,,,,,
,0,k,1,1.3067,7,1,29,3,1,k,purple,60395b3328bb6047f0bea27b,2021-09-27_17h08.56.311,forced_choiceRT_color,2021.2.3,Win32,60.04563468,,,,,,,,,,,,,,,,,,,,,,,
,0,d,1,0.9734,7,2,30,0,1,d,orange,60395b3328bb6047f0bea27b,2021-09-27_17h08.56.311,forced_choiceRT_color,2021.2.3,Win32,60.04563468,,,,,,,,,,,,,,,,,,,,,,,
,0,k,1,0.8976,7,3,31,3,1,k,purple,60395b3328bb6047f0bea27b,2021-09-27_17h08.56.311,forced_choiceRT_color,2021.2.3,Win32,60.04563468,,,,,,,,,,,,,,,,,,,,,,,
,0,k,1,1.241,8,0,32,3,1,k,purple,60395b3328bb6047f0bea27b,2021-09-27_17h08.56.311,forced_choiceRT_color,2021.2.3,Win32,60.04563468,,,,,,,,,,,,,,,,,,,,,,,
,0,d,1,0.8837,8,1,33,0,1,d,orange,60395b3328bb6047f0bea27b,2021-09-27_17h08.56.311,forced_choiceRT_color,2021.2.3,Win32,60.04563468,,,,,,,,,,,,,,,,,,,,,,,
,0,k,1,0.8939,8,2,34,3,1,k,purple,60395b3328bb6047f0bea27b,2021-09-27_17h08.56.311,forced_choiceRT_color,2021.2.3,Win32,60.04563468,,,,,,,,,,,,,,,,,,,,,,,
,0,d,1,0.732,8,3,35,0,1,d,orange,60395b3328bb6047f0bea27b,2021-09-27_17h08.56.311,forced_choiceRT_color,2021.2.3,Win32,60.04563468,,,,,,,,,,,,,,,,,,,,,,,
,0,d,1,0.7013,9,0,36,0,1,d,orange,60395b3328bb6047f0bea27b,2021-09-27_17h08.56.311,forced_choiceRT_color,2021.2.3,Win32,60.04563468,,,,,,,,,,,,,,,,,,,,,,,
,0,f,1,0.8563,9,1,37,1,1,f,blue,60395b3328bb6047f0bea27b,2021-09-27_17h08.56.311,forced_choiceRT_color,2021.2.3,Win32,60.04563468,,,,,,,,,,,,,,,,,,,,,,,
,0,d,1,1.0286,9,2,38,0,1,d,orange,60395b3328bb6047f0bea27b,2021-09-27_17h08.56.311,forced_choiceRT_color,2021.2.3,Win32,60.04563468,,,,,,,,,,,,,,,,,,,,,,,
,0,k,1,0.801,9,3,39,3,1,k,purple,60395b3328bb6047f0bea27b,2021-09-27_17h08.56.311,forced_choiceRT_color,2021.2.3,Win32,60.04563468,,,,,,,,,,,,,,,,,,,,,,,
,0,f,1,1.1037,10,0,40,1,1,f,blue,60395b3328bb6047f0bea27b,2021-09-27_17h08.56.311,forced_choiceRT_color,2021.2.3,Win32,60.04563468,,,,,,,,,,,,,,,,,,,,,,,
,0,f,1,1.8998,10,1,41,1,1,f,blue,60395b3328bb6047f0bea27b,2021-09-27_17h08.56.311,forced_choiceRT_color,2021.2.3,Win32,60.04563468,,,,,,,,,,,,,,,,,,,,,,,
,0,j,1,1.0499,10,2,42,2,1,j,red,60395b3328bb6047f0bea27b,2021-09-27_17h08.56.311,forced_choiceRT_color,2021.2.3,Win32,60.04563468,,,,,,,,,,,,,,,,,,,,,,,
,0,j,1,0.9938,10,3,43,2,1,j,red,60395b3328bb6047f0bea27b,2021-09-27_17h08.56.311,forced_choiceRT_color,2021.2.3,Win32,60.04563468,,,,,,,,,,,,,,,,,,,,,,,
,0,f,1,1.4506,11,0,44,1,1,f,blue,60395b3328bb6047f0bea27b,2021-09-27_17h08.56.311,forced_choiceRT_color,2021.2.3,Win32,60.04563468,,,,,,,,,,,,,,,,,,,,,,,
,0,d,1,0.9184,11,1,45,0,1,d,orange,60395b3328bb6047f0bea27b,2021-09-27_17h08.56.311,forced_choiceRT_color,2021.2.3,Win32,60.04563468,,,,,,,,,,,,,,,,,,,,,,,
,0,k,1,1.5881,11,2,46,3,1,k,purple,60395b3328bb6047f0bea27b,2021-09-27_17h08.56.311,forced_choiceRT_color,2021.2.3,Win32,60.04563468,,,,,,,,,,,,,,,,,,,,,,,
,0,d,1,0.8507,11,3,47,0,1,d,orange,60395b3328bb6047f0bea27b,2021-09-27_17h08.56.311,forced_choiceRT_color,2021.2.3,Win32,60.04563468,,,,,,,,,,,,,,,,,,,,,,,
,0,j,1,1.1211,12,0,48,2,1,j,red,60395b3328bb6047f0bea27b,2021-09-27_17h08.56.311,forced_choiceRT_color,2021.2.3,Win32,60.04563468,,,,,,,,,,,,,,,,,,,,,,,
,0,j,1,0.8023,12,1,49,2,1,j,red,60395b3328bb6047f0bea27b,2021-09-27_17h08.56.311,forced_choiceRT_color,2021.2.3,Win32,60.04563468,,,,,,,,,,,,,,,,,,,,,,,
,0,d,0,0.757,12,2,50,1,1,f,blue,60395b3328bb6047f0bea27b,2021-09-27_17h08.56.311,forced_choiceRT_color,2021.2.3,Win32,60.04563468,,,,,,,,,,,,,,,,,,,,,,,
,0,f,1,0.8702,12,3,51,1,1,f,blue,60395b3328bb6047f0bea27b,2021-09-27_17h08.56.311,forced_choiceRT_color,2021.2.3,Win32,60.04563468,,,,,,,,,,,,,,,,,,,,,,,
,0,f,1,0.8033,13,0,52,1,1,f,blue,60395b3328bb6047f0bea27b,2021-09-27_17h08.56.311,forced_choiceRT_color,2021.2.3,Win32,60.04563468,,,,,,,,,,,,,,,,,,,,,,,
,0,j,1,0.9756,13,1,53,2,1,j,red,60395b3328bb6047f0bea27b,2021-09-27_17h08.56.311,forced_choiceRT_color,2021.2.3,Win32,60.04563468,,,,,,,,,,,,,,,,,,,,,,,
,0,j,1,0.8761,13,2,54,2,1,j,red,60395b3328bb6047f0bea27b,2021-09-27_17h08.56.311,forced_choiceRT_color,2021.2.3,Win32,60.04563468,,,,,,,,,,,,,,,,,,,,,,,
,0,f,1,1.5005,13,3,55,1,1,f,blue,60395b3328bb6047f0bea27b,2021-09-27_17h08.56.311,forced_choiceRT_color,2021.2.3,Win32,60.04563468,,,,,,,,,,,,,,,,,,,,,,,
,0,j,1,1.1001,14,0,56,2,1,j,red,60395b3328bb6047f0bea27b,2021-09-27_17h08.56.311,forced_choiceRT_color,2021.2.3,Win32,60.04563468,,,,,,,,,,,,,,,,,,,,,,,
,0,j,1,0.8178,14,1,57,2,1,j,red,60395b3328bb6047f0bea27b,2021-09-27_17h08.56.311,forced_choiceRT_color,2021.2.3,Win32,60.04563468,,,,,,,,,,,,,,,,,,,,,,,
,0,d,1,0.896,14,2,58,0,1,d,orange,60395b3328bb6047f0bea27b,2021-09-27_17h08.56.311,forced_choiceRT_color,2021.2.3,Win32,60.04563468,,,,,,,,,,,,,,,,,,,,,,,
,0,f,1,1.0835,14,3,59,1,1,f,blue,60395b3328bb6047f0bea27b,2021-09-27_17h08.56.311,forced_choiceRT_color,2021.2.3,Win32,60.04563468,,,,,,,,,,,,,,,,,,,,,,,
,,,,,,,,,,,,60395b3328bb6047f0bea27b,2021-09-27_17h08.56.311,forced_choiceRT_color,2021.2.3,Win32,60.04563468,j,2.4264,0,0,0,0,1,,,,,,,,,,,,,,,,
,,,,,,,,,,,,60395b3328bb6047f0bea27b,2021-09-27_17h08.56.311,forced_choiceRT_color,2021.2.3,Win32,60.04563468,j,2.2874,1,0,1,0,1,,,,,,,,,,,,,,,,
,,,,,,,,,,,,60395b3328bb6047f0bea27b,2021-09-27_17h08.56.311,forced_choiceRT_color,2021.2.3,Win32,60.04563468,j,2.1176,2,0,2,0,1,,,,,,,,,,,,,,,,
,,,,,,,,,,,,60395b3328bb6047f0bea27b,2021-09-27_17h08.56.311,forced_choiceRT_color,2021.2.3,Win32,60.04563468,k,2.1834,3,0,3,0,1,,,,,,,,,,,,,,,,
,,,,,,,,,,,,60395b3328bb6047f0bea27b,2021-09-27_17h08.56.311,forced_choiceRT_color,2021.2.3,Win32,60.04563468,k,1.8012,4,0,4,0,1,,,,,,,,,,,,,,,,
,,,,,,,,,,,,60395b3328bb6047f0bea27b,2021-09-27_17h08.56.311,forced_choiceRT_color,2021.2.3,Win32,60.04563468,k,1.8176,5,0,5,0,1,,,,,,,,,,,,,,,,
,,,,,,,,,,,,60395b3328bb6047f0bea27b,2021-09-27_17h08.56.311,forced_choiceRT_color,2021.2.3,Win32,60.04563468,k,2.1847,6,0,6,0,1,,,,,,,,,,,,,,,,
,,,,,,,,,,,,60395b3328bb6047f0bea27b,2021-09-27_17h08.56.311,forced_choiceRT_color,2021.2.3,Win32,60.04563468,f,2.1766,7,0,7,0,1,,,,,,,,,,,,,,,,
,,,,,,,,,,,,60395b3328bb6047f0bea27b,2021-09-27_17h08.56.311,forced_choiceRT_color,2021.2.3,Win32,60.04563468,k,2.0347,8,0,8,0,1,,,,,,,,,,,,,,,,
,,,,,,,,,,,,60395b3328bb6047f0bea27b,2021-09-27_17h08.56.311,forced_choiceRT_color,2021.2.3,Win32,60.04563468,d,2.1832,9,0,9,0,1,,,,,,,,,,,,,,,,
,,,,,,,,,,,,60395b3328bb6047f0bea27b,2021-09-27_17h08.56.311,forced_choiceRT_color,2021.2.3,Win32,60.04563468,k,2.0349,10,0,10,0,1,,,,,,,,,,,,,,,,
,,,,,,,,,,,,60395b3328bb6047f0bea27b,2021-09-27_17h08.56.311,forced_choiceRT_color,2021.2.3,Win32,60.04563468,d,2.1859,11,0,11,0,1,,,,,,,,,,,,,,,,
,,,,,,,,,,,,60395b3328bb6047f0bea27b,2021-09-27_17h08.56.311,forced_choiceRT_color,2021.2.3,Win32,60.04563468,d,2.1341,12,0,12,0,1,,,,,,,,,,,,,,,,
,,,,,,,,,,,,60395b3328bb6047f0bea27b,2021-09-27_17h08.56.311,forced_choiceRT_color,2021.2.3,Win32,60.04563468,k,2.2174,13,0,13,0,1,,,,,,,,,,,,,,,,
,,,,,,,,,,,,60395b3328bb6047f0bea27b,2021-09-27_17h08.56.311,forced_choiceRT_color,2021.2.3,Win32,60.04563468,d,2.1023,14,0,14,0,1,,,,,,,,,,,,,,,,
,,,,,,,,,,,,60395b3328bb6047f0bea27b,2021-09-27_17h08.56.311,forced_choiceRT_color,2021.2.3,Win32,60.04563468,k,2.1671,15,0,15,0,1,,,,,,,,,,,,,,,,
,,,,,,,,,,,,60395b3328bb6047f0bea27b,2021-09-27_17h08.56.311,forced_choiceRT_color,2021.2.3,Win32,60.04563468,j,2.2169,16,0,16,0,1,,,,,,,,,,,,,,,,
,,,,,,,,,,,,60395b3328bb6047f0bea27b,2021-09-27_17h08.56.311,forced_choiceRT_color,2021.2.3,Win32,60.04563468,k,2.1502,17,0,17,0,1,,,,,,,,,,,,,,,,
,,,,,,,,,,,,60395b3328bb6047f0bea27b,2021-09-27_17h08.56.311,forced_choiceRT_color,2021.2.3,Win32,60.04563468,f,2.0532,18,0,18,0,1,,,,,,,,,,,,,,,,
,,,,,,,,,,,,60395b3328bb6047f0bea27b,2021-09-27_17h08.56.311,forced_choiceRT_color,2021.2.3,Win32,60.04563468,d,2.3001,19,0,19,0,1,,,,,,,,,,,,,,,,
,1.16,,,,,,,,,k,purple,60395b3328bb6047f0bea27b,2021-09-27_17h08.56.311,forced_choiceRT_color,2021.2.3,Win32,60.04563468,,,,,,,,1,Slow,short,f,0,2.2477,0,0,0,3,1,,,,,
,1.6,,,,,,,,,f,blue,60395b3328bb6047f0bea27b,2021-09-27_17h08.56.311,forced_choiceRT_color,2021.2.3,Win32,60.04563468,,,,,,,,1,Ontime,short,d,0,2.0477,0,1,1,1,1,,,,,
,1.64,,,,,,,,,j,red,60395b3328bb6047f0bea27b,2021-09-27_17h08.56.311,forced_choiceRT_color,2021.2.3,Win32,60.04563468,,,,,,,,1,Fast,short,k,0,0.0116,0,2,2,2,1,,,,,
,1.69,,,,,,,,,d,orange,60395b3328bb6047f0bea27b,2021-09-27_17h08.56.311,forced_choiceRT_color,2021.2.3,Win32,60.04563468,,,,,,,,1,Slow,short,d,1,2.5854,0,3,3,0,1,,,,,
,0.96,,,,,,,,,k,purple,60395b3328bb6047f0bea27b,2021-09-27_17h08.56.311,forced_choiceRT_color,2021.2.3,Win32,60.04563468,,,,,,,,1,Ontime,short,k,1,1.994,1,0,4,3,1,,,,,
,1.35,,,,,,,,,d,orange,60395b3328bb6047f0bea27b,2021-09-27_17h08.56.311,forced_choiceRT_color,2021.2.3,Win32,60.04563468,,,,,,,,1,Slow,short,d,1,2.2522,1,1,5,0,1,,,,,
,1.88,,,,,,,,,j,red,60395b3328bb6047f0bea27b,2021-09-27_17h08.56.311,forced_choiceRT_color,2021.2.3,Win32,60.04563468,,,,,,,,1,Slow,short,d,0,2.2374,1,2,6,2,1,,,,,
,0.58,,,,,,,,,f,blue,60395b3328bb6047f0bea27b,2021-09-27_17h08.56.311,forced_choiceRT_color,2021.2.3,Win32,60.04563468,,,,,,,,1,Fast,short,j,0,1.5822,1,3,7,1,1,,,,,
,0.53,,,,,,,,,j,red,60395b3328bb6047f0bea27b,2021-09-27_17h08.56.311,forced_choiceRT_color,2021.2.3,Win32,60.04563468,,,,,,,,1,Fast,short,f,0,1.6181,2,0,8,2,1,,,,,
,1.47,,,,,,,,,d,orange,60395b3328bb6047f0bea27b,2021-09-27_17h08.56.311,forced_choiceRT_color,2021.2.3,Win32,60.04563468,,,,,,,,1,Ontime,short,d,1,1.9575,2,1,9,0,1,,,,,
,0.41,,,,,,,,,d,orange,60395b3328bb6047f0bea27b,2021-09-27_17h08.56.311,forced_choiceRT_color,2021.2.3,Win32,60.04563468,,,,,,,,1,Slow,short,d,1,2.2536,2,2,10,0,1,,,,,
,0.77,,,,,,,,,d,orange,60395b3328bb6047f0bea27b,2021-09-27_17h08.56.311,forced_choiceRT_color,2021.2.3,Win32,60.04563468,,,,,,,,1,Ontime,short,d,1,2.0233,2,3,11,0,1,,,,,
,1.95,,,,,,,,,f,blue,60395b3328bb6047f0bea27b,2021-09-27_17h08.56.311,forced_choiceRT_color,2021.2.3,Win32,60.04563468,,,,,,,,1,Slow,short,d,0,2.1845,3,0,12,1,1,,,,,
,0.4,,,,,,,,,k,purple,60395b3328bb6047f0bea27b,2021-09-27_17h08.56.311,forced_choiceRT_color,2021.2.3,Win32,60.04563468,,,,,,,,1,Slow,short,k,1,2.1345,3,1,13,3,1,,,,,
,0.85,,,,,,,,,f,blue,60395b3328bb6047f0bea27b,2021-09-27_17h08.56.311,forced_choiceRT_color,2021.2.3,Win32,60.04563468,,,,,,,,1,Slow,short,j,0,2.1854,3,2,14,1,1,,,,,
,1.36,,,,,,,,,j,red,60395b3328bb6047f0bea27b,2021-09-27_17h08.56.311,forced_choiceRT_color,2021.2.3,Win32,60.04563468,,,,,,,,1,Slow,short,j,1,2.285,3,3,15,2,1,,,,,
,1.77,,,,,,,,,f,blue,60395b3328bb6047f0bea27b,2021-09-27_17h08.56.311,forced_choiceRT_color,2021.2.3,Win32,60.04563468,,,,,,,,1,Slow,short,f,1,2.3476,4,0,16,1,1,,,,,
,0.6,,,,,,,,,k,purple,60395b3328bb6047f0bea27b,2021-09-27_17h08.56.311,forced_choiceRT_color,2021.2.3,Win32,60.04563468,,,,,,,,1,Slow,short,k,1,2.1447,4,1,17,3,1,,,,,
,0.33,,,,,,,,,f,blue,60395b3328bb6047f0bea27b,2021-09-27_17h08.56.311,forced_choiceRT_color,2021.2.3,Win32,60.04563468,,,,,,,,1,Fast,short,f,1,1.8701,4,2,18,1,1,,,,,
,0.09,,,,,,,,,k,purple,60395b3328bb6047f0bea27b,2021-09-27_17h08.56.311,forced_choiceRT_color,2021.2.3,Win32,60.04563468,,,,,,,,1,Slow,short,k,1,2.2937,4,3,19,3,1,,,,,
,1.32,,,,,,,,,k,purple,60395b3328bb6047f0bea27b,2021-09-27_17h08.56.311,forced_choiceRT_color,2021.2.3,Win32,60.04563468,,,,,,,,1,Ontime,short,k,1,1.9033,5,0,20,3,1,,,,,
,0.75,,,,,,,,,k,purple,60395b3328bb6047f0bea27b,2021-09-27_17h08.56.311,forced_choiceRT_color,2021.2.3,Win32,60.04563468,,,,,,,,1,Fast,short,k,1,1.3312,5,1,21,3,1,,,,,
,0.2,,,,,,,,,d,orange,60395b3328bb6047f0bea27b,2021-09-27_17h08.56.311,forced_choiceRT_color,2021.2.3,Win32,60.04563468,,,,,,,,1,Slow,short,d,1,2.1115,5,2,22,0,1,,,,,
,1.97,,,,,,,,,d,orange,60395b3328bb6047f0bea27b,2021-09-27_17h08.56.311,forced_choiceRT_color,2021.2.3,Win32,60.04563468,,,,,,,,1,Slow,short,d,1,2.4532,5,3,23,0,1,,,,,
,1.15,,,,,,,,,d,orange,60395b3328bb6047f0bea27b,2021-09-27_17h08.56.311,forced_choiceRT_color,2021.2.3,Win32,60.04563468,,,,,,,,1,Fast,short,d,1,1.5938,6,0,24,0,1,,,,,
,1.42,,,,,,,,,k,purple,60395b3328bb6047f0bea27b,2021-09-27_17h08.56.311,forced_choiceRT_color,2021.2.3,Win32,60.04563468,,,,,,,,1,Slow,short,k,1,2.32,6,1,25,3,1,,,,,
,0.3,,,,,,,,,j,red,60395b3328bb6047f0bea27b,2021-09-27_17h08.56.311,forced_choiceRT_color,2021.2.3,Win32,60.04563468,,,,,,,,1,Fast,short,j,1,1.5904,6,2,26,2,1,,,,,
,0.66,,,,,,,,,j,red,60395b3328bb6047f0bea27b,2021-09-27_17h08.56.311,forced_choiceRT_color,2021.2.3,Win32,60.04563468,,,,,,,,1,Slow,short,j,1,2.2191,6,3,27,2,1,,,,,
,1.87,,,,,,,,,d,orange,60395b3328bb6047f0bea27b,2021-09-27_17h08.56.311,forced_choiceRT_color,2021.2.3,Win32,60.04563468,,,,,,,,1,Slow,short,d,1,2.3768,7,0,28,0,1,,,,,
,1.73,,,,,,,,,j,red,60395b3328bb6047f0bea27b,2021-09-27_17h08.56.311,forced_choiceRT_color,2021.2.3,Win32,60.04563468,,,,,,,,1,Slow,short,k,0,2.3694,7,1,29,2,1,,,,,
,0.41,,,,,,,,,j,red,60395b3328bb6047f0bea27b,2021-09-27_17h08.56.311,forced_choiceRT_color,2021.2.3,Win32,60.04563468,,,,,,,,1,Ontime,short,j,1,2.0355,7,2,30,2,1,,,,,
,0.91,,,,,,,,,k,purple,60395b3328bb6047f0bea27b,2021-09-27_17h08.56.311,forced_choiceRT_color,2021.2.3,Win32,60.04563468,,,,,,,,1,Slow,short,k,1,2.1165,7,3,31,3,1,,,,,
,1.11,,,,,,,,,f,blue,60395b3328bb6047f0bea27b,2021-09-27_17h08.56.311,forced_choiceRT_color,2021.2.3,Win32,60.04563468,,,,,,,,1,Fast,short,j,0,1.7461,8,0,32,1,1,,,,,
,1.71,,,,,,,,,d,orange,60395b3328bb6047f0bea27b,2021-09-27_17h08.56.311,forced_choiceRT_color,2021.2.3,Win32,60.04563468,,,,,,,,1,Ontime,short,d,1,2.0848,8,1,33,0,1,,,,,
,0.72,,,,,,,,,j,red,60395b3328bb6047f0bea27b,2021-09-27_17h08.56.311,forced_choiceRT_color,2021.2.3,Win32,60.04563468,,,,,,,,1,Ontime,short,j,1,2.0393,8,2,34,2,1,,,,,
,0.38,,,,,,,,,j,red,60395b3328bb6047f0bea27b,2021-09-27_17h08.56.311,forced_choiceRT_color,2021.2.3,Win32,60.04563468,,,,,,,,1,Ontime,short,j,1,2.0853,8,3,35,2,1,,,,,
,0.48,,,,,,,,,f,blue,60395b3328bb6047f0bea27b,2021-09-27_17h08.56.311,forced_choiceRT_color,2021.2.3,Win32,60.04563468,,,,,,,,1,Ontime,short,f,1,2.0928,9,0,36,1,1,,,,,
,0.14,,,,,,,,,k,purple,60395b3328bb6047f0bea27b,2021-09-27_17h08.56.311,forced_choiceRT_color,2021.2.3,Win32,60.04563468,,,,,,,,1,Slow,short,k,1,2.2992,9,1,37,3,1,,,,,
,0.42,,,,,,,,,f,blue,60395b3328bb6047f0bea27b,2021-09-27_17h08.56.311,forced_choiceRT_color,2021.2.3,Win32,60.04563468,,,,,,,,1,Ontime,short,f,1,2.0717,9,2,38,1,1,,,,,
,1.25,,,,,,,,,f,blue,60395b3328bb6047f0bea27b,2021-09-27_17h08.56.311,forced_choiceRT_color,2021.2.3,Win32,60.04563468,,,,,,,,1,Ontime,short,f,1,2.0268,9,3,39,1,1,,,,,
,,,,,,,,,,,,60395b3328bb6047f0bea27b,2021-09-27_17h08.56.311,forced_choiceRT_color,2021.2.3,Win32,60.04563468,,,,,,,,,,,,,,,,,,,0,0,0,0,1
,1.19,,,,,,,,,k,purple,60395b3328bb6047f0bea27b,2021-09-27_17h08.56.311,forced_choiceRT_color,2021.2.3,Win32,60.04563468,,,,,,,,2,Slow,short,k,1,2.1136,0,0,0,3,1,,,,,
,1.57,,,,,,,,,k,purple,60395b3328bb6047f0bea27b,2021-09-27_17h08.56.311,forced_choiceRT_color,2021.2.3,Win32,60.04563468,,,,,,,,2,Ontime,short,k,1,2.0516,0,1,1,3,1,,,,,
,1.16,,,,,,,,,j,red,60395b3328bb6047f0bea27b,2021-09-27_17h08.56.311,forced_choiceRT_color,2021.2.3,Win32,60.04563468,,,,,,,,2,Ontime,short,j,1,1.9497,0,2,2,2,1,,,,,
,0.04,,,,,,,,,f,blue,60395b3328bb6047f0bea27b,2021-09-27_17h08.56.311,forced_choiceRT_color,2021.2.3,Win32,60.04563468,,,,,,,,2,Ontime,short,f,1,2.0709,0,3,3,1,1,,,,,
,0.8,,,,,,,,,k,purple,60395b3328bb6047f0bea27b,2021-09-27_17h08.56.311,forced_choiceRT_color,2021.2.3,Win32,60.04563468,,,,,,,,2,Slow,short,k,1,2.1193,1,0,4,3,1,,,,,
,0.29,,,,,,,,,j,red,60395b3328bb6047f0bea27b,2021-09-27_17h08.56.311,forced_choiceRT_color,2021.2.3,Win32,60.04563468,,,,,,,,2,Ontime,short,j,1,2.0518,1,1,5,2,1,,,,,
,0.26,,,,,,,,,d,orange,60395b3328bb6047f0bea27b,2021-09-27_17h08.56.311,forced_choiceRT_color,2021.2.3,Win32,60.04563468,,,,,,,,2,Slow,short,d,1,2.1343,1,2,6,0,1,,,,,
,1.01,,,,,,,,,k,purple,60395b3328bb6047f0bea27b,2021-09-27_17h08.56.311,forced_choiceRT_color,2021.2.3,Win32,60.04563468,,,,,,,,2,Ontime,short,k,1,2.0518,1,3,7,3,1,,,,,
,0.71,,,,,,,,,f,blue,60395b3328bb6047f0bea27b,2021-09-27_17h08.56.311,forced_choiceRT_color,2021.2.3,Win32,60.04563468,,,,,,,,2,Slow,short,f,1,2.1012,2,0,8,1,1,,,,,
,1.79,,,,,,,,,d,orange,60395b3328bb6047f0bea27b,2021-09-27_17h08.56.311,forced_choiceRT_color,2021.2.3,Win32,60.04563468,,,,,,,,2,Slow,short,d,1,2.3348,2,1,9,0,1,,,,,
,0.81,,,,,,,,,f,blue,60395b3328bb6047f0bea27b,2021-09-27_17h08.56.311,forced_choiceRT_color,2021.2.3,Win32,60.04563468,,,,,,,,2,Slow,short,f,1,2.1209,2,2,10,1,1,,,,,
,1.38,,,,,,,,,j,red,60395b3328bb6047f0bea27b,2021-09-27_17h08.56.311,forced_choiceRT_color,2021.2.3,Win32,60.04563468,,,,,,,,2,Slow,short,k,0,2.1337,2,3,11,2,1,,,,,
,1.16,,,,,,,,,d,orange,60395b3328bb6047f0bea27b,2021-09-27_17h08.56.311,forced_choiceRT_color,2021.2.3,Win32,60.04563468,,,,,,,,2,Slow,short,d,1,2.1349,3,0,12,0,1,,,,,
,1.95,,,,,,,,,f,blue,60395b3328bb6047f0bea27b,2021-09-27_17h08.56.311,forced_choiceRT_color,2021.2.3,Win32,60.04563468,,,,,,,,2,Slow,short,k,0,2.4015,3,1,13,1,1,,,,,
,1.98,,,,,,,,,d,orange,60395b3328bb6047f0bea27b,2021-09-27_17h08.56.311,forced_choiceRT_color,2021.2.3,Win32,60.04563468,,,,,,,,2,Slow,short,d,1,3.4007,3,2,14,0,1,,,,,
,0.72,,,,,,,,,d,orange,60395b3328bb6047f0bea27b,2021-09-27_17h08.56.311,forced_choiceRT_color,2021.2.3,Win32,60.04563468,,,,,,,,2,Slow,short,d,1,2.2516,3,3,15,0,1,,,,,
,0.27,,,,,,,,,k,purple,60395b3328bb6047f0bea27b,2021-09-27_17h08.56.311,forced_choiceRT_color,2021.2.3,Win32,60.04563468,,,,,,,,2,Ontime,short,k,1,2.0699,4,0,16,3,1,,,,,
,0.06,,,,,,,,,j,red,60395b3328bb6047f0bea27b,2021-09-27_17h08.56.311,forced_choiceRT_color,2021.2.3,Win32,60.04563468,,,,,,,,2,Ontime,short,j,1,2.0357,4,1,17,2,1,,,,,
,1.36,,,,,,,,,f,blue,60395b3328bb6047f0bea27b,2021-09-27_17h08.56.311,forced_choiceRT_color,2021.2.3,Win32,60.04563468,,,,,,,,2,Slow,short,f,1,2.3415,4,2,18,1,1,,,,,
,1.87,,,,,,,,,j,red,60395b3328bb6047f0bea27b,2021-09-27_17h08.56.311,forced_choiceRT_color,2021.2.3,Win32,60.04563468,,,,,,,,2,Slow,short,j,1,2.4961,4,3,19,2,1,,,,,
,0.61,,,,,,,,,k,purple,60395b3328bb6047f0bea27b,2021-09-27_17h08.56.311,forced_choiceRT_color,2021.2.3,Win32,60.04563468,,,,,,,,2,Fast,short,k,1,1.154,5,0,20,3,1,,,,,
,1.24,,,,,,,,,j,red,60395b3328bb6047f0bea27b,2021-09-27_17h08.56.311,forced_choiceRT_color,2021.2.3,Win32,60.04563468,,,,,,,,2,Slow,short,j,1,2.2859,5,1,21,2,1,,,,,
,1.8,,,,,,,,,d,orange,60395b3328bb6047f0bea27b,2021-09-27_17h08.56.311,forced_choiceRT_color,2021.2.3,Win32,60.04563468,,,,,,,,2,Slow,short,d,1,2.3686,5,2,22,0,1,,,,,
,0.45,,,,,,,,,f,blue,60395b3328bb6047f0bea27b,2021-09-27_17h08.56.311,forced_choiceRT_color,2021.2.3,Win32,60.04563468,,,,,,,,2,Slow,short,f,1,2.1007,5,3,23,1,1,,,,,
,0.68,,,,,,,,,j,red,60395b3328bb6047f0bea27b,2021-09-27_17h08.56.311,forced_choiceRT_color,2021.2.3,Win32,60.04563468,,,,,,,,2,Slow,short,j,1,2.2361,6,0,24,2,1,,,,,
,0.75,,,,,,,,,f,blue,60395b3328bb6047f0bea27b,2021-09-27_17h08.56.311,forced_choiceRT_color,2021.2.3,Win32,60.04563468,,,,,,,,2,Slow,short,d,0,2.2016,6,1,25,1,1,,,,,
,0.77,,,,,,,,,k,purple,60395b3328bb6047f0bea27b,2021-09-27_17h08.56.311,forced_choiceRT_color,2021.2.3,Win32,60.04563468,,,,,,,,2,Ontime,short,k,1,2.0691,6,2,26,3,1,,,,,
,0.34,,,,,,,,,d,orange,60395b3328bb6047f0bea27b,2021-09-27_17h08.56.311,forced_choiceRT_color,2021.2.3,Win32,60.04563468,,,,,,,,2,Slow,short,d,1,2.1016,6,3,27,0,1,,,,,
,1.05,,,,,,,,,k,purple,60395b3328bb6047f0bea27b,2021-09-27_17h08.56.311,forced_choiceRT_color,2021.2.3,Win32,60.04563468,,,,,,,,2,Slow,short,k,1,2.1182,7,0,28,3,1,,,,,
,1.88,,,,,,,,,k,purple,60395b3328bb6047f0bea27b,2021-09-27_17h08.56.311,forced_choiceRT_color,2021.2.3,Win32,60.04563468,,,,,,,,2,Slow,short,k,1,2.3681,7,1,29,3,1,,,,,
,1.17,,,,,,,,,f,blue,60395b3328bb6047f0bea27b,2021-09-27_17h08.56.311,forced_choiceRT_color,2021.2.3,Win32,60.04563468,,,,,,,,2,Slow,short,f,1,2.1343,7,2,30,1,1,,,,,
,0.98,,,,,,,,,f,blue,60395b3328bb6047f0bea27b,2021-09-27_17h08.56.311,forced_choiceRT_color,2021.2.3,Win32,60.04563468,,,,,,,,2,Ontime,short,f,1,2.0696,7,3,31,1,1,,,,,
,0.5,,,,,,,,,f,blue,60395b3328bb6047f0bea27b,2021-09-27_17h08.56.311,forced_choiceRT_color,2021.2.3,Win32,60.04563468,,,,,,,,2,Ontime,short,f,1,2.0676,8,0,32,1,1,,,,,
,0.88,,,,,,,,,d,orange,60395b3328bb6047f0bea27b,2021-09-27_17h08.56.311,forced_choiceRT_color,2021.2.3,Win32,60.04563468,,,,,,,,2,Ontime,short,d,1,2.0346,8,1,33,0,1,,,,,
,0.83,,,,,,,,,d,orange,60395b3328bb6047f0bea27b,2021-09-27_17h08.56.311,forced_choiceRT_color,2021.2.3,Win32,60.04563468,,,,,,,,2,Ontime,short,d,1,2.0847,8,2,34,0,1,,,,,
,1.28,,,,,,,,,j,red,60395b3328bb6047f0bea27b,2021-09-27_17h08.56.311,forced_choiceRT_color,2021.2.3,Win32,60.04563468,,,,,,,,2,Slow,short,j,1,2.3012,8,3,35,2,1,,,,,
,1.12,,,,,,,,,d,orange,60395b3328bb6047f0bea27b,2021-09-27_17h08.56.311,forced_choiceRT_color,2021.2.3,Win32,60.04563468,,,,,,,,2,Ontime,short,j,0,2.0134,9,0,36,0,1,,,,,
,0.74,,,,,,,,,k,purple,60395b3328bb6047f0bea27b,2021-09-27_17h08.56.311,forced_choiceRT_color,2021.2.3,Win32,60.04563468,,,,,,,,2,Ontime,short,k,1,1.9542,9,1,37,3,1,,,,,
,1.47,,,,,,,,,j,red,60395b3328bb6047f0bea27b,2021-09-27_17h08.56.311,forced_choiceRT_color,2021.2.3,Win32,60.04563468,,,,,,,,2,Ontime,short,j,1,2.0868,9,2,38,2,1,,,,,
,1.54,,,,,,,,,j,red,60395b3328bb6047f0bea27b,2021-09-27_17h08.56.311,forced_choiceRT_color,2021.2.3,Win32,60.04563468,,,,,,,,2,Slow,short,j,1,2.2217,9,3,39,2,1,,,,,
,,,,,,,,,,,,60395b3328bb6047f0bea27b,2021-09-27_17h08.56.311,forced_choiceRT_color,2021.2.3,Win32,60.04563468,,,,,,,,,,,,,,,,,,,1,0,1,0,1
,0.57,,,,,,,,,j,red,60395b3328bb6047f0bea27b,2021-09-27_17h08.56.311,forced_choiceRT_color,2021.2.3,Win32,60.04563468,,,,,,,,3,Ontime,short,j,1,2.0305,0,0,0,2,1,,,,,
,0.22,,,,,,,,,f,blue,60395b3328bb6047f0bea27b,2021-09-27_17h08.56.311,forced_choiceRT_color,2021.2.3,Win32,60.04563468,,,,,,,,3,Ontime,short,f,1,2.0037,0,1,1,1,1,,,,,
,1.88,,,,,,,,,d,orange,60395b3328bb6047f0bea27b,2021-09-27_17h08.56.311,forced_choiceRT_color,2021.2.3,Win32,60.04563468,,,,,,,,3,Slow,short,f,0,2.3647,0,2,2,0,1,,,,,
,0.64,,,,,,,,,k,purple,60395b3328bb6047f0bea27b,2021-09-27_17h08.56.311,forced_choiceRT_color,2021.2.3,Win32,60.04563468,,,,,,,,3,Slow,short,k,1,2.1028,0,3,3,3,1,,,,,
,0.06,,,,,,,,,d,orange,60395b3328bb6047f0bea27b,2021-09-27_17h08.56.311,forced_choiceRT_color,2021.2.3,Win32,60.04563468,,,,,,,,3,Ontime,short,d,1,1.9162,1,0,4,0,1,,,,,
,0.45,,,,,,,,,f,blue,60395b3328bb6047f0bea27b,2021-09-27_17h08.56.311,forced_choiceRT_color,2021.2.3,Win32,60.04563468,,,,,,,,3,Ontime,short,f,1,1.9356,1,1,5,1,1,,,,,
,0.98,,,,,,,,,k,purple,60395b3328bb6047f0bea27b,2021-09-27_17h08.56.311,forced_choiceRT_color,2021.2.3,Win32,60.04563468,,,,,,,,3,Ontime,short,k,1,2.0515,1,2,6,3,1,,,,,
,1.16,,,,,,,,,d,orange,60395b3328bb6047f0bea27b,2021-09-27_17h08.56.311,forced_choiceRT_color,2021.2.3,Win32,60.04563468,,,,,,,,3,Slow,short,d,1,2.1329,1,3,7,0,1,,,,,
,1.87,,,,,,,,,f,blue,60395b3328bb6047f0bea27b,2021-09-27_17h08.56.311,forced_choiceRT_color,2021.2.3,Win32,60.04563468,,,,,,,,3,Slow,short,k,0,2.1689,2,0,8,1,1,,,,,
,1.92,,,,,,,,,k,purple,60395b3328bb6047f0bea27b,2021-09-27_17h08.56.311,forced_choiceRT_color,2021.2.3,Win32,60.04563468,,,,,,,,3,Slow,short,k,1,3.152,2,1,9,3,1,,,,,
,1.02,,,,,,,,,d,orange,60395b3328bb6047f0bea27b,2021-09-27_17h08.56.311,forced_choiceRT_color,2021.2.3,Win32,60.04563468,,,,,,,,3,Slow,short,d,1,2.2344,2,2,10,0,1,,,,,
,0.57,,,,,,,,,k,purple,60395b3328bb6047f0bea27b,2021-09-27_17h08.56.311,forced_choiceRT_color,2021.2.3,Win32,60.04563468,,,,,,,,3,Ontime,short,k,1,2.0019,2,3,11,3,1,,,,,
,1.88,,,,,,,,,d,orange,60395b3328bb6047f0bea27b,2021-09-27_17h08.56.311,forced_choiceRT_color,2021.2.3,Win32,60.04563468,,,,,,,,3,Slow,short,d,1,2.4672,3,0,12,0,1,,,,,
,1.33,,,,,,,,,k,purple,60395b3328bb6047f0bea27b,2021-09-27_17h08.56.311,forced_choiceRT_color,2021.2.3,Win32,60.04563468,,,,,,,,3,Slow,short,k,1,2.2356,3,1,13,3,1,,,,,
,0.1,,,,,,,,,f,blue,60395b3328bb6047f0bea27b,2021-09-27_17h08.56.311,forced_choiceRT_color,2021.2.3,Win32,60.04563468,,,,,,,,3,Fast,short,f,1,1.7547,3,2,14,1,1,,,,,
,1.53,,,,,,,,,j,red,60395b3328bb6047f0bea27b,2021-09-27_17h08.56.311,forced_choiceRT_color,2021.2.3,Win32,60.04563468,,,,,,,,3,Slow,short,j,1,2.1181,3,3,15,2,1,,,,,
,0.18,,,,,,,,,j,red,60395b3328bb6047f0bea27b,2021-09-27_17h08.56.311,forced_choiceRT_color,2021.2.3,Win32,60.04563468,,,,,,,,3,Ontime,short,j,1,1.9825,4,0,16,2,1,,,,,
,0.03,,,,,,,,,f,blue,60395b3328bb6047f0bea27b,2021-09-27_17h08.56.311,forced_choiceRT_color,2021.2.3,Win32,60.04563468,,,,,,,,3,Ontime,short,f,1,2.0842,4,1,17,1,1,,,,,
,1.47,,,,,,,,,j,red,60395b3328bb6047f0bea27b,2021-09-27_17h08.56.311,forced_choiceRT_color,2021.2.3,Win32,60.04563468,,,,,,,,3,Slow,short,j,1,2.3542,4,2,18,2,1,,,,,
,1.36,,,,,,,,,d,orange,60395b3328bb6047f0bea27b,2021-09-27_17h08.56.311,forced_choiceRT_color,2021.2.3,Win32,60.04563468,,,,,,,,3,Ontime,short,d,1,1.9668,4,3,19,0,1,,,,,
,1.45,,,,,,,,,f,blue,60395b3328bb6047f0bea27b,2021-09-27_17h08.56.311,forced_choiceRT_color,2021.2.3,Win32,60.04563468,,,,,,,,3,Slow,short,f,1,2.2831,5,0,20,1,1,,,,,
,0.99,,,,,,,,,j,red,60395b3328bb6047f0bea27b,2021-09-27_17h08.56.311,forced_choiceRT_color,2021.2.3,Win32,60.04563468,,,,,,,,3,Fast,short,j,1,1.7671,5,1,21,2,1,,,,,
,0.42,,,,,,,,,f,blue,60395b3328bb6047f0bea27b,2021-09-27_17h08.56.311,forced_choiceRT_color,2021.2.3,Win32,60.04563468,,,,,,,,3,Slow,short,f,1,2.1184,5,2,22,1,1,,,,,
,1.17,,,,,,,,,j,red,60395b3328bb6047f0bea27b,2021-09-27_17h08.56.311,forced_choiceRT_color,2021.2.3,Win32,60.04563468,,,,,,,,3,Slow,short,j,1,2.1685,5,3,23,2,1,,,,,
,1.99,,,,,,,,,k,purple,60395b3328bb6047f0bea27b,2021-09-27_17h08.56.311,forced_choiceRT_color,2021.2.3,Win32,60.04563468,,,,,,,,3,Slow,short,k,1,2.6017,6,0,24,3,1,,,,,
,0.13,,,,,,,,,k,purple,60395b3328bb6047f0bea27b,2021-09-27_17h08.56.311,forced_choiceRT_color,2021.2.3,Win32,60.04563468,,,,,,,,3,Ontime,short,k,1,1.9182,6,1,25,3,1,,,,,
,1.6,,,,,,,,,k,purple,60395b3328bb6047f0bea27b,2021-09-27_17h08.56.311,forced_choiceRT_color,2021.2.3,Win32,60.04563468,,,,,,,,3,Ontime,short,k,1,2.018,6,2,26,3,1,,,,,
,1.72,,,,,,,,,f,blue,60395b3328bb6047f0bea27b,2021-09-27_17h08.56.311,forced_choiceRT_color,2021.2.3,Win32,60.04563468,,,,,,,,3,Slow,short,f,1,2.218,6,3,27,1,1,,,,,
,1.08,,,,,,,,,j,red,60395b3328bb6047f0bea27b,2021-09-27_17h08.56.311,forced_choiceRT_color,2021.2.3,Win32,60.04563468,,,,,,,,3,Slow,short,j,1,2.1683,7,0,28,2,1,,,,,
,1.77,,,,,,,,,j,red,60395b3328bb6047f0bea27b,2021-09-27_17h08.56.311,forced_choiceRT_color,2021.2.3,Win32,60.04563468,,,,,,,,3,Slow,short,j,1,2.2495,7,1,29,2,1,,,,,
,0.05,,,,,,,,,j,red,60395b3328bb6047f0bea27b,2021-09-27_17h08.56.311,forced_choiceRT_color,2021.2.3,Win32,60.04563468,,,,,,,,3,Fast,short,j,1,1.7684,7,2,30,2,1,,,,,
,0.23,,,,,,,,,f,blue,60395b3328bb6047f0bea27b,2021-09-27_17h08.56.311,forced_choiceRT_color,2021.2.3,Win32,60.04563468,,,,,,,,3,Fast,short,f,1,1.8705,7,3,31,1,1,,,,,
,0.12,,,,,,,,,d,orange,60395b3328bb6047f0bea27b,2021-09-27_17h08.56.311,forced_choiceRT_color,2021.2.3,Win32,60.04563468,,,,,,,,3,Ontime,short,d,1,1.9348,8,0,32,0,1,,,,,
,0.78,,,,,,,,,k,purple,60395b3328bb6047f0bea27b,2021-09-27_17h08.56.311,forced_choiceRT_color,2021.2.3,Win32,60.04563468,,,,,,,,3,Ontime,short,k,1,2.018,8,1,33,3,1,,,,,
,1.34,,,,,,,,,j,red,60395b3328bb6047f0bea27b,2021-09-27_17h08.56.311,forced_choiceRT_color,2021.2.3,Win32,60.04563468,,,,,,,,3,Slow,short,f,0,2.3037,8,2,34,2,1,,,,,
,1.55,,,,,,,,,d,orange,60395b3328bb6047f0bea27b,2021-09-27_17h08.56.311,forced_choiceRT_color,2021.2.3,Win32,60.04563468,,,,,,,,3,Slow,short,d,1,2.1349,8,3,35,0,1,,,,,
,1.85,,,,,,,,,d,orange,60395b3328bb6047f0bea27b,2021-09-27_17h08.56.311,forced_choiceRT_color,2021.2.3,Win32,60.04563468,,,,,,,,3,Slow,short,d,1,2.2202,9,0,36,0,1,,,,,
,1,,,,,,,,,k,purple,60395b3328bb6047f0bea27b,2021-09-27_17h08.56.311,forced_choiceRT_color,2021.2.3,Win32,60.04563468,,,,,,,,3,Ontime,short,k,1,2.0694,9,1,37,3,1,,,,,
,0.7,,,,,,,,,f,blue,60395b3328bb6047f0bea27b,2021-09-27_17h08.56.311,forced_choiceRT_color,2021.2.3,Win32,60.04563468,,,,,,,,3,Ontime,short,f,1,2.068,9,2,38,1,1,,,,,
,0.38,,,,,,,,,d,orange,60395b3328bb6047f0bea27b,2021-09-27_17h08.56.311,forced_choiceRT_color,2021.2.3,Win32,60.04563468,,,,,,,,3,Slow,short,d,1,2.1176,9,3,39,0,1,,,,,
,,,,,,,,,,,,60395b3328bb6047f0bea27b,2021-09-27_17h08.56.311,forced_choiceRT_color,2021.2.3,Win32,60.04563468,,,,,,,,,,,,,,,,,,,2,0,2,0,1
,1.44,,,,,,,,,d,orange,60395b3328bb6047f0bea27b,2021-09-27_17h08.56.311,forced_choiceRT_color,2021.2.3,Win32,60.04563468,,,,,,,,4,Slow,short,d,1,2.1809,0,0,0,0,1,,,,,
,0.97,,,,,,,,,k,purple,60395b3328bb6047f0bea27b,2021-09-27_17h08.56.311,forced_choiceRT_color,2021.2.3,Win32,60.04563468,,,,,,,,4,Ontime,short,k,1,1.9788,0,1,1,3,1,,,,,
,0.26,,,,,,,,,j,red,60395b3328bb6047f0bea27b,2021-09-27_17h08.56.311,forced_choiceRT_color,2021.2.3,Win32,60.04563468,,,,,,,,4,Ontime,short,j,1,1.9934,0,2,2,2,1,,,,,
,1.96,,,,,,,,,f,blue,60395b3328bb6047f0bea27b,2021-09-27_17h08.56.311,forced_choiceRT_color,2021.2.3,Win32,60.04563468,,,,,,,,4,Slow,short,f,1,2.3604,0,3,3,1,1,,,,,
,0.45,,,,,,,,,k,purple,60395b3328bb6047f0bea27b,2021-09-27_17h08.56.311,forced_choiceRT_color,2021.2.3,Win32,60.04563468,,,,,,,,4,Ontime,short,k,1,2.0775,1,0,4,3,1,,,,,
,1.73,,,,,,,,,d,orange,60395b3328bb6047f0bea27b,2021-09-27_17h08.56.311,forced_choiceRT_color,2021.2.3,Win32,60.04563468,,,,,,,,4,Slow,short,d,1,2.4718,1,1,5,0,1,,,,,
,1.15,,,,,,,,,j,red,60395b3328bb6047f0bea27b,2021-09-27_17h08.56.311,forced_choiceRT_color,2021.2.3,Win32,60.04563468,,,,,,,,4,Slow,short,j,1,2.1562,1,2,6,2,1,,,,,
,1.06,,,,,,,,,k,purple,60395b3328bb6047f0bea27b,2021-09-27_17h08.56.311,forced_choiceRT_color,2021.2.3,Win32,60.04563468,,,,,,,,4,Ontime,short,k,1,2.0507,1,3,7,3,1,,,,,
,0.82,,,,,,,,,d,orange,60395b3328bb6047f0bea27b,2021-09-27_17h08.56.311,forced_choiceRT_color,2021.2.3,Win32,60.04563468,,,,,,,,4,Slow,short,d,1,2.1006,2,0,8,0,1,,,,,
,1.72,,,,,,,,,j,red,60395b3328bb6047f0bea27b,2021-09-27_17h08.56.311,forced_choiceRT_color,2021.2.3,Win32,60.04563468,,,,,,,,4,Slow,short,j,1,2.429,2,1,9,2,1,,,,,
,0.45,,,,,,,,,j,red,60395b3328bb6047f0bea27b,2021-09-27_17h08.56.311,forced_choiceRT_color,2021.2.3,Win32,60.04563468,,,,,,,,4,Ontime,short,j,1,1.9752,2,2,10,2,1,,,,,
,0.35,,,,,,,,,j,red,60395b3328bb6047f0bea27b,2021-09-27_17h08.56.311,forced_choiceRT_color,2021.2.3,Win32,60.04563468,,,,,,,,4,Fast,short,j,1,1.8327,2,3,11,2,1,,,,,
,0.28,,,,,,,,,f,blue,60395b3328bb6047f0bea27b,2021-09-27_17h08.56.311,forced_choiceRT_color,2021.2.3,Win32,60.04563468,,,,,,,,4,Ontime,short,f,1,1.9799,3,0,12,1,1,,,,,
,1.14,,,,,,,,,f,blue,60395b3328bb6047f0bea27b,2021-09-27_17h08.56.311,forced_choiceRT_color,2021.2.3,Win32,60.04563468,,,,,,,,4,Ontime,short,f,1,2.0827,3,1,13,1,1,,,,,
,0.63,,,,,,,,,d,orange,60395b3328bb6047f0bea27b,2021-09-27_17h08.56.311,forced_choiceRT_color,2021.2.3,Win32,60.04563468,,,,,,,,4,Slow,short,d,1,2.2268,3,2,14,0,1,,,,,
,0.98,,,,,,,,,f,blue,60395b3328bb6047f0bea27b,2021-09-27_17h08.56.311,forced_choiceRT_color,2021.2.3,Win32,60.04563468,,,,,,,,4,Ontime,short,f,1,1.9856,3,3,15,1,1,,,,,
,1.69,,,,,,,,,f,blue,60395b3328bb6047f0bea27b,2021-09-27_17h08.56.311,forced_choiceRT_color,2021.2.3,Win32,60.04563468,,,,,,,,4,Slow,short,f,1,2.1927,4,0,16,1,1,,,,,
,1.92,,,,,,,,,j,red,60395b3328bb6047f0bea27b,2021-09-27_17h08.56.311,forced_choiceRT_color,2021.2.3,Win32,60.04563468,,,,,,,,4,Slow,short,j,1,2.4689,4,1,17,2,1,,,,,
,1.19,,,,,,,,,f,blue,60395b3328bb6047f0bea27b,2021-09-27_17h08.56.311,forced_choiceRT_color,2021.2.3,Win32,60.04563468,,,,,,,,4,Ontime,short,f,1,1.9577,4,2,18,1,1,,,,,
,0.22,,,,,,,,,k,purple,60395b3328bb6047f0bea27b,2021-09-27_17h08.56.311,forced_choiceRT_color,2021.2.3,Win32,60.04563468,,,,,,,,4,Ontime,short,k,1,1.9993,4,3,19,3,1,,,,,
,0.92,,,,,,,,,f,blue,60395b3328bb6047f0bea27b,2021-09-27_17h08.56.311,forced_choiceRT_color,2021.2.3,Win32,60.04563468,,,,,,,,4,Ontime,short,f,1,2.0627,5,0,20,1,1,,,,,
,1.65,,,,,,,,,d,orange,60395b3328bb6047f0bea27b,2021-09-27_17h08.56.311,forced_choiceRT_color,2021.2.3,Win32,60.04563468,,,,,,,,4,Slow,short,d,1,2.3934,5,1,21,0,1,,,,,
,1.78,,,,,,,,,j,red,60395b3328bb6047f0bea27b,2021-09-27_17h08.56.311,forced_choiceRT_color,2021.2.3,Win32,60.04563468,,,,,,,,4,Slow,short,f,0,2.1578,5,2,22,2,1,,,,,
,0.82,,,,,,,,,d,orange,60395b3328bb6047f0bea27b,2021-09-27_17h08.56.311,forced_choiceRT_color,2021.2.3,Win32,60.04563468,,,,,,,,4,Fast,short,d,1,1.6935,5,3,23,0,1,,,,,
,1.25,,,,,,,,,f,blue,60395b3328bb6047f0bea27b,2021-09-27_17h08.56.311,forced_choiceRT_color,2021.2.3,Win32,60.04563468,,,,,,,,4,Ontime,short,j,0,2.0554,6,0,24,1,1,,,,,
,0.82,,,,,,,,,d,orange,60395b3328bb6047f0bea27b,2021-09-27_17h08.56.311,forced_choiceRT_color,2021.2.3,Win32,60.04563468,,,,,,,,4,Fast,short,d,1,1.8974,6,1,25,0,1,,,,,
,1.86,,,,,,,,,k,purple,60395b3328bb6047f0bea27b,2021-09-27_17h08.56.311,forced_choiceRT_color,2021.2.3,Win32,60.04563468,,,,,,,,4,Slow,short,k,1,2.3684,6,2,26,3,1,,,,,
,0.12,,,,,,,,,j,red,60395b3328bb6047f0bea27b,2021-09-27_17h08.56.311,forced_choiceRT_color,2021.2.3,Win32,60.04563468,,,,,,,,4,Ontime,short,j,1,1.9381,6,3,27,2,1,,,,,
,1.42,,,,,,,,,k,purple,60395b3328bb6047f0bea27b,2021-09-27_17h08.56.311,forced_choiceRT_color,2021.2.3,Win32,60.04563468,,,,,,,,4,Slow,short,k,1,2.11,7,0,28,3,1,,,,,
,1.44,,,,,,,,,d,orange,60395b3328bb6047f0bea27b,2021-09-27_17h08.56.311,forced_choiceRT_color,2021.2.3,Win32,60.04563468,,,,,,,,4,Slow,short,d,1,2.1241,7,1,29,0,1,,,,,
,1.09,,,,,,,,,f,blue,60395b3328bb6047f0bea27b,2021-09-27_17h08.56.311,forced_choiceRT_color,2021.2.3,Win32,60.04563468,,,,,,,,4,Ontime,short,d,0,1.9179,7,2,30,1,1,,,,,
,0.02,,,,,,,,,f,blue,60395b3328bb6047f0bea27b,2021-09-27_17h08.56.311,forced_choiceRT_color,2021.2.3,Win32,60.04563468,,,,,,,,4,Fast,short,f,1,0.9842,7,3,31,1,1,,,,,
,0.99,,,,,,,,,k,purple,60395b3328bb6047f0bea27b,2021-09-27_17h08.56.311,forced_choiceRT_color,2021.2.3,Win32,60.04563468,,,,,,,,4,Ontime,short,k,1,1.9785,8,0,32,3,1,,,,,
,0.47,,,,,,,,,j,red,60395b3328bb6047f0bea27b,2021-09-27_17h08.56.311,forced_choiceRT_color,2021.2.3,Win32,60.04563468,,,,,,,,4,Ontime,short,j,1,2.0196,8,1,33,2,1,,,,,
,0.03,,,,,,,,,d,orange,60395b3328bb6047f0bea27b,2021-09-27_17h08.56.311,forced_choiceRT_color,2021.2.3,Win32,60.04563468,,,,,,,,4,Fast,short,d,1,1.8686,8,2,34,0,1,,,,,
,0.27,,,,,,,,,k,purple,60395b3328bb6047f0bea27b,2021-09-27_17h08.56.311,forced_choiceRT_color,2021.2.3,Win32,60.04563468,,,,,,,,4,Ontime,short,k,1,2.0017,8,3,35,3,1,,,,,
,1.67,,,,,,,,,j,red,60395b3328bb6047f0bea27b,2021-09-27_17h08.56.311,forced_choiceRT_color,2021.2.3,Win32,60.04563468,,,,,,,,4,Slow,short,j,1,2.2851,9,0,36,2,1,,,,,
,0.33,,,,,,,,,k,purple,60395b3328bb6047f0bea27b,2021-09-27_17h08.56.311,forced_choiceRT_color,2021.2.3,Win32,60.04563468,,,,,,,,4,Ontime,short,k,1,1.9685,9,1,37,3,1,,,,,
,0.48,,,,,,,,,d,orange,60395b3328bb6047f0bea27b,2021-09-27_17h08.56.311,forced_choiceRT_color,2021.2.3,Win32,60.04563468,,,,,,,,4,Ontime,short,d,1,2.022,9,2,38,0,1,,,,,
,1.56,,,,,,,,,k,purple,60395b3328bb6047f0bea27b,2021-09-27_17h08.56.311,forced_choiceRT_color,2021.2.3,Win32,60.04563468,,,,,,,,4,Slow,short,k,1,2.1676,9,3,39,3,1,,,,,
,,,,,,,,,,,,60395b3328bb6047f0bea27b,2021-09-27_17h08.56.311,forced_choiceRT_color,2021.2.3,Win32,60.04563468,,,,,,,,,,,,,,,,,,,3,0,3,0,1
,1.3,,,,,,,,,d,orange,60395b3328bb6047f0bea27b,2021-09-27_17h08.56.311,forced_choiceRT_color,2021.2.3,Win32,60.04563468,,,,,,,,5,Slow,short,d,1,2.2948,0,0,0,0,1,,,,,
,1.27,,,,,,,,,d,orange,60395b3328bb6047f0bea27b,2021-09-27_17h08.56.311,forced_choiceRT_color,2021.2.3,Win32,60.04563468,,,,,,,,5,Ontime,short,d,1,1.9128,0,1,1,0,1,,,,,
,1.64,,,,,,,,,f,blue,60395b3328bb6047f0bea27b,2021-09-27_17h08.56.311,forced_choiceRT_color,2021.2.3,Win32,60.04563468,,,,,,,,5,Slow,short,f,1,2.238,0,2,2,1,1,,,,,
,1.28,,,,,,,,,k,purple,60395b3328bb6047f0bea27b,2021-09-27_17h08.56.311,forced_choiceRT_color,2021.2.3,Win32,60.04563468,,,,,,,,5,Slow,short,k,1,2.2605,0,3,3,3,1,,,,,
,1.25,,,,,,,,,d,orange,60395b3328bb6047f0bea27b,2021-09-27_17h08.56.311,forced_choiceRT_color,2021.2.3,Win32,60.04563468,,,,,,,,5,Fast,short,d,1,1.8681,1,0,4,0,1,,,,,
,0.02,,,,,,,,,d,orange,60395b3328bb6047f0bea27b,2021-09-27_17h08.56.311,forced_choiceRT_color,2021.2.3,Win32,60.04563468,,,,,,,,5,Fast,short,d,1,1.7391,1,1,5,0,1,,,,,
,1.37,,,,,,,,,k,purple,60395b3328bb6047f0bea27b,2021-09-27_17h08.56.311,forced_choiceRT_color,2021.2.3,Win32,60.04563468,,,,,,,,5,Ontime,short,k,1,1.9539,1,2,6,3,1,,,,,
,1.34,,,,,,,,,k,purple,60395b3328bb6047f0bea27b,2021-09-27_17h08.56.311,forced_choiceRT_color,2021.2.3,Win32,60.04563468,,,,,,,,5,Slow,short,k,1,2.2983,1,3,7,3,1,,,,,
,0.75,,,,,,,,,j,red,60395b3328bb6047f0bea27b,2021-09-27_17h08.56.311,forced_choiceRT_color,2021.2.3,Win32,60.04563468,,,,,,,,5,Ontime,short,j,1,1.9228,2,0,8,2,1,,,,,
,0.55,,,,,,,,,f,blue,60395b3328bb6047f0bea27b,2021-09-27_17h08.56.311,forced_choiceRT_color,2021.2.3,Win32,60.04563468,,,,,,,,5,Ontime,short,f,1,2.0362,2,1,9,1,1,,,,,
,0.3,,,,,,,,,d,orange,60395b3328bb6047f0bea27b,2021-09-27_17h08.56.311,forced_choiceRT_color,2021.2.3,Win32,60.04563468,,,,,,,,5,Slow,short,f,0,2.2354,2,2,10,0,1,,,,,
,1.29,,,,,,,,,j,red,60395b3328bb6047f0bea27b,2021-09-27_17h08.56.311,forced_choiceRT_color,2021.2.3,Win32,60.04563468,,,,,,,,5,Slow,short,j,1,2.1333,2,3,11,2,1,,,,,
,0.68,,,,,,,,,d,orange,60395b3328bb6047f0bea27b,2021-09-27_17h08.56.311,forced_choiceRT_color,2021.2.3,Win32,60.04563468,,,,,,,,5,Ontime,short,d,1,2.0585,3,0,12,0,1,,,,,
,0.3,,,,,,,,,d,orange,60395b3328bb6047f0bea27b,2021-09-27_17h08.56.311,forced_choiceRT_color,2021.2.3,Win32,60.04563468,,,,,,,,5,Ontime,short,d,1,1.9357,3,1,13,0,1,,,,,
,1.68,,,,,,,,,d,orange,60395b3328bb6047f0bea27b,2021-09-27_17h08.56.311,forced_choiceRT_color,2021.2.3,Win32,60.04563468,,,,,,,,5,Slow,short,d,1,2.2517,3,2,14,0,1,,,,,
,1.6,,,,,,,,,k,purple,60395b3328bb6047f0bea27b,2021-09-27_17h08.56.311,forced_choiceRT_color,2021.2.3,Win32,60.04563468,,,,,,,,5,Slow,short,k,1,2.1177,3,3,15,3,1,,,,,
,0.85,,,,,,,,,f,blue,60395b3328bb6047f0bea27b,2021-09-27_17h08.56.311,forced_choiceRT_color,2021.2.3,Win32,60.04563468,,,,,,,,5,Ontime,short,j,0,2.0492,4,0,16,1,1,,,,,
,1.43,,,,,,,,,k,purple,60395b3328bb6047f0bea27b,2021-09-27_17h08.56.311,forced_choiceRT_color,2021.2.3,Win32,60.04563468,,,,,,,,5,Ontime,short,k,1,2.0828,4,1,17,3,1,,,,,
,1.18,,,,,,,,,j,red,60395b3328bb6047f0bea27b,2021-09-27_17h08.56.311,forced_choiceRT_color,2021.2.3,Win32,60.04563468,,,,,,,,5,Ontime,short,j,1,1.9177,4,2,18,2,1,,,,,
,1.6,,,,,,,,,j,red,60395b3328bb6047f0bea27b,2021-09-27_17h08.56.311,forced_choiceRT_color,2021.2.3,Win32,60.04563468,,,,,,,,5,Slow,short,j,1,2.127,4,3,19,2,1,,,,,
,0.44,,,,,,,,,j,red,60395b3328bb6047f0bea27b,2021-09-27_17h08.56.311,forced_choiceRT_color,2021.2.3,Win32,60.04563468,,,,,,,,5,Ontime,short,j,1,2.051,5,0,20,2,1,,,,,
,0.29,,,,,,,,,f,blue,60395b3328bb6047f0bea27b,2021-09-27_17h08.56.311,forced_choiceRT_color,2021.2.3,Win32,60.04563468,,,,,,,,5,Ontime,short,f,1,2.0159,5,1,21,1,1,,,,,
,1.66,,,,,,,,,k,purple,60395b3328bb6047f0bea27b,2021-09-27_17h08.56.311,forced_choiceRT_color,2021.2.3,Win32,60.04563468,,,,,,,,5,Slow,short,k,1,2.236,5,2,22,3,1,,,,,
,1.83,,,,,,,,,f,blue,60395b3328bb6047f0bea27b,2021-09-27_17h08.56.311,forced_choiceRT_color,2021.2.3,Win32,60.04563468,,,,,,,,5,Slow,short,j,0,2.4176,5,3,23,1,1,,,,,
,0.47,,,,,,,,,d,orange,60395b3328bb6047f0bea27b,2021-09-27_17h08.56.311,forced_choiceRT_color,2021.2.3,Win32,60.04563468,,,,,,,,5,Ontime,short,d,1,1.9425,6,0,24,0,1,,,,,
,1.45,,,,,,,,,j,red,60395b3328bb6047f0bea27b,2021-09-27_17h08.56.311,forced_choiceRT_color,2021.2.3,Win32,60.04563468,,,,,,,,5,Slow,short,j,1,2.2437,6,1,25,2,1,,,,,
,0.52,,,,,,,,,k,purple,60395b3328bb6047f0bea27b,2021-09-27_17h08.56.311,forced_choiceRT_color,2021.2.3,Win32,60.04563468,,,,,,,,5,Ontime,short,k,1,2.0868,6,2,26,3,1,,,,,
,1.48,,,,,,,,,j,red,60395b3328bb6047f0bea27b,2021-09-27_17h08.56.311,forced_choiceRT_color,2021.2.3,Win32,60.04563468,,,,,,,,5,Slow,short,j,1,2.3516,6,3,27,2,1,,,,,
,0.87,,,,,,,,,f,blue,60395b3328bb6047f0bea27b,2021-09-27_17h08.56.311,forced_choiceRT_color,2021.2.3,Win32,60.04563468,,,,,,,,5,Ontime,short,j,0,2.0086,7,0,28,1,1,,,,,
,0.49,,,,,,,,,f,blue,60395b3328bb6047f0bea27b,2021-09-27_17h08.56.311,forced_choiceRT_color,2021.2.3,Win32,60.04563468,,,,,,,,5,Ontime,short,f,1,2.0846,7,1,29,1,1,,,,,
,1.76,,,,,,,,,k,purple,60395b3328bb6047f0bea27b,2021-09-27_17h08.56.311,forced_choiceRT_color,2021.2.3,Win32,60.04563468,,,,,,,,5,Slow,short,k,1,2.339,7,2,30,3,1,,,,,
,0.37,,,,,,,,,f,blue,60395b3328bb6047f0bea27b,2021-09-27_17h08.56.311,forced_choiceRT_color,2021.2.3,Win32,60.04563468,,,,,,,,5,Ontime,short,f,1,2.0345,7,3,31,1,1,,,,,
,0.28,,,,,,,,,f,blue,60395b3328bb6047f0bea27b,2021-09-27_17h08.56.311,forced_choiceRT_color,2021.2.3,Win32,60.04563468,,,,,,,,5,Ontime,short,f,1,2.0672,8,0,32,1,1,,,,,
,1.43,,,,,,,,,k,purple,60395b3328bb6047f0bea27b,2021-09-27_17h08.56.311,forced_choiceRT_color,2021.2.3,Win32,60.04563468,,,,,,,,5,Ontime,short,k,1,2.0682,8,1,33,3,1,,,,,
,1.26,,,,,,,,,d,orange,60395b3328bb6047f0bea27b,2021-09-27_17h08.56.311,forced_choiceRT_color,2021.2.3,Win32,60.04563468,,,,,,,,5,Ontime,short,d,1,2.0507,8,2,34,0,1,,,,,
,0.72,,,,,,,,,j,red,60395b3328bb6047f0bea27b,2021-09-27_17h08.56.311,forced_choiceRT_color,2021.2.3,Win32,60.04563468,,,,,,,,5,Slow,short,j,1,2.1023,8,3,35,2,1,,,,,
,1.76,,,,,,,,,k,purple,60395b3328bb6047f0bea27b,2021-09-27_17h08.56.311,forced_choiceRT_color,2021.2.3,Win32,60.04563468,,,,,,,,5,Slow,short,k,1,2.2865,9,0,36,3,1,,,,,
,0.75,,,,,,,,,j,red,60395b3328bb6047f0bea27b,2021-09-27_17h08.56.311,forced_choiceRT_color,2021.2.3,Win32,60.04563468,,,,,,,,5,Slow,short,j,1,2.2293,9,1,37,2,1,,,,,
,1.8,,,,,,,,,f,blue,60395b3328bb6047f0bea27b,2021-09-27_17h08.56.311,forced_choiceRT_color,2021.2.3,Win32,60.04563468,,,,,,,,5,Slow,short,k,0,2.3031,9,2,38,1,1,,,,,
,0.62,,,,,,,,,j,red,60395b3328bb6047f0bea27b,2021-09-27_17h08.56.311,forced_choiceRT_color,2021.2.3,Win32,60.04563468,,,,,,,,5,Ontime,short,j,1,2.0776,9,3,39,2,1,,,,,
,,,,,,,,,,,,60395b3328bb6047f0bea27b,2021-09-27_17h08.56.311,forced_choiceRT_color,2021.2.3,Win32,60.04563468,,,,,,,,,,,,,,,,,,,4,0,4,0,1
,0.2,,,,,,,,,f,blue,60395b3328bb6047f0bea27b,2021-09-27_17h08.56.311,forced_choiceRT_color,2021.2.3,Win32,60.04563468,,,,,,,,6,Ontime,short,f,1,2.0374,0,0,0,1,1,,,,,
,0.26,,,,,,,,,d,orange,60395b3328bb6047f0bea27b,2021-09-27_17h08.56.311,forced_choiceRT_color,2021.2.3,Win32,60.04563468,,,,,,,,6,Slow,short,d,1,2.1668,0,1,1,0,1,,,,,
,1.77,,,,,,,,,f,blue,60395b3328bb6047f0bea27b,2021-09-27_17h08.56.311,forced_choiceRT_color,2021.2.3,Win32,60.04563468,,,,,,,,6,Ontime,short,d,0,2.0493,0,2,2,1,1,,,,,
,1.5,,,,,,,,,k,purple,60395b3328bb6047f0bea27b,2021-09-27_17h08.56.311,forced_choiceRT_color,2021.2.3,Win32,60.04563468,,,,,,,,6,Ontime,short,k,1,2.0651,0,3,3,3,1,,,,,
,1.52,,,,,,,,,d,orange,60395b3328bb6047f0bea27b,2021-09-27_17h08.56.311,forced_choiceRT_color,2021.2.3,Win32,60.04563468,,,,,,,,6,Slow,short,d,1,2.1269,1,0,4,0,1,,,,,
,0.26,,,,,,,,,f,blue,60395b3328bb6047f0bea27b,2021-09-27_17h08.56.311,forced_choiceRT_color,2021.2.3,Win32,60.04563468,,,,,,,,6,Ontime,short,f,1,2.0851,1,1,5,1,1,,,,,
,0.22,,,,,,,,,j,red,60395b3328bb6047f0bea27b,2021-09-27_17h08.56.311,forced_choiceRT_color,2021.2.3,Win32,60.04563468,,,,,,,,6,Slow,short,j,1,2.2381,1,2,6,2,1,,,,,
,0.19,,,,,,,,,f,blue,60395b3328bb6047f0bea27b,2021-09-27_17h08.56.311,forced_choiceRT_color,2021.2.3,Win32,60.04563468,,,,,,,,6,Ontime,short,f,1,1.937,1,3,7,1,1,,,,,
,0.7,,,,,,,,,f,blue,60395b3328bb6047f0bea27b,2021-09-27_17h08.56.311,forced_choiceRT_color,2021.2.3,Win32,60.04563468,,,,,,,,6,Slow,short,f,1,2.1004,2,0,8,1,1,,,,,
,0.52,,,,,,,,,d,orange,60395b3328bb6047f0bea27b,2021-09-27_17h08.56.311,forced_choiceRT_color,2021.2.3,Win32,60.04563468,,,,,,,,6,Ontime,short,d,1,1.9943,2,1,9,0,1,,,,,
,0.47,,,,,,,,,k,purple,60395b3328bb6047f0bea27b,2021-09-27_17h08.56.311,forced_choiceRT_color,2021.2.3,Win32,60.04563468,,,,,,,,6,Ontime,short,k,1,2.0987,2,2,10,3,1,,,,,
,1.77,,,,,,,,,d,orange,60395b3328bb6047f0bea27b,2021-09-27_17h08.56.311,forced_choiceRT_color,2021.2.3,Win32,60.04563468,,,,,,,,6,Slow,short,d,1,2.3729,2,3,11,0,1,,,,,
,0.76,,,,,,,,,j,red,60395b3328bb6047f0bea27b,2021-09-27_17h08.56.311,forced_choiceRT_color,2021.2.3,Win32,60.04563468,,,,,,,,6,Fast,short,j,1,1.7267,3,0,12,2,1,,,,,
,0.83,,,,,,,,,f,blue,60395b3328bb6047f0bea27b,2021-09-27_17h08.56.311,forced_choiceRT_color,2021.2.3,Win32,60.04563468,,,,,,,,6,Slow,short,f,1,2.1023,3,1,13,1,1,,,,,
,1.77,,,,,,,,,j,red,60395b3328bb6047f0bea27b,2021-09-27_17h08.56.311,forced_choiceRT_color,2021.2.3,Win32,60.04563468,,,,,,,,6,Slow,short,f,0,2.3109,3,2,14,2,1,,,,,
,1.87,,,,,,,,,f,blue,60395b3328bb6047f0bea27b,2021-09-27_17h08.56.311,forced_choiceRT_color,2021.2.3,Win32,60.04563468,,,,,,,,6,Slow,short,f,1,2.3659,3,3,15,1,1,,,,,
,0.19,,,,,,,,,k,purple,60395b3328bb6047f0bea27b,2021-09-27_17h08.56.311,forced_choiceRT_color,2021.2.3,Win32,60.04563468,,,,,,,,6,Ontime,short,k,1,2.0104,4,0,16,3,1,,,,,
,0.48,,,,,,,,,d,orange,60395b3328bb6047f0bea27b,2021-09-27_17h08.56.311,forced_choiceRT_color,2021.2.3,Win32,60.04563468,,,,,,,,6,Ontime,short,d,1,2.0705,4,1,17,0,1,,,,,
,0.67,,,,,,,,,f,blue,60395b3328bb6047f0bea27b,2021-09-27_17h08.56.311,forced_choiceRT_color,2021.2.3,Win32,60.04563468,,,,,,,,6,Ontime,short,f,1,1.9658,4,2,18,1,1,,,,,
,1.52,,,,,,,,,k,purple,60395b3328bb6047f0bea27b,2021-09-27_17h08.56.311,forced_choiceRT_color,2021.2.3,Win32,60.04563468,,,,,,,,6,Slow,short,k,1,2.1343,4,3,19,3,1,,,,,
,1.93,,,,,,,,,k,purple,60395b3328bb6047f0bea27b,2021-09-27_17h08.56.311,forced_choiceRT_color,2021.2.3,Win32,60.04563468,,,,,,,,6,Slow,short,k,1,2.501,5,0,20,3,1,,,,,
,1.02,,,,,,,,,j,red,60395b3328bb6047f0bea27b,2021-09-27_17h08.56.311,forced_choiceRT_color,2021.2.3,Win32,60.04563468,,,,,,,,6,Fast,short,j,1,1.5438,5,1,21,2,1,,,,,
,0.79,,,,,,,,,f,blue,60395b3328bb6047f0bea27b,2021-09-27_17h08.56.311,forced_choiceRT_color,2021.2.3,Win32,60.04563468,,,,,,,,6,Ontime,short,f,1,2.0017,5,2,22,1,1,,,,,
,0.16,,,,,,,,,k,purple,60395b3328bb6047f0bea27b,2021-09-27_17h08.56.311,forced_choiceRT_color,2021.2.3,Win32,60.04563468,,,,,,,,6,Fast,short,k,1,1.7733,5,3,23,3,1,,,,,
,1.75,,,,,,,,,d,orange,60395b3328bb6047f0bea27b,2021-09-27_17h08.56.311,forced_choiceRT_color,2021.2.3,Win32,60.04563468,,,,,,,,6,Slow,short,f,0,2.3349,6,0,24,0,1,,,,,
,1.19,,,,,,,,,d,orange,60395b3328bb6047f0bea27b,2021-09-27_17h08.56.311,forced_choiceRT_color,2021.2.3,Win32,60.04563468,,,,,,,,6,Fast,short,d,1,1.7359,6,1,25,0,1,,,,,
,0.34,,,,,,,,,d,orange,60395b3328bb6047f0bea27b,2021-09-27_17h08.56.311,forced_choiceRT_color,2021.2.3,Win32,60.04563468,,,,,,,,6,Ontime,short,d,1,2.0862,6,2,26,0,1,,,,,
,0.23,,,,,,,,,f,blue,60395b3328bb6047f0bea27b,2021-09-27_17h08.56.311,forced_choiceRT_color,2021.2.3,Win32,60.04563468,,,,,,,,6,Fast,short,j,0,1.8422,6,3,27,1,1,,,,,
,0.55,,,,,,,,,d,orange,60395b3328bb6047f0bea27b,2021-09-27_17h08.56.311,forced_choiceRT_color,2021.2.3,Win32,60.04563468,,,,,,,,6,Ontime,short,d,1,2.0361,7,0,28,0,1,,,,,
,1.26,,,,,,,,,k,purple,60395b3328bb6047f0bea27b,2021-09-27_17h08.56.311,forced_choiceRT_color,2021.2.3,Win32,60.04563468,,,,,,,,6,Slow,short,k,1,2.1528,7,1,29,3,1,,,,,
,1.97,,,,,,,,,k,purple,60395b3328bb6047f0bea27b,2021-09-27_17h08.56.311,forced_choiceRT_color,2021.2.3,Win32,60.04563468,,,,,,,,6,Slow,short,k,1,2.3442,7,2,30,3,1,,,,,
,0.24,,,,,,,,,k,purple,60395b3328bb6047f0bea27b,2021-09-27_17h08.56.311,forced_choiceRT_color,2021.2.3,Win32,60.04563468,,,,,,,,6,Ontime,short,k,1,1.9184,7,3,31,3,1,,,,,
,0.01,,,,,,,,,j,red,60395b3328bb6047f0bea27b,2021-09-27_17h08.56.311,forced_choiceRT_color,2021.2.3,Win32,60.04563468,,,,,,,,6,Ontime,short,j,1,1.9014,8,0,32,2,1,,,,,
,1.27,,,,,,,,,j,red,60395b3328bb6047f0bea27b,2021-09-27_17h08.56.311,forced_choiceRT_color,2021.2.3,Win32,60.04563468,,,,,,,,6,Slow,short,j,1,2.2684,8,1,33,2,1,,,,,
,0.82,,,,,,,,,j,red,60395b3328bb6047f0bea27b,2021-09-27_17h08.56.311,forced_choiceRT_color,2021.2.3,Win32,60.04563468,,,,,,,,6,Ontime,short,j,1,2.0757,8,2,34,2,1,,,,,
,1.05,,,,,,,,,j,red,60395b3328bb6047f0bea27b,2021-09-27_17h08.56.311,forced_choiceRT_color,2021.2.3,Win32,60.04563468,,,,,,,,6,Ontime,short,j,1,2.0495,8,3,35,2,1,,,,,
,0.76,,,,,,,,,d,orange,60395b3328bb6047f0bea27b,2021-09-27_17h08.56.311,forced_choiceRT_color,2021.2.3,Win32,60.04563468,,,,,,,,6,Ontime,short,d,1,1.9515,9,0,36,0,1,,,,,
,1.03,,,,,,,,,j,red,60395b3328bb6047f0bea27b,2021-09-27_17h08.56.311,forced_choiceRT_color,2021.2.3,Win32,60.04563468,,,,,,,,6,Slow,short,j,1,2.1188,9,1,37,2,1,,,,,
,1.49,,,,,,,,,j,red,60395b3328bb6047f0bea27b,2021-09-27_17h08.56.311,forced_choiceRT_color,2021.2.3,Win32,60.04563468,,,,,,,,6,Slow,short,j,1,2.2371,9,2,38,2,1,,,,,
,0.11,,,,,,,,,k,purple,60395b3328bb6047f0bea27b,2021-09-27_17h08.56.311,forced_choiceRT_color,2021.2.3,Win32,60.04563468,,,,,,,,6,Ontime,short,k,1,1.9777,9,3,39,3,1,,,,,
,,,,,,,,,,,,60395b3328bb6047f0bea27b,2021-09-27_17h08.56.311,forced_choiceRT_color,2021.2.3,Win32,60.04563468,,,,,,,,,,,,,,,,,,,5,0,5,0,1
,1.5,,,,,,,,,k,purple,60395b3328bb6047f0bea27b,2021-09-27_17h08.56.311,forced_choiceRT_color,2021.2.3,Win32,60.04563468,,,,,,,,7,Slow,short,k,1,2.1739,0,0,0,3,1,,,,,
,1.21,,,,,,,,,k,purple,60395b3328bb6047f0bea27b,2021-09-27_17h08.56.311,forced_choiceRT_color,2021.2.3,Win32,60.04563468,,,,,,,,7,Fast,short,k,1,1.7516,0,1,1,3,1,,,,,
,0.01,,,,,,,,,f,blue,60395b3328bb6047f0bea27b,2021-09-27_17h08.56.311,forced_choiceRT_color,2021.2.3,Win32,60.04563468,,,,,,,,7,Fast,short,f,1,1.7348,0,2,2,1,1,,,,,
,1.66,,,,,,,,,k,purple,60395b3328bb6047f0bea27b,2021-09-27_17h08.56.311,forced_choiceRT_color,2021.2.3,Win32,60.04563468,,,,,,,,7,Slow,short,k,1,2.2501,0,3,3,3,1,,,,,
,1.1,,,,,,,,,d,orange,60395b3328bb6047f0bea27b,2021-09-27_17h08.56.311,forced_choiceRT_color,2021.2.3,Win32,60.04563468,,,,,,,,7,Ontime,short,d,1,2.0535,1,0,4,0,1,,,,,
,1.4,,,,,,,,,j,red,60395b3328bb6047f0bea27b,2021-09-27_17h08.56.311,forced_choiceRT_color,2021.2.3,Win32,60.04563468,,,,,,,,7,Ontime,short,j,1,2.0511,1,1,5,2,1,,,,,
,0.51,,,,,,,,,j,red,60395b3328bb6047f0bea27b,2021-09-27_17h08.56.311,forced_choiceRT_color,2021.2.3,Win32,60.04563468,,,,,,,,7,Fast,short,j,1,1.3347,1,2,6,2,1,,,,,
,0.23,,,,,,,,,f,blue,60395b3328bb6047f0bea27b,2021-09-27_17h08.56.311,forced_choiceRT_color,2021.2.3,Win32,60.04563468,,,,,,,,7,Fast,short,f,1,1.2015,1,3,7,1,1,,,,,
,0.09,,,,,,,,,k,purple,60395b3328bb6047f0bea27b,2021-09-27_17h08.56.311,forced_choiceRT_color,2021.2.3,Win32,60.04563468,,,,,,,,7,Ontime,short,k,1,2.053,2,0,8,3,1,,,,,
,0.42,,,,,,,,,f,blue,60395b3328bb6047f0bea27b,2021-09-27_17h08.56.311,forced_choiceRT_color,2021.2.3,Win32,60.04563468,,,,,,,,7,Slow,short,f,1,2.2177,2,1,9,1,1,,,,,
,0.69,,,,,,,,,k,purple,60395b3328bb6047f0bea27b,2021-09-27_17h08.56.311,forced_choiceRT_color,2021.2.3,Win32,60.04563468,,,,,,,,7,Ontime,short,k,1,1.9611,2,2,10,3,1,,,,,
,0,,,,,,,,,d,orange,60395b3328bb6047f0bea27b,2021-09-27_17h08.56.311,forced_choiceRT_color,2021.2.3,Win32,60.04563468,,,,,,,,7,Ontime,short,d,1,1.9417,2,3,11,0,1,,,,,
,1.29,,,,,,,,,j,red,60395b3328bb6047f0bea27b,2021-09-27_17h08.56.311,forced_choiceRT_color,2021.2.3,Win32,60.04563468,,,,,,,,7,Slow,short,j,1,2.1988,3,0,12,2,1,,,,,
,1.51,,,,,,,,,k,purple,60395b3328bb6047f0bea27b,2021-09-27_17h08.56.311,forced_choiceRT_color,2021.2.3,Win32,60.04563468,,,,,,,,7,Ontime,short,k,1,2.0515,3,1,13,3,1,,,,,
,1.06,,,,,,,,,d,orange,60395b3328bb6047f0bea27b,2021-09-27_17h08.56.311,forced_choiceRT_color,2021.2.3,Win32,60.04563468,,,,,,,,7,Ontime,short,d,1,2.0378,3,2,14,0,1,,,,,
,1.15,,,,,,,,,d,orange,60395b3328bb6047f0bea27b,2021-09-27_17h08.56.311,forced_choiceRT_color,2021.2.3,Win32,60.04563468,,,,,,,,7,Ontime,short,d,1,1.9506,3,3,15,0,1,,,,,
,0.71,,,,,,,,,j,red,60395b3328bb6047f0bea27b,2021-09-27_17h08.56.311,forced_choiceRT_color,2021.2.3,Win32,60.04563468,,,,,,,,7,Ontime,short,j,1,2.019,4,0,16,2,1,,,,,
,1.7,,,,,,,,,j,red,60395b3328bb6047f0bea27b,2021-09-27_17h08.56.311,forced_choiceRT_color,2021.2.3,Win32,60.04563468,,,,,,,,7,Slow,short,k,0,2.2379,4,1,17,2,1,,,,,
,0.29,,,,,,,,,k,purple,60395b3328bb6047f0bea27b,2021-09-27_17h08.56.311,forced_choiceRT_color,2021.2.3,Win32,60.04563468,,,,,,,,7,Ontime,short,k,1,1.9609,4,2,18,3,1,,,,,
,0.43,,,,,,,,,f,blue,60395b3328bb6047f0bea27b,2021-09-27_17h08.56.311,forced_choiceRT_color,2021.2.3,Win32,60.04563468,,,,,,,,7,Ontime,short,f,1,2.0862,4,3,19,1,1,,,,,
,1.51,,,,,,,,,d,orange,60395b3328bb6047f0bea27b,2021-09-27_17h08.56.311,forced_choiceRT_color,2021.2.3,Win32,60.04563468,,,,,,,,7,Slow,short,f,0,2.1104,5,0,20,0,1,,,,,
,1.14,,,,,,,,,k,purple,60395b3328bb6047f0bea27b,2021-09-27_17h08.56.311,forced_choiceRT_color,2021.2.3,Win32,60.04563468,,,,,,,,7,Ontime,short,k,1,2.0719,5,1,21,3,1,,,,,
,0.04,,,,,,,,,j,red,60395b3328bb6047f0bea27b,2021-09-27_17h08.56.311,forced_choiceRT_color,2021.2.3,Win32,60.04563468,,,,,,,,7,Ontime,short,j,1,1.965,5,2,22,2,1,,,,,
,1.45,,,,,,,,,k,purple,60395b3328bb6047f0bea27b,2021-09-27_17h08.56.311,forced_choiceRT_color,2021.2.3,Win32,60.04563468,,,,,,,,7,Ontime,short,k,1,1.9708,5,3,23,3,1,,,,,
,0.04,,,,,,,,,j,red,60395b3328bb6047f0bea27b,2021-09-27_17h08.56.311,forced_choiceRT_color,2021.2.3,Win32,60.04563468,,,,,,,,7,Ontime,short,j,1,2.0355,6,0,24,2,1,,,,,
,0.42,,,,,,,,,f,blue,60395b3328bb6047f0bea27b,2021-09-27_17h08.56.311,forced_choiceRT_color,2021.2.3,Win32,60.04563468,,,,,,,,7,Slow,short,f,1,2.1044,6,1,25,1,1,,,,,
,1.2,,,,,,,,,d,orange,60395b3328bb6047f0bea27b,2021-09-27_17h08.56.311,forced_choiceRT_color,2021.2.3,Win32,60.04563468,,,,,,,,7,Fast,short,d,1,1.8878,6,2,26,0,1,,,,,
,1.79,,,,,,,,,j,red,60395b3328bb6047f0bea27b,2021-09-27_17h08.56.311,forced_choiceRT_color,2021.2.3,Win32,60.04563468,,,,,,,,7,Slow,short,d,0,2.2074,6,3,27,2,1,,,,,
,1.8,,,,,,,,,d,orange,60395b3328bb6047f0bea27b,2021-09-27_17h08.56.311,forced_choiceRT_color,2021.2.3,Win32,60.04563468,,,,,,,,7,Slow,short,j,0,2.267,7,0,28,0,1,,,,,
,1.28,,,,,,,,,d,orange,60395b3328bb6047f0bea27b,2021-09-27_17h08.56.311,forced_choiceRT_color,2021.2.3,Win32,60.04563468,,,,,,,,7,Fast,short,d,1,1.82,7,1,29,0,1,,,,,
,0.97,,,,,,,,,j,red,60395b3328bb6047f0bea27b,2021-09-27_17h08.56.311,forced_choiceRT_color,2021.2.3,Win32,60.04563468,,,,,,,,7,Ontime,short,j,1,2.0927,7,2,30,2,1,,,,,
,1.48,,,,,,,,,d,orange,60395b3328bb6047f0bea27b,2021-09-27_17h08.56.311,forced_choiceRT_color,2021.2.3,Win32,60.04563468,,,,,,,,7,Slow,short,d,1,2.1515,7,3,31,0,1,,,,,
,1.61,,,,,,,,,f,blue,60395b3328bb6047f0bea27b,2021-09-27_17h08.56.311,forced_choiceRT_color,2021.2.3,Win32,60.04563468,,,,,,,,7,Slow,short,j,0,2.1935,8,0,32,1,1,,,,,
,1.58,,,,,,,,,f,blue,60395b3328bb6047f0bea27b,2021-09-27_17h08.56.311,forced_choiceRT_color,2021.2.3,Win32,60.04563468,,,,,,,,7,Ontime,short,j,0,1.9782,8,1,33,1,1,,,,,
,1.87,,,,,,,,,f,blue,60395b3328bb6047f0bea27b,2021-09-27_17h08.56.311,forced_choiceRT_color,2021.2.3,Win32,60.04563468,,,,,,,,7,Slow,short,f,1,2.3633,8,2,34,1,1,,,,,
,1.74,,,,,,,,,j,red,60395b3328bb6047f0bea27b,2021-09-27_17h08.56.311,forced_choiceRT_color,2021.2.3,Win32,60.04563468,,,,,,,,7,Slow,short,k,0,2.3303,8,3,35,2,1,,,,,
,0.62,,,,,,,,,f,blue,60395b3328bb6047f0bea27b,2021-09-27_17h08.56.311,forced_choiceRT_color,2021.2.3,Win32,60.04563468,,,,,,,,7,Fast,short,f,1,1.6596,9,0,36,1,1,,,,,
,1.48,,,,,,,,,f,blue,60395b3328bb6047f0bea27b,2021-09-27_17h08.56.311,forced_choiceRT_color,2021.2.3,Win32,60.04563468,,,,,,,,7,Slow,short,f,1,2.2013,9,1,37,1,1,,,,,
,1.33,,,,,,,,,k,purple,60395b3328bb6047f0bea27b,2021-09-27_17h08.56.311,forced_choiceRT_color,2021.2.3,Win32,60.04563468,,,,,,,,7,Ontime,short,k,1,2.0691,9,2,38,3,1,,,,,
,0.59,,,,,,,,,d,orange,60395b3328bb6047f0bea27b,2021-09-27_17h08.56.311,forced_choiceRT_color,2021.2.3,Win32,60.04563468,,,,,,,,7,Ontime,short,d,1,2.0671,9,3,39,0,1,,,,,
,,,,,,,,,,,,60395b3328bb6047f0bea27b,2021-09-27_17h08.56.311,forced_choiceRT_color,2021.2.3,Win32,60.04563468,,,,,,,,,,,,,,,,,,,6,0,6,0,1
,1.42,,,,,,,,,j,red,60395b3328bb6047f0bea27b,2021-09-27_17h08.56.311,forced_choiceRT_color,2021.2.3,Win32,60.04563468,,,,,,,,8,Slow,short,j,1,2.3879,0,0,0,2,1,,,,,
,1.8,,,,,,,,,k,purple,60395b3328bb6047f0bea27b,2021-09-27_17h08.56.311,forced_choiceRT_color,2021.2.3,Win32,60.04563468,,,,,,,,8,Slow,short,j,0,2.3179,0,1,1,3,1,,,,,
,0.61,,,,,,,,,j,red,60395b3328bb6047f0bea27b,2021-09-27_17h08.56.311,forced_choiceRT_color,2021.2.3,Win32,60.04563468,,,,,,,,8,Ontime,short,j,1,1.9378,0,2,2,2,1,,,,,
,1.39,,,,,,,,,d,orange,60395b3328bb6047f0bea27b,2021-09-27_17h08.56.311,forced_choiceRT_color,2021.2.3,Win32,60.04563468,,,,,,,,8,Ontime,short,d,1,2.0707,0,3,3,0,1,,,,,
,1.31,,,,,,,,,j,red,60395b3328bb6047f0bea27b,2021-09-27_17h08.56.311,forced_choiceRT_color,2021.2.3,Win32,60.04563468,,,,,,,,8,Ontime,short,j,1,1.978,1,0,4,2,1,,,,,
,0.59,,,,,,,,,d,orange,60395b3328bb6047f0bea27b,2021-09-27_17h08.56.311,forced_choiceRT_color,2021.2.3,Win32,60.04563468,,,,,,,,8,Ontime,short,d,1,1.9932,1,1,5,0,1,,,,,
,1.35,,,,,,,,,d,orange,60395b3328bb6047f0bea27b,2021-09-27_17h08.56.311,forced_choiceRT_color,2021.2.3,Win32,60.04563468,,,,,,,,8,Ontime,short,d,1,2.0366,1,2,6,0,1,,,,,
,1.66,,,,,,,,,k,purple,60395b3328bb6047f0bea27b,2021-09-27_17h08.56.311,forced_choiceRT_color,2021.2.3,Win32,60.04563468,,,,,,,,8,Slow,short,k,1,2.2681,1,3,7,3,1,,,,,
,0.66,,,,,,,,,k,purple,60395b3328bb6047f0bea27b,2021-09-27_17h08.56.311,forced_choiceRT_color,2021.2.3,Win32,60.04563468,,,,,,,,8,Fast,short,k,1,1.2711,2,0,8,3,1,,,,,
,1.82,,,,,,,,,j,red,60395b3328bb6047f0bea27b,2021-09-27_17h08.56.311,forced_choiceRT_color,2021.2.3,Win32,60.04563468,,,,,,,,8,Slow,short,j,1,2.3457,2,1,9,2,1,,,,,
,1.15,,,,,,,,,d,orange,60395b3328bb6047f0bea27b,2021-09-27_17h08.56.311,forced_choiceRT_color,2021.2.3,Win32,60.04563468,,,,,,,,8,Fast,short,d,1,1.7631,2,2,10,0,1,,,,,
,0.5,,,,,,,,,k,purple,60395b3328bb6047f0bea27b,2021-09-27_17h08.56.311,forced_choiceRT_color,2021.2.3,Win32,60.04563468,,,,,,,,8,Ontime,short,k,1,2.0409,2,3,11,3,1,,,,,
,0.14,,,,,,,,,f,blue,60395b3328bb6047f0bea27b,2021-09-27_17h08.56.311,forced_choiceRT_color,2021.2.3,Win32,60.04563468,,,,,,,,8,Ontime,short,f,1,2.0461,3,0,12,1,1,,,,,
,1.41,,,,,,,,,f,blue,60395b3328bb6047f0bea27b,2021-09-27_17h08.56.311,forced_choiceRT_color,2021.2.3,Win32,60.04563468,,,,,,,,8,Slow,short,f,1,2.1287,3,1,13,1,1,,,,,
,0.43,,,,,,,,,k,purple,60395b3328bb6047f0bea27b,2021-09-27_17h08.56.311,forced_choiceRT_color,2021.2.3,Win32,60.04563468,,,,,,,,8,Ontime,short,k,1,2.0451,3,2,14,3,1,,,,,
,1.77,,,,,,,,,f,blue,60395b3328bb6047f0bea27b,2021-09-27_17h08.56.311,forced_choiceRT_color,2021.2.3,Win32,60.04563468,,,,,,,,8,Slow,short,k,0,2.2702,3,3,15,1,1,,,,,
,0.62,,,,,,,,,d,orange,60395b3328bb6047f0bea27b,2021-09-27_17h08.56.311,forced_choiceRT_color,2021.2.3,Win32,60.04563468,,,,,,,,8,Ontime,short,d,1,2.0023,4,0,16,0,1,,,,,
,0.74,,,,,,,,,f,blue,60395b3328bb6047f0bea27b,2021-09-27_17h08.56.311,forced_choiceRT_color,2021.2.3,Win32,60.04563468,,,,,,,,8,Ontime,short,f,1,1.9827,4,1,17,1,1,,,,,
,0.47,,,,,,,,,k,purple,60395b3328bb6047f0bea27b,2021-09-27_17h08.56.311,forced_choiceRT_color,2021.2.3,Win32,60.04563468,,,,,,,,8,Ontime,short,k,1,2.0246,4,2,18,3,1,,,,,
,0.83,,,,,,,,,j,red,60395b3328bb6047f0bea27b,2021-09-27_17h08.56.311,forced_choiceRT_color,2021.2.3,Win32,60.04563468,,,,,,,,8,Ontime,short,j,1,2.0185,4,3,19,2,1,,,,,
,1.37,,,,,,,,,j,red,60395b3328bb6047f0bea27b,2021-09-27_17h08.56.311,forced_choiceRT_color,2021.2.3,Win32,60.04563468,,,,,,,,8,Ontime,short,j,1,2.0697,5,0,20,2,1,,,,,
,1.67,,,,,,,,,k,purple,60395b3328bb6047f0bea27b,2021-09-27_17h08.56.311,forced_choiceRT_color,2021.2.3,Win32,60.04563468,,,,,,,,8,Slow,short,k,1,2.1352,5,1,21,3,1,,,,,
,1.49,,,,,,,,,f,blue,60395b3328bb6047f0bea27b,2021-09-27_17h08.56.311,forced_choiceRT_color,2021.2.3,Win32,60.04563468,,,,,,,,8,Slow,short,f,1,2.1965,5,2,22,1,1,,,,,
,0.79,,,,,,,,,f,blue,60395b3328bb6047f0bea27b,2021-09-27_17h08.56.311,forced_choiceRT_color,2021.2.3,Win32,60.04563468,,,,,,,,8,Fast,short,f,1,1.2932,5,3,23,1,1,,,,,
,1.55,,,,,,,,,d,orange,60395b3328bb6047f0bea27b,2021-09-27_17h08.56.311,forced_choiceRT_color,2021.2.3,Win32,60.04563468,,,,,,,,8,Slow,short,f,0,2.1357,6,0,24,0,1,,,,,
,1.83,,,,,,,,,f,blue,60395b3328bb6047f0bea27b,2021-09-27_17h08.56.311,forced_choiceRT_color,2021.2.3,Win32,60.04563468,,,,,,,,8,Slow,short,d,0,2.1844,6,1,25,1,1,,,,,
,0.87,,,,,,,,,k,purple,60395b3328bb6047f0bea27b,2021-09-27_17h08.56.311,forced_choiceRT_color,2021.2.3,Win32,60.04563468,,,,,,,,8,Ontime,short,k,1,2.0367,6,2,26,3,1,,,,,
,1.58,,,,,,,,,f,blue,60395b3328bb6047f0bea27b,2021-09-27_17h08.56.311,forced_choiceRT_color,2021.2.3,Win32,60.04563468,,,,,,,,8,Ontime,short,k,0,2.0994,6,3,27,1,1,,,,,
,0.79,,,,,,,,,d,orange,60395b3328bb6047f0bea27b,2021-09-27_17h08.56.311,forced_choiceRT_color,2021.2.3,Win32,60.04563468,,,,,,,,8,Ontime,short,d,1,1.9895,7,0,28,0,1,,,,,
,0.89,,,,,,,,,k,purple,60395b3328bb6047f0bea27b,2021-09-27_17h08.56.311,forced_choiceRT_color,2021.2.3,Win32,60.04563468,,,,,,,,8,Slow,short,k,1,2.2059,7,1,29,3,1,,,,,
,0.79,,,,,,,,,f,blue,60395b3328bb6047f0bea27b,2021-09-27_17h08.56.311,forced_choiceRT_color,2021.2.3,Win32,60.04563468,,,,,,,,8,Ontime,short,f,1,2.073,7,2,30,1,1,,,,,
,1.23,,,,,,,,,f,blue,60395b3328bb6047f0bea27b,2021-09-27_17h08.56.311,forced_choiceRT_color,2021.2.3,Win32,60.04563468,,,,,,,,8,Ontime,short,f,1,2.051,7,3,31,1,1,,,,,
,0.47,,,,,,,,,j,red,60395b3328bb6047f0bea27b,2021-09-27_17h08.56.311,forced_choiceRT_color,2021.2.3,Win32,60.04563468,,,,,,,,8,Slow,short,j,1,2.1318,8,0,32,2,1,,,,,
,1.92,,,,,,,,,d,orange,60395b3328bb6047f0bea27b,2021-09-27_17h08.56.311,forced_choiceRT_color,2021.2.3,Win32,60.04563468,,,,,,,,8,Slow,short,d,1,2.4347,8,1,33,0,1,,,,,
,1.26,,,,,,,,,d,orange,60395b3328bb6047f0bea27b,2021-09-27_17h08.56.311,forced_choiceRT_color,2021.2.3,Win32,60.04563468,,,,,,,,8,Slow,short,d,1,2.1187,8,2,34,0,1,,,,,
,1.04,,,,,,,,,j,red,60395b3328bb6047f0bea27b,2021-09-27_17h08.56.311,forced_choiceRT_color,2021.2.3,Win32,60.04563468,,,,,,,,8,Slow,short,f,0,2.2586,8,3,35,2,1,,,,,
,0.62,,,,,,,,,d,orange,60395b3328bb6047f0bea27b,2021-09-27_17h08.56.311,forced_choiceRT_color,2021.2.3,Win32,60.04563468,,,,,,,,8,Ontime,short,d,1,2.0743,9,0,36,0,1,,,,,
,0.28,,,,,,,,,j,red,60395b3328bb6047f0bea27b,2021-09-27_17h08.56.311,forced_choiceRT_color,2021.2.3,Win32,60.04563468,,,,,,,,8,Ontime,short,j,1,1.9999,9,1,37,2,1,,,,,
,0.13,,,,,,,,,k,purple,60395b3328bb6047f0bea27b,2021-09-27_17h08.56.311,forced_choiceRT_color,2021.2.3,Win32,60.04563468,,,,,,,,8,Slow,short,k,1,2.1022,9,2,38,3,1,,,,,
,0.92,,,,,,,,,j,red,60395b3328bb6047f0bea27b,2021-09-27_17h08.56.311,forced_choiceRT_color,2021.2.3,Win32,60.04563468,,,,,,,,8,Ontime,short,j,1,2.0146,9,3,39,2,1,,,,,
,,,,,,,,,,,,60395b3328bb6047f0bea27b,2021-09-27_17h08.56.311,forced_choiceRT_color,2021.2.3,Win32,60.04563468,,,,,,,,,,,,,,,,,,,7,0,7,0,1
,1.7,,,,,,,,,j,red,60395b3328bb6047f0bea27b,2021-09-27_17h08.56.311,forced_choiceRT_color,2021.2.3,Win32,60.04563468,,,,,,,,9,Slow,short,j,1,2.2475,0,0,0,2,1,,,,,
,0.48,,,,,,,,,f,blue,60395b3328bb6047f0bea27b,2021-09-27_17h08.56.311,forced_choiceRT_color,2021.2.3,Win32,60.04563468,,,,,,,,9,Ontime,short,f,1,2.0684,0,1,1,1,1,,,,,
,0.69,,,,,,,,,k,purple,60395b3328bb6047f0bea27b,2021-09-27_17h08.56.311,forced_choiceRT_color,2021.2.3,Win32,60.04563468,,,,,,,,9,Ontime,short,k,1,2.0179,0,2,2,3,1,,,,,
,0.21,,,,,,,,,k,purple,60395b3328bb6047f0bea27b,2021-09-27_17h08.56.311,forced_choiceRT_color,2021.2.3,Win32,60.04563468,,,,,,,,9,Ontime,short,k,1,1.9507,0,3,3,3,1,,,,,
,0.54,,,,,,,,,d,orange,60395b3328bb6047f0bea27b,2021-09-27_17h08.56.311,forced_choiceRT_color,2021.2.3,Win32,60.04563468,,,,,,,,9,Ontime,short,d,1,1.9849,1,0,4,0,1,,,,,
,1.86,,,,,,,,,j,red,60395b3328bb6047f0bea27b,2021-09-27_17h08.56.311,forced_choiceRT_color,2021.2.3,Win32,60.04563468,,,,,,,,9,Slow,short,k,0,2.3178,1,1,5,2,1,,,,,
,1.22,,,,,,,,,k,purple,60395b3328bb6047f0bea27b,2021-09-27_17h08.56.311,forced_choiceRT_color,2021.2.3,Win32,60.04563468,,,,,,,,9,Ontime,short,k,1,2.0015,1,2,6,3,1,,,,,
,1.2,,,,,,,,,d,orange,60395b3328bb6047f0bea27b,2021-09-27_17h08.56.311,forced_choiceRT_color,2021.2.3,Win32,60.04563468,,,,,,,,9,Ontime,short,d,1,2.0845,1,3,7,0,1,,,,,
,1.08,,,,,,,,,f,blue,60395b3328bb6047f0bea27b,2021-09-27_17h08.56.311,forced_choiceRT_color,2021.2.3,Win32,60.04563468,,,,,,,,9,Slow,short,f,1,2.151,2,0,8,1,1,,,,,
,0.66,,,,,,,,,d,orange,60395b3328bb6047f0bea27b,2021-09-27_17h08.56.311,forced_choiceRT_color,2021.2.3,Win32,60.04563468,,,,,,,,9,Ontime,short,d,1,1.9829,2,1,9,0,1,,,,,
,1.35,,,,,,,,,f,blue,60395b3328bb6047f0bea27b,2021-09-27_17h08.56.311,forced_choiceRT_color,2021.2.3,Win32,60.04563468,,,,,,,,9,Slow,short,f,1,2.2366,2,2,10,1,1,,,,,
,0.05,,,,,,,,,d,orange,60395b3328bb6047f0bea27b,2021-09-27_17h08.56.311,forced_choiceRT_color,2021.2.3,Win32,60.04563468,,,,,,,,9,Ontime,short,d,1,2.0367,2,3,11,0,1,,,,,
,1.13,,,,,,,,,f,blue,60395b3328bb6047f0bea27b,2021-09-27_17h08.56.311,forced_choiceRT_color,2021.2.3,Win32,60.04563468,,,,,,,,9,Slow,short,f,1,2.1675,3,0,12,1,1,,,,,
,1.22,,,,,,,,,j,red,60395b3328bb6047f0bea27b,2021-09-27_17h08.56.311,forced_choiceRT_color,2021.2.3,Win32,60.04563468,,,,,,,,9,Slow,short,j,1,2.1684,3,1,13,2,1,,,,,
,0.61,,,,,,,,,f,blue,60395b3328bb6047f0bea27b,2021-09-27_17h08.56.311,forced_choiceRT_color,2021.2.3,Win32,60.04563468,,,,,,,,9,Ontime,short,f,1,2.0211,3,2,14,1,1,,,,,
,1.77,,,,,,,,,j,red,60395b3328bb6047f0bea27b,2021-09-27_17h08.56.311,forced_choiceRT_color,2021.2.3,Win32,60.04563468,,,,,,,,9,Slow,short,j,1,2.6178,3,3,15,2,1,,,,,
,0.94,,,,,,,,,j,red,60395b3328bb6047f0bea27b,2021-09-27_17h08.56.311,forced_choiceRT_color,2021.2.3,Win32,60.04563468,,,,,,,,9,Ontime,short,j,1,1.934,4,0,16,2,1,,,,,
,1.96,,,,,,,,,j,red,60395b3328bb6047f0bea27b,2021-09-27_17h08.56.311,forced_choiceRT_color,2021.2.3,Win32,60.04563468,,,,,,,,9,Slow,short,j,1,2.3687,4,1,17,2,1,,,,,
,1.48,,,,,,,,,f,blue,60395b3328bb6047f0bea27b,2021-09-27_17h08.56.311,forced_choiceRT_color,2021.2.3,Win32,60.04563468,,,,,,,,9,Slow,short,f,1,2.2011,4,2,18,1,1,,,,,
,1.83,,,,,,,,,f,blue,60395b3328bb6047f0bea27b,2021-09-27_17h08.56.311,forced_choiceRT_color,2021.2.3,Win32,60.04563468,,,,,,,,9,Slow,short,f,1,2.3503,4,3,19,1,1,,,,,
,0.42,,,,,,,,,k,purple,60395b3328bb6047f0bea27b,2021-09-27_17h08.56.311,forced_choiceRT_color,2021.2.3,Win32,60.04563468,,,,,,,,9,Ontime,short,k,1,2.0358,5,0,20,3,1,,,,,
,0.97,,,,,,,,,j,red,60395b3328bb6047f0bea27b,2021-09-27_17h08.56.311,forced_choiceRT_color,2021.2.3,Win32,60.04563468,,,,,,,,9,Ontime,short,j,1,2.0514,5,1,21,2,1,,,,,
,1.5,,,,,,,,,d,orange,60395b3328bb6047f0bea27b,2021-09-27_17h08.56.311,forced_choiceRT_color,2021.2.3,Win32,60.04563468,,,,,,,,9,Slow,short,d,1,2.3018,5,2,22,0,1,,,,,
,0.19,,,,,,,,,j,red,60395b3328bb6047f0bea27b,2021-09-27_17h08.56.311,forced_choiceRT_color,2021.2.3,Win32,60.04563468,,,,,,,,9,Ontime,short,j,1,2.0343,5,3,23,2,1,,,,,
,0.43,,,,,,,,,k,purple,60395b3328bb6047f0bea27b,2021-09-27_17h08.56.311,forced_choiceRT_color,2021.2.3,Win32,60.04563468,,,,,,,,9,Ontime,short,k,1,2.0519,6,0,24,3,1,,,,,
,0.57,,,,,,,,,f,blue,60395b3328bb6047f0bea27b,2021-09-27_17h08.56.311,forced_choiceRT_color,2021.2.3,Win32,60.04563468,,,,,,,,9,Ontime,short,f,1,2.0822,6,1,25,1,1,,,,,
,1.5,,,,,,,,,d,orange,60395b3328bb6047f0bea27b,2021-09-27_17h08.56.311,forced_choiceRT_color,2021.2.3,Win32,60.04563468,,,,,,,,9,Slow,short,d,1,2.2348,6,2,26,0,1,,,,,
,0.21,,,,,,,,,d,orange,60395b3328bb6047f0bea27b,2021-09-27_17h08.56.311,forced_choiceRT_color,2021.2.3,Win32,60.04563468,,,,,,,,9,Fast,short,d,1,1.8979,6,3,27,0,1,,,,,
,0.89,,,,,,,,,k,purple,60395b3328bb6047f0bea27b,2021-09-27_17h08.56.311,forced_choiceRT_color,2021.2.3,Win32,60.04563468,,,,,,,,9,Ontime,short,k,1,2.0352,7,0,28,3,1,,,,,
,0.98,,,,,,,,,f,blue,60395b3328bb6047f0bea27b,2021-09-27_17h08.56.311,forced_choiceRT_color,2021.2.3,Win32,60.04563468,,,,,,,,9,Ontime,short,f,1,2.0695,7,1,29,1,1,,,,,
,1.98,,,,,,,,,d,orange,60395b3328bb6047f0bea27b,2021-09-27_17h08.56.311,forced_choiceRT_color,2021.2.3,Win32,60.04563468,,,,,,,,9,Slow,short,f,0,2.4014,7,2,30,0,1,,,,,
,0.9,,,,,,,,,j,red,60395b3328bb6047f0bea27b,2021-09-27_17h08.56.311,forced_choiceRT_color,2021.2.3,Win32,60.04563468,,,,,,,,9,Slow,short,j,1,2.1335,7,3,31,2,1,,,,,
,1.26,,,,,,,,,k,purple,60395b3328bb6047f0bea27b,2021-09-27_17h08.56.311,forced_choiceRT_color,2021.2.3,Win32,60.04563468,,,,,,,,9,Fast,short,k,1,1.8513,8,0,32,3,1,,,,,
,0.36,,,,,,,,,f,blue,60395b3328bb6047f0bea27b,2021-09-27_17h08.56.311,forced_choiceRT_color,2021.2.3,Win32,60.04563468,,,,,,,,9,Slow,short,f,1,2.1516,8,1,33,1,1,,,,,
,0.29,,,,,,,,,k,purple,60395b3328bb6047f0bea27b,2021-09-27_17h08.56.311,forced_choiceRT_color,2021.2.3,Win32,60.04563468,,,,,,,,9,Ontime,short,k,1,1.9108,8,2,34,3,1,,,,,
,0.27,,,,,,,,,k,purple,60395b3328bb6047f0bea27b,2021-09-27_17h08.56.311,forced_choiceRT_color,2021.2.3,Win32,60.04563468,,,,,,,,9,Fast,short,k,1,1.8539,8,3,35,3,1,,,,,
,0.39,,,,,,,,,j,red,60395b3328bb6047f0bea27b,2021-09-27_17h08.56.311,forced_choiceRT_color,2021.2.3,Win32,60.04563468,,,,,,,,9,Fast,short,j,1,1.8818,9,0,36,2,1,,,,,
,1.27,,,,,,,,,d,orange,60395b3328bb6047f0bea27b,2021-09-27_17h08.56.311,forced_choiceRT_color,2021.2.3,Win32,60.04563468,,,,,,,,9,Ontime,short,d,1,2.0413,9,1,37,0,1,,,,,
,1.51,,,,,,,,,d,orange,60395b3328bb6047f0bea27b,2021-09-27_17h08.56.311,forced_choiceRT_color,2021.2.3,Win32,60.04563468,,,,,,,,9,Ontime,short,d,1,2.0174,9,2,38,0,1,,,,,
,1.33,,,,,,,,,k,purple,60395b3328bb6047f0bea27b,2021-09-27_17h08.56.311,forced_choiceRT_color,2021.2.3,Win32,60.04563468,,,,,,,,9,Slow,short,k,1,2.1426,9,3,39,3,1,,,,,
,,,,,,,,,,,,60395b3328bb6047f0bea27b,2021-09-27_17h08.56.311,forced_choiceRT_color,2021.2.3,Win32,60.04563468,,,,,,,,,,,,,,,,,,,8,0,8,0,1
,1.08,,,,,,,,,k,purple,60395b3328bb6047f0bea27b,2021-09-27_17h08.56.311,forced_choiceRT_color,2021.2.3,Win32,60.04563468,,,,,,,,10,Fast,short,k,1,1.7272,0,0,0,3,1,,,,,
,0.87,,,,,,,,,f,blue,60395b3328bb6047f0bea27b,2021-09-27_17h08.56.311,forced_choiceRT_color,2021.2.3,Win32,60.04563468,,,,,,,,10,Ontime,short,f,1,2.0047,0,1,1,1,1,,,,,
,0.78,,,,,,,,,d,orange,60395b3328bb6047f0bea27b,2021-09-27_17h08.56.311,forced_choiceRT_color,2021.2.3,Win32,60.04563468,,,,,,,,10,Ontime,short,d,1,1.951,0,2,2,0,1,,,,,
,1.21,,,,,,,,,d,orange,60395b3328bb6047f0bea27b,2021-09-27_17h08.56.311,forced_choiceRT_color,2021.2.3,Win32,60.04563468,,,,,,,,10,Ontime,short,d,1,2.0514,0,3,3,0,1,,,,,
,0.97,,,,,,,,,f,blue,60395b3328bb6047f0bea27b,2021-09-27_17h08.56.311,forced_choiceRT_color,2021.2.3,Win32,60.04563468,,,,,,,,10,Ontime,short,f,1,2.0345,1,0,4,1,1,,,,,
,0.84,,,,,,,,,d,orange,60395b3328bb6047f0bea27b,2021-09-27_17h08.56.311,forced_choiceRT_color,2021.2.3,Win32,60.04563468,,,,,,,,10,Fast,short,d,1,1.8678,1,1,5,0,1,,,,,
,0.02,,,,,,,,,k,purple,60395b3328bb6047f0bea27b,2021-09-27_17h08.56.311,forced_choiceRT_color,2021.2.3,Win32,60.04563468,,,,,,,,10,Ontime,short,k,1,2.0683,1,2,6,3,1,,,,,
,0.21,,,,,,,,,j,red,60395b3328bb6047f0bea27b,2021-09-27_17h08.56.311,forced_choiceRT_color,2021.2.3,Win32,60.04563468,,,,,,,,10,Ontime,short,j,1,1.9363,1,3,7,2,1,,,,,
,1.49,,,,,,,,,k,purple,60395b3328bb6047f0bea27b,2021-09-27_17h08.56.311,forced_choiceRT_color,2021.2.3,Win32,60.04563468,,,,,,,,10,Slow,short,k,1,2.1345,2,0,8,3,1,,,,,
,1.45,,,,,,,,,d,orange,60395b3328bb6047f0bea27b,2021-09-27_17h08.56.311,forced_choiceRT_color,2021.2.3,Win32,60.04563468,,,,,,,,10,Ontime,short,d,1,2.0856,2,1,9,0,1,,,,,
,1.88,,,,,,,,,j,red,60395b3328bb6047f0bea27b,2021-09-27_17h08.56.311,forced_choiceRT_color,2021.2.3,Win32,60.04563468,,,,,,,,10,Slow,short,k,0,2.4137,2,2,10,2,1,,,,,
,1.06,,,,,,,,,k,purple,60395b3328bb6047f0bea27b,2021-09-27_17h08.56.311,forced_choiceRT_color,2021.2.3,Win32,60.04563468,,,,,,,,10,Ontime,short,k,1,2.0348,2,3,11,3,1,,,,,
,1.57,,,,,,,,,f,blue,60395b3328bb6047f0bea27b,2021-09-27_17h08.56.311,forced_choiceRT_color,2021.2.3,Win32,60.04563468,,,,,,,,10,Slow,short,j,0,2.1677,3,0,12,1,1,,,,,
,1.59,,,,,,,,,d,orange,60395b3328bb6047f0bea27b,2021-09-27_17h08.56.311,forced_choiceRT_color,2021.2.3,Win32,60.04563468,,,,,,,,10,Ontime,short,d,1,2.0866,3,1,13,0,1,,,,,
,1.02,,,,,,,,,d,orange,60395b3328bb6047f0bea27b,2021-09-27_17h08.56.311,forced_choiceRT_color,2021.2.3,Win32,60.04563468,,,,,,,,10,Ontime,short,d,1,2.087,3,2,14,0,1,,,,,
,0.66,,,,,,,,,d,orange,60395b3328bb6047f0bea27b,2021-09-27_17h08.56.311,forced_choiceRT_color,2021.2.3,Win32,60.04563468,,,,,,,,10,Ontime,short,d,1,2.0185,3,3,15,0,1,,,,,
,1.29,,,,,,,,,j,red,60395b3328bb6047f0bea27b,2021-09-27_17h08.56.311,forced_choiceRT_color,2021.2.3,Win32,60.04563468,,,,,,,,10,Slow,short,j,1,2.1015,4,0,16,2,1,,,,,
,0.52,,,,,,,,,j,red,60395b3328bb6047f0bea27b,2021-09-27_17h08.56.311,forced_choiceRT_color,2021.2.3,Win32,60.04563468,,,,,,,,10,Slow,short,j,1,2.1339,4,1,17,2,1,,,,,
,1,,,,,,,,,f,blue,60395b3328bb6047f0bea27b,2021-09-27_17h08.56.311,forced_choiceRT_color,2021.2.3,Win32,60.04563468,,,,,,,,10,Ontime,short,f,1,2.0705,4,2,18,1,1,,,,,
,0.91,,,,,,,,,j,red,60395b3328bb6047f0bea27b,2021-09-27_17h08.56.311,forced_choiceRT_color,2021.2.3,Win32,60.04563468,,,,,,,,10,Slow,short,j,1,2.2314,4,3,19,2,1,,,,,
,1.53,,,,,,,,,f,blue,60395b3328bb6047f0bea27b,2021-09-27_17h08.56.311,forced_choiceRT_color,2021.2.3,Win32,60.04563468,,,,,,,,10,Slow,short,f,1,2.1023,5,0,20,1,1,,,,,
,0.56,,,,,,,,,k,purple,60395b3328bb6047f0bea27b,2021-09-27_17h08.56.311,forced_choiceRT_color,2021.2.3,Win32,60.04563468,,,,,,,,10,Slow,short,k,1,2.3438,5,1,21,3,1,,,,,
,0.95,,,,,,,,,k,purple,60395b3328bb6047f0bea27b,2021-09-27_17h08.56.311,forced_choiceRT_color,2021.2.3,Win32,60.04563468,,,,,,,,10,Ontime,short,k,1,1.9525,5,2,22,3,1,,,,,
,0.68,,,,,,,,,k,purple,60395b3328bb6047f0bea27b,2021-09-27_17h08.56.311,forced_choiceRT_color,2021.2.3,Win32,60.04563468,,,,,,,,10,Ontime,short,k,1,2.0014,5,3,23,3,1,,,,,
,0.92,,,,,,,,,k,purple,60395b3328bb6047f0bea27b,2021-09-27_17h08.56.311,forced_choiceRT_color,2021.2.3,Win32,60.04563468,,,,,,,,10,Ontime,short,k,1,2.0506,6,0,24,3,1,,,,,
,1.97,,,,,,,,,f,blue,60395b3328bb6047f0bea27b,2021-09-27_17h08.56.311,forced_choiceRT_color,2021.2.3,Win32,60.04563468,,,,,,,,10,Slow,short,f,1,2.4396,6,1,25,1,1,,,,,
,1.5,,,,,,,,,f,blue,60395b3328bb6047f0bea27b,2021-09-27_17h08.56.311,forced_choiceRT_color,2021.2.3,Win32,60.04563468,,,,,,,,10,Ontime,short,f,1,2.0277,6,2,26,1,1,,,,,
,0.7,,,,,,,,,d,orange,60395b3328bb6047f0bea27b,2021-09-27_17h08.56.311,forced_choiceRT_color,2021.2.3,Win32,60.04563468,,,,,,,,10,Ontime,short,d,1,2.017,6,3,27,0,1,,,,,
,1.07,,,,,,,,,f,blue,60395b3328bb6047f0bea27b,2021-09-27_17h08.56.311,forced_choiceRT_color,2021.2.3,Win32,60.04563468,,,,,,,,10,Ontime,short,f,1,2.001,7,0,28,1,1,,,,,
,1.29,,,,,,,,,k,purple,60395b3328bb6047f0bea27b,2021-09-27_17h08.56.311,forced_choiceRT_color,2021.2.3,Win32,60.04563468,,,,,,,,10,Fast,short,k,1,1.837,7,1,29,3,1,,,,,
,1.98,,,,,,,,,k,purple,60395b3328bb6047f0bea27b,2021-09-27_17h08.56.311,forced_choiceRT_color,2021.2.3,Win32,60.04563468,,,,,,,,10,Slow,short,k,1,2.5345,7,2,30,3,1,,,,,
,0.83,,,,,,,,,j,red,60395b3328bb6047f0bea27b,2021-09-27_17h08.56.311,forced_choiceRT_color,2021.2.3,Win32,60.04563468,,,,,,,,10,Ontime,short,j,1,1.9116,7,3,31,2,1,,,,,
,1.65,,,,,,,,,f,blue,60395b3328bb6047f0bea27b,2021-09-27_17h08.56.311,forced_choiceRT_color,2021.2.3,Win32,60.04563468,,,,,,,,10,Slow,short,f,1,2.2042,8,0,32,1,1,,,,,
,1.5,,,,,,,,,j,red,60395b3328bb6047f0bea27b,2021-09-27_17h08.56.311,forced_choiceRT_color,2021.2.3,Win32,60.04563468,,,,,,,,10,Slow,short,j,1,2.3626,8,1,33,2,1,,,,,
,0.81,,,,,,,,,d,orange,60395b3328bb6047f0bea27b,2021-09-27_17h08.56.311,forced_choiceRT_color,2021.2.3,Win32,60.04563468,,,,,,,,10,Ontime,short,d,1,1.9517,8,2,34,0,1,,,,,
,1.47,,,,,,,,,f,blue,60395b3328bb6047f0bea27b,2021-09-27_17h08.56.311,forced_choiceRT_color,2021.2.3,Win32,60.04563468,,,,,,,,10,Ontime,short,f,1,2.0671,8,3,35,1,1,,,,,
,1.66,,,,,,,,,d,orange,60395b3328bb6047f0bea27b,2021-09-27_17h08.56.311,forced_choiceRT_color,2021.2.3,Win32,60.04563468,,,,,,,,10,Slow,short,d,1,2.236,9,0,36,0,1,,,,,
,0.67,,,,,,,,,j,red,60395b3328bb6047f0bea27b,2021-09-27_17h08.56.311,forced_choiceRT_color,2021.2.3,Win32,60.04563468,,,,,,,,10,Fast,short,f,0,1.289,9,1,37,2,1,,,,,
,1.73,,,,,,,,,j,red,60395b3328bb6047f0bea27b,2021-09-27_17h08.56.311,forced_choiceRT_color,2021.2.3,Win32,60.04563468,,,,,,,,10,Slow,short,j,1,2.3024,9,2,38,2,1,,,,,
,1.01,,,,,,,,,j,red,60395b3328bb6047f0bea27b,2021-09-27_17h08.56.311,forced_choiceRT_color,2021.2.3,Win32,60.04563468,,,,,,,,10,Fast,short,j,1,1.5349,9,3,39,2,1,,,,,
,,,,,,,,,,,,60395b3328bb6047f0bea27b,2021-09-27_17h08.56.311,forced_choiceRT_color,2021.2.3,Win32,60.04563468,,,,,,,,,,,,,,,,,,,9,0,9,0,1
