IP_Addresss,target_onset,trial_resp_sp.keys,trial_resp_sp.corr,trial_resp_sp.rt,trials_train_loop.thisRepN,trials_train_loop.thisTrialN,trials_train_loop.thisN,trials_train_loop.thisIndex,trials_train_loop.ran,correct_key,color,participant,date,expName,psychopyVersion,OS,frameRate,trial_resp_timing.keys,trial_resp_timing.rt,trials_train_timing.thisRepN,trials_train_timing.thisTrialN,trials_train_timing.thisN,trials_train_timing.thisIndex,trials_train_timing.ran,block_id,ontime,feedback_cond,forcedRT_resp.keys,forcedRT_resp.corr,forcedRT_resp.rt,trials.thisRepN,trials.thisTrialN,trials.thisN,trials.thisIndex,trials.ran,blocks.thisRepN,blocks.thisTrialN,blocks.thisN,blocks.thisIndex,blocks.ran
165.166.43.79,0,f,1,2.5532,0,0,0,1,1,f,blue,6101599f715789af3c45bb5c,2021-11-03_11h28.07.266,forced_choiceRT_color,2021.2.3,Win32,59.87665409,,,,,,,,,,,,,,,,,,,,,,,
,0,f,1,1.0118,0,1,1,1,1,f,blue,6101599f715789af3c45bb5c,2021-11-03_11h28.07.266,forced_choiceRT_color,2021.2.3,Win32,59.87665409,,,,,,,,,,,,,,,,,,,,,,,
,0,j,1,1.7838,0,2,2,2,1,j,red,6101599f715789af3c45bb5c,2021-11-03_11h28.07.266,forced_choiceRT_color,2021.2.3,Win32,59.87665409,,,,,,,,,,,,,,,,,,,,,,,
,0,d,1,1.9836,0,3,3,0,1,d,orange,6101599f715789af3c45bb5c,2021-11-03_11h28.07.266,forced_choiceRT_color,2021.2.3,Win32,59.87665409,,,,,,,,,,,,,,,,,,,,,,,
,0,j,1,0.9507,1,0,4,2,1,j,red,6101599f715789af3c45bb5c,2021-11-03_11h28.07.266,forced_choiceRT_color,2021.2.3,Win32,59.87665409,,,,,,,,,,,,,,,,,,,,,,,
,0,f,1,1.3512,1,1,5,1,1,f,blue,6101599f715789af3c45bb5c,2021-11-03_11h28.07.266,forced_choiceRT_color,2021.2.3,Win32,59.87665409,,,,,,,,,,,,,,,,,,,,,,,
,0,f,1,0.6678,1,2,6,1,1,f,blue,6101599f715789af3c45bb5c,2021-11-03_11h28.07.266,forced_choiceRT_color,2021.2.3,Win32,59.87665409,,,,,,,,,,,,,,,,,,,,,,,
,0,d,1,0.5175,1,3,7,0,1,d,orange,6101599f715789af3c45bb5c,2021-11-03_11h28.07.266,forced_choiceRT_color,2021.2.3,Win32,59.87665409,,,,,,,,,,,,,,,,,,,,,,,
,0,d,1,0.651,2,0,8,0,1,d,orange,6101599f715789af3c45bb5c,2021-11-03_11h28.07.266,forced_choiceRT_color,2021.2.3,Win32,59.87665409,,,,,,,,,,,,,,,,,,,,,,,
,0,d,1,0.5388,2,1,9,0,1,d,orange,6101599f715789af3c45bb5c,2021-11-03_11h28.07.266,forced_choiceRT_color,2021.2.3,Win32,59.87665409,,,,,,,,,,,,,,,,,,,,,,,
,0,d,1,0.5497,2,2,10,0,1,d,orange,6101599f715789af3c45bb5c,2021-11-03_11h28.07.266,forced_choiceRT_color,2021.2.3,Win32,59.87665409,,,,,,,,,,,,,,,,,,,,,,,
,0,k,1,0.6551,2,3,11,3,1,k,purple,6101599f715789af3c45bb5c,2021-11-03_11h28.07.266,forced_choiceRT_color,2021.2.3,Win32,59.87665409,,,,,,,,,,,,,,,,,,,,,,,
,0,j,1,0.4935,3,0,12,2,1,j,red,6101599f715789af3c45bb5c,2021-11-03_11h28.07.266,forced_choiceRT_color,2021.2.3,Win32,59.87665409,,,,,,,,,,,,,,,,,,,,,,,
,0,k,1,0.6508,3,1,13,3,1,k,purple,6101599f715789af3c45bb5c,2021-11-03_11h28.07.266,forced_choiceRT_color,2021.2.3,Win32,59.87665409,,,,,,,,,,,,,,,,,,,,,,,
,0,k,1,0.684,3,2,14,3,1,k,purple,6101599f715789af3c45bb5c,2021-11-03_11h28.07.266,forced_choiceRT_color,2021.2.3,Win32,59.87665409,,,,,,,,,,,,,,,,,,,,,,,
,0,j,1,0.4499,3,3,15,2,1,j,red,6101599f715789af3c45bb5c,2021-11-03_11h28.07.266,forced_choiceRT_color,2021.2.3,Win32,59.87665409,,,,,,,,,,,,,,,,,,,,,,,
,0,k,1,0.6221,4,0,16,3,1,k,purple,6101599f715789af3c45bb5c,2021-11-03_11h28.07.266,forced_choiceRT_color,2021.2.3,Win32,59.87665409,,,,,,,,,,,,,,,,,,,,,,,
,0,f,1,0.6178,4,1,17,1,1,f,blue,6101599f715789af3c45bb5c,2021-11-03_11h28.07.266,forced_choiceRT_color,2021.2.3,Win32,59.87665409,,,,,,,,,,,,,,,,,,,,,,,
,0,f,1,0.5545,4,2,18,1,1,f,blue,6101599f715789af3c45bb5c,2021-11-03_11h28.07.266,forced_choiceRT_color,2021.2.3,Win32,59.87665409,,,,,,,,,,,,,,,,,,,,,,,
,0,d,1,0.3736,4,3,19,0,1,d,orange,6101599f715789af3c45bb5c,2021-11-03_11h28.07.266,forced_choiceRT_color,2021.2.3,Win32,59.87665409,,,,,,,,,,,,,,,,,,,,,,,
,0,k,1,0.7017,5,0,20,3,1,k,purple,6101599f715789af3c45bb5c,2021-11-03_11h28.07.266,forced_choiceRT_color,2021.2.3,Win32,59.87665409,,,,,,,,,,,,,,,,,,,,,,,
,0,d,1,0.5397,5,1,21,0,1,d,orange,6101599f715789af3c45bb5c,2021-11-03_11h28.07.266,forced_choiceRT_color,2021.2.3,Win32,59.87665409,,,,,,,,,,,,,,,,,,,,,,,
,0,j,1,0.7276,5,2,22,2,1,j,red,6101599f715789af3c45bb5c,2021-11-03_11h28.07.266,forced_choiceRT_color,2021.2.3,Win32,59.87665409,,,,,,,,,,,,,,,,,,,,,,,
,0,d,1,0.6004,5,3,23,0,1,d,orange,6101599f715789af3c45bb5c,2021-11-03_11h28.07.266,forced_choiceRT_color,2021.2.3,Win32,59.87665409,,,,,,,,,,,,,,,,,,,,,,,
,0,k,1,0.5675,6,0,24,3,1,k,purple,6101599f715789af3c45bb5c,2021-11-03_11h28.07.266,forced_choiceRT_color,2021.2.3,Win32,59.87665409,,,,,,,,,,,,,,,,,,,,,,,
,0,f,0,0.6913,6,1,25,2,1,j,red,6101599f715789af3c45bb5c,2021-11-03_11h28.07.266,forced_choiceRT_color,2021.2.3,Win32,59.87665409,,,,,,,,,,,,,,,,,,,,,,,
,0,f,1,0.7001,6,2,26,1,1,f,blue,6101599f715789af3c45bb5c,2021-11-03_11h28.07.266,forced_choiceRT_color,2021.2.3,Win32,59.87665409,,,,,,,,,,,,,,,,,,,,,,,
,0,d,1,0.4857,6,3,27,0,1,d,orange,6101599f715789af3c45bb5c,2021-11-03_11h28.07.266,forced_choiceRT_color,2021.2.3,Win32,59.87665409,,,,,,,,,,,,,,,,,,,,,,,
,0,f,1,0.6503,7,0,28,1,1,f,blue,6101599f715789af3c45bb5c,2021-11-03_11h28.07.266,forced_choiceRT_color,2021.2.3,Win32,59.87665409,,,,,,,,,,,,,,,,,,,,,,,
,0,d,1,0.5504,7,1,29,0,1,d,orange,6101599f715789af3c45bb5c,2021-11-03_11h28.07.266,forced_choiceRT_color,2021.2.3,Win32,59.87665409,,,,,,,,,,,,,,,,,,,,,,,
,0,j,1,0.5059,7,2,30,2,1,j,red,6101599f715789af3c45bb5c,2021-11-03_11h28.07.266,forced_choiceRT_color,2021.2.3,Win32,59.87665409,,,,,,,,,,,,,,,,,,,,,,,
,0,d,1,1.351,7,3,31,0,1,d,orange,6101599f715789af3c45bb5c,2021-11-03_11h28.07.266,forced_choiceRT_color,2021.2.3,Win32,59.87665409,,,,,,,,,,,,,,,,,,,,,,,
,0,f,1,0.6422,8,0,32,1,1,f,blue,6101599f715789af3c45bb5c,2021-11-03_11h28.07.266,forced_choiceRT_color,2021.2.3,Win32,59.87665409,,,,,,,,,,,,,,,,,,,,,,,
,0,f,1,0.4697,8,1,33,1,1,f,blue,6101599f715789af3c45bb5c,2021-11-03_11h28.07.266,forced_choiceRT_color,2021.2.3,Win32,59.87665409,,,,,,,,,,,,,,,,,,,,,,,
,0,j,1,0.6679,8,2,34,2,1,j,red,6101599f715789af3c45bb5c,2021-11-03_11h28.07.266,forced_choiceRT_color,2021.2.3,Win32,59.87665409,,,,,,,,,,,,,,,,,,,,,,,
,0,f,1,0.6264,8,3,35,1,1,f,blue,6101599f715789af3c45bb5c,2021-11-03_11h28.07.266,forced_choiceRT_color,2021.2.3,Win32,59.87665409,,,,,,,,,,,,,,,,,,,,,,,
,0,d,1,0.4178,9,0,36,0,1,d,orange,6101599f715789af3c45bb5c,2021-11-03_11h28.07.266,forced_choiceRT_color,2021.2.3,Win32,59.87665409,,,,,,,,,,,,,,,,,,,,,,,
,0,k,1,0.7442,9,1,37,3,1,k,purple,6101599f715789af3c45bb5c,2021-11-03_11h28.07.266,forced_choiceRT_color,2021.2.3,Win32,59.87665409,,,,,,,,,,,,,,,,,,,,,,,
,0,f,1,0.5844,9,2,38,1,1,f,blue,6101599f715789af3c45bb5c,2021-11-03_11h28.07.266,forced_choiceRT_color,2021.2.3,Win32,59.87665409,,,,,,,,,,,,,,,,,,,,,,,
,0,j,1,0.5709,9,3,39,2,1,j,red,6101599f715789af3c45bb5c,2021-11-03_11h28.07.266,forced_choiceRT_color,2021.2.3,Win32,59.87665409,,,,,,,,,,,,,,,,,,,,,,,
,0,j,1,0.4551,10,0,40,2,1,j,red,6101599f715789af3c45bb5c,2021-11-03_11h28.07.266,forced_choiceRT_color,2021.2.3,Win32,59.87665409,,,,,,,,,,,,,,,,,,,,,,,
,0,d,1,0.5968,10,1,41,0,1,d,orange,6101599f715789af3c45bb5c,2021-11-03_11h28.07.266,forced_choiceRT_color,2021.2.3,Win32,59.87665409,,,,,,,,,,,,,,,,,,,,,,,
,0,j,1,0.6509,10,2,42,2,1,j,red,6101599f715789af3c45bb5c,2021-11-03_11h28.07.266,forced_choiceRT_color,2021.2.3,Win32,59.87665409,,,,,,,,,,,,,,,,,,,,,,,
,0,k,1,0.574,10,3,43,3,1,k,purple,6101599f715789af3c45bb5c,2021-11-03_11h28.07.266,forced_choiceRT_color,2021.2.3,Win32,59.87665409,,,,,,,,,,,,,,,,,,,,,,,
,0,k,1,0.5841,11,0,44,3,1,k,purple,6101599f715789af3c45bb5c,2021-11-03_11h28.07.266,forced_choiceRT_color,2021.2.3,Win32,59.87665409,,,,,,,,,,,,,,,,,,,,,,,
,0,k,1,0.4108,11,1,45,3,1,k,purple,6101599f715789af3c45bb5c,2021-11-03_11h28.07.266,forced_choiceRT_color,2021.2.3,Win32,59.87665409,,,,,,,,,,,,,,,,,,,,,,,
,0,k,1,0.6064,11,2,46,3,1,k,purple,6101599f715789af3c45bb5c,2021-11-03_11h28.07.266,forced_choiceRT_color,2021.2.3,Win32,59.87665409,,,,,,,,,,,,,,,,,,,,,,,
,0,k,1,0.4901,11,3,47,3,1,k,purple,6101599f715789af3c45bb5c,2021-11-03_11h28.07.266,forced_choiceRT_color,2021.2.3,Win32,59.87665409,,,,,,,,,,,,,,,,,,,,,,,
,0,f,1,0.5717,12,0,48,1,1,f,blue,6101599f715789af3c45bb5c,2021-11-03_11h28.07.266,forced_choiceRT_color,2021.2.3,Win32,59.87665409,,,,,,,,,,,,,,,,,,,,,,,
,0,k,1,0.652,12,1,49,3,1,k,purple,6101599f715789af3c45bb5c,2021-11-03_11h28.07.266,forced_choiceRT_color,2021.2.3,Win32,59.87665409,,,,,,,,,,,,,,,,,,,,,,,
,0,k,1,0.6174,12,2,50,3,1,k,purple,6101599f715789af3c45bb5c,2021-11-03_11h28.07.266,forced_choiceRT_color,2021.2.3,Win32,59.87665409,,,,,,,,,,,,,,,,,,,,,,,
,0,f,1,0.5636,12,3,51,1,1,f,blue,6101599f715789af3c45bb5c,2021-11-03_11h28.07.266,forced_choiceRT_color,2021.2.3,Win32,59.87665409,,,,,,,,,,,,,,,,,,,,,,,
,0,j,1,0.6569,13,0,52,2,1,j,red,6101599f715789af3c45bb5c,2021-11-03_11h28.07.266,forced_choiceRT_color,2021.2.3,Win32,59.87665409,,,,,,,,,,,,,,,,,,,,,,,
,0,d,1,0.5849,13,1,53,0,1,d,orange,6101599f715789af3c45bb5c,2021-11-03_11h28.07.266,forced_choiceRT_color,2021.2.3,Win32,59.87665409,,,,,,,,,,,,,,,,,,,,,,,
,0,j,1,0.5836,13,2,54,2,1,j,red,6101599f715789af3c45bb5c,2021-11-03_11h28.07.266,forced_choiceRT_color,2021.2.3,Win32,59.87665409,,,,,,,,,,,,,,,,,,,,,,,
,0,j,1,0.6029,13,3,55,2,1,j,red,6101599f715789af3c45bb5c,2021-11-03_11h28.07.266,forced_choiceRT_color,2021.2.3,Win32,59.87665409,,,,,,,,,,,,,,,,,,,,,,,
,0,f,1,0.4507,14,0,56,1,1,f,blue,6101599f715789af3c45bb5c,2021-11-03_11h28.07.266,forced_choiceRT_color,2021.2.3,Win32,59.87665409,,,,,,,,,,,,,,,,,,,,,,,
,0,j,1,0.5534,14,1,57,2,1,j,red,6101599f715789af3c45bb5c,2021-11-03_11h28.07.266,forced_choiceRT_color,2021.2.3,Win32,59.87665409,,,,,,,,,,,,,,,,,,,,,,,
,0,k,1,0.5506,14,2,58,3,1,k,purple,6101599f715789af3c45bb5c,2021-11-03_11h28.07.266,forced_choiceRT_color,2021.2.3,Win32,59.87665409,,,,,,,,,,,,,,,,,,,,,,,
,0,d,1,0.5907,14,3,59,0,1,d,orange,6101599f715789af3c45bb5c,2021-11-03_11h28.07.266,forced_choiceRT_color,2021.2.3,Win32,59.87665409,,,,,,,,,,,,,,,,,,,,,,,
,,,,,,,,,,,,6101599f715789af3c45bb5c,2021-11-03_11h28.07.266,forced_choiceRT_color,2021.2.3,Win32,59.87665409,j,2.2883,0,0,0,0,1,,,,,,,,,,,,,,,,
,,,,,,,,,,,,6101599f715789af3c45bb5c,2021-11-03_11h28.07.266,forced_choiceRT_color,2021.2.3,Win32,59.87665409,j,1.7679,1,0,1,0,1,,,,,,,,,,,,,,,,
,,,,,,,,,,,,6101599f715789af3c45bb5c,2021-11-03_11h28.07.266,forced_choiceRT_color,2021.2.3,Win32,59.87665409,j,2.0066,2,0,2,0,1,,,,,,,,,,,,,,,,
,,,,,,,,,,,,6101599f715789af3c45bb5c,2021-11-03_11h28.07.266,forced_choiceRT_color,2021.2.3,Win32,59.87665409,j,1.8011,3,0,3,0,1,,,,,,,,,,,,,,,,
,,,,,,,,,,,,6101599f715789af3c45bb5c,2021-11-03_11h28.07.266,forced_choiceRT_color,2021.2.3,Win32,59.87665409,j,2.0227,4,0,4,0,1,,,,,,,,,,,,,,,,
,,,,,,,,,,,,6101599f715789af3c45bb5c,2021-11-03_11h28.07.266,forced_choiceRT_color,2021.2.3,Win32,59.87665409,j,1.9837,5,0,5,0,1,,,,,,,,,,,,,,,,
,,,,,,,,,,,,6101599f715789af3c45bb5c,2021-11-03_11h28.07.266,forced_choiceRT_color,2021.2.3,Win32,59.87665409,j,2.1798,6,0,6,0,1,,,,,,,,,,,,,,,,
,,,,,,,,,,,,6101599f715789af3c45bb5c,2021-11-03_11h28.07.266,forced_choiceRT_color,2021.2.3,Win32,59.87665409,j,2.0779,7,0,7,0,1,,,,,,,,,,,,,,,,
,,,,,,,,,,,,6101599f715789af3c45bb5c,2021-11-03_11h28.07.266,forced_choiceRT_color,2021.2.3,Win32,59.87665409,j,2.1477,8,0,8,0,1,,,,,,,,,,,,,,,,
,,,,,,,,,,,,6101599f715789af3c45bb5c,2021-11-03_11h28.07.266,forced_choiceRT_color,2021.2.3,Win32,59.87665409,j,1.9857,9,0,9,0,1,,,,,,,,,,,,,,,,
,,,,,,,,,,,,6101599f715789af3c45bb5c,2021-11-03_11h28.07.266,forced_choiceRT_color,2021.2.3,Win32,59.87665409,j,2.0004,10,0,10,0,1,,,,,,,,,,,,,,,,
,,,,,,,,,,,,6101599f715789af3c45bb5c,2021-11-03_11h28.07.266,forced_choiceRT_color,2021.2.3,Win32,59.87665409,j,2.1792,11,0,11,0,1,,,,,,,,,,,,,,,,
,,,,,,,,,,,,6101599f715789af3c45bb5c,2021-11-03_11h28.07.266,forced_choiceRT_color,2021.2.3,Win32,59.87665409,j,1.9676,12,0,12,0,1,,,,,,,,,,,,,,,,
,,,,,,,,,,,,6101599f715789af3c45bb5c,2021-11-03_11h28.07.266,forced_choiceRT_color,2021.2.3,Win32,59.87665409,j,1.8878,13,0,13,0,1,,,,,,,,,,,,,,,,
,,,,,,,,,,,,6101599f715789af3c45bb5c,2021-11-03_11h28.07.266,forced_choiceRT_color,2021.2.3,Win32,59.87665409,j,2.1338,14,0,14,0,1,,,,,,,,,,,,,,,,
,,,,,,,,,,,,6101599f715789af3c45bb5c,2021-11-03_11h28.07.266,forced_choiceRT_color,2021.2.3,Win32,59.87665409,j,2.1709,15,0,15,0,1,,,,,,,,,,,,,,,,
,,,,,,,,,,,,6101599f715789af3c45bb5c,2021-11-03_11h28.07.266,forced_choiceRT_color,2021.2.3,Win32,59.87665409,j,1.9539,16,0,16,0,1,,,,,,,,,,,,,,,,
,,,,,,,,,,,,6101599f715789af3c45bb5c,2021-11-03_11h28.07.266,forced_choiceRT_color,2021.2.3,Win32,59.87665409,j,1.9247,17,0,17,0,1,,,,,,,,,,,,,,,,
,,,,,,,,,,,,6101599f715789af3c45bb5c,2021-11-03_11h28.07.266,forced_choiceRT_color,2021.2.3,Win32,59.87665409,j,2.0011,18,0,18,0,1,,,,,,,,,,,,,,,,
,,,,,,,,,,,,6101599f715789af3c45bb5c,2021-11-03_11h28.07.266,forced_choiceRT_color,2021.2.3,Win32,59.87665409,j,2.0221,19,0,19,0,1,,,,,,,,,,,,,,,,
,0.41,,,,,,,,,f,blue,6101599f715789af3c45bb5c,2021-11-03_11h28.07.266,forced_choiceRT_color,2021.2.3,Win32,59.87665409,,,,,,,,1,Fast,long,d,0,1.6461,0,0,0,1,1,,,,,
,0.17,,,,,,,,,d,orange,6101599f715789af3c45bb5c,2021-11-03_11h28.07.266,forced_choiceRT_color,2021.2.3,Win32,59.87665409,,,,,,,,1,Slow,long,d,1,2.1278,0,1,1,0,1,,,,,
,1.57,,,,,,,,,f,blue,6101599f715789af3c45bb5c,2021-11-03_11h28.07.266,forced_choiceRT_color,2021.2.3,Win32,59.87665409,,,,,,,,1,Slow,long,f,1,2.2826,0,2,2,1,1,,,,,
,1.91,,,,,,,,,f,blue,6101599f715789af3c45bb5c,2021-11-03_11h28.07.266,forced_choiceRT_color,2021.2.3,Win32,59.87665409,,,,,,,,1,Slow,long,f,1,3.3814,0,3,3,1,1,,,,,
,1.4,,,,,,,,,d,orange,6101599f715789af3c45bb5c,2021-11-03_11h28.07.266,forced_choiceRT_color,2021.2.3,Win32,59.87665409,,,,,,,,1,Slow,long,d,1,2.2388,1,0,4,0,1,,,,,
,1.38,,,,,,,,,f,blue,6101599f715789af3c45bb5c,2021-11-03_11h28.07.266,forced_choiceRT_color,2021.2.3,Win32,59.87665409,,,,,,,,1,Ontime,long,f,1,1.9999,1,1,5,1,1,,,,,
,0.96,,,,,,,,,d,orange,6101599f715789af3c45bb5c,2021-11-03_11h28.07.266,forced_choiceRT_color,2021.2.3,Win32,59.87665409,,,,,,,,1,Slow,long,d,1,2.131,1,2,6,0,1,,,,,
,1.27,,,,,,,,,d,orange,6101599f715789af3c45bb5c,2021-11-03_11h28.07.266,forced_choiceRT_color,2021.2.3,Win32,59.87665409,,,,,,,,1,Slow,long,d,1,2.2466,1,3,7,0,1,,,,,
,1.66,,,,,,,,,f,blue,6101599f715789af3c45bb5c,2021-11-03_11h28.07.266,forced_choiceRT_color,2021.2.3,Win32,59.87665409,,,,,,,,1,Slow,long,f,1,2.2876,2,0,8,1,1,,,,,
,1.26,,,,,,,,,j,red,6101599f715789af3c45bb5c,2021-11-03_11h28.07.266,forced_choiceRT_color,2021.2.3,Win32,59.87665409,,,,,,,,1,Ontime,long,j,1,2.0984,2,1,9,2,1,,,,,
,1.2,,,,,,,,,k,purple,6101599f715789af3c45bb5c,2021-11-03_11h28.07.266,forced_choiceRT_color,2021.2.3,Win32,59.87665409,,,,,,,,1,Ontime,long,k,1,2.0892,2,2,10,3,1,,,,,
,1.24,,,,,,,,,f,blue,6101599f715789af3c45bb5c,2021-11-03_11h28.07.266,forced_choiceRT_color,2021.2.3,Win32,59.87665409,,,,,,,,1,Slow,long,f,1,2.1689,2,3,11,1,1,,,,,
,1.03,,,,,,,,,j,red,6101599f715789af3c45bb5c,2021-11-03_11h28.07.266,forced_choiceRT_color,2021.2.3,Win32,59.87665409,,,,,,,,1,Slow,long,j,1,2.1179,3,0,12,2,1,,,,,
,0.15,,,,,,,,,j,red,6101599f715789af3c45bb5c,2021-11-03_11h28.07.266,forced_choiceRT_color,2021.2.3,Win32,59.87665409,,,,,,,,1,Ontime,long,j,1,2.0406,3,1,13,2,1,,,,,
,0.06,,,,,,,,,j,red,6101599f715789af3c45bb5c,2021-11-03_11h28.07.266,forced_choiceRT_color,2021.2.3,Win32,59.87665409,,,,,,,,1,Fast,long,j,1,1.8985,3,2,14,2,1,,,,,
,1.79,,,,,,,,,j,red,6101599f715789af3c45bb5c,2021-11-03_11h28.07.266,forced_choiceRT_color,2021.2.3,Win32,59.87665409,,,,,,,,1,Slow,long,j,1,2.4331,3,3,15,2,1,,,,,
,0.16,,,,,,,,,f,blue,6101599f715789af3c45bb5c,2021-11-03_11h28.07.266,forced_choiceRT_color,2021.2.3,Win32,59.87665409,,,,,,,,1,Ontime,long,f,1,2.079,4,0,16,1,1,,,,,
,0.77,,,,,,,,,d,orange,6101599f715789af3c45bb5c,2021-11-03_11h28.07.266,forced_choiceRT_color,2021.2.3,Win32,59.87665409,,,,,,,,1,Ontime,long,d,1,2.0562,4,1,17,0,1,,,,,
,0.24,,,,,,,,,k,purple,6101599f715789af3c45bb5c,2021-11-03_11h28.07.266,forced_choiceRT_color,2021.2.3,Win32,59.87665409,,,,,,,,1,Ontime,long,k,1,2.0637,4,2,18,3,1,,,,,
,0.44,,,,,,,,,d,orange,6101599f715789af3c45bb5c,2021-11-03_11h28.07.266,forced_choiceRT_color,2021.2.3,Win32,59.87665409,,,,,,,,1,Ontime,long,d,1,2.0735,4,3,19,0,1,,,,,
,1.68,,,,,,,,,j,red,6101599f715789af3c45bb5c,2021-11-03_11h28.07.266,forced_choiceRT_color,2021.2.3,Win32,59.87665409,,,,,,,,1,Slow,long,j,1,2.331,5,0,20,2,1,,,,,
,0.61,,,,,,,,,k,purple,6101599f715789af3c45bb5c,2021-11-03_11h28.07.266,forced_choiceRT_color,2021.2.3,Win32,59.87665409,,,,,,,,1,Slow,long,k,1,2.1048,5,1,21,3,1,,,,,
,1.87,,,,,,,,,j,red,6101599f715789af3c45bb5c,2021-11-03_11h28.07.266,forced_choiceRT_color,2021.2.3,Win32,59.87665409,,,,,,,,1,Slow,long,j,1,3.017,5,2,22,2,1,,,,,
,1.1,,,,,,,,,k,purple,6101599f715789af3c45bb5c,2021-11-03_11h28.07.266,forced_choiceRT_color,2021.2.3,Win32,59.87665409,,,,,,,,1,Slow,long,k,1,2.1847,5,3,23,3,1,,,,,
,0.77,,,,,,,,,k,purple,6101599f715789af3c45bb5c,2021-11-03_11h28.07.266,forced_choiceRT_color,2021.2.3,Win32,59.87665409,,,,,,,,1,Slow,long,k,1,2.1809,6,0,24,3,1,,,,,
,0.18,,,,,,,,,j,red,6101599f715789af3c45bb5c,2021-11-03_11h28.07.266,forced_choiceRT_color,2021.2.3,Win32,59.87665409,,,,,,,,1,Slow,long,j,1,2.1938,6,1,25,2,1,,,,,
,0.44,,,,,,,,,k,purple,6101599f715789af3c45bb5c,2021-11-03_11h28.07.266,forced_choiceRT_color,2021.2.3,Win32,59.87665409,,,,,,,,1,Ontime,long,k,1,2.0909,6,2,26,3,1,,,,,
,0.92,,,,,,,,,j,red,6101599f715789af3c45bb5c,2021-11-03_11h28.07.266,forced_choiceRT_color,2021.2.3,Win32,59.87665409,,,,,,,,1,Slow,long,j,1,2.1034,6,3,27,2,1,,,,,
,1.45,,,,,,,,,f,blue,6101599f715789af3c45bb5c,2021-11-03_11h28.07.266,forced_choiceRT_color,2021.2.3,Win32,59.87665409,,,,,,,,1,Slow,long,f,1,2.1796,7,0,28,1,1,,,,,
,0.84,,,,,,,,,k,purple,6101599f715789af3c45bb5c,2021-11-03_11h28.07.266,forced_choiceRT_color,2021.2.3,Win32,59.87665409,,,,,,,,1,Ontime,long,k,1,2.0715,7,1,29,3,1,,,,,
,0.25,,,,,,,,,j,red,6101599f715789af3c45bb5c,2021-11-03_11h28.07.266,forced_choiceRT_color,2021.2.3,Win32,59.87665409,,,,,,,,1,Ontime,long,j,1,1.9804,7,2,30,2,1,,,,,
,1.22,,,,,,,,,d,orange,6101599f715789af3c45bb5c,2021-11-03_11h28.07.266,forced_choiceRT_color,2021.2.3,Win32,59.87665409,,,,,,,,1,Slow,long,d,1,2.1682,7,3,31,0,1,,,,,
,0.21,,,,,,,,,k,purple,6101599f715789af3c45bb5c,2021-11-03_11h28.07.266,forced_choiceRT_color,2021.2.3,Win32,59.87665409,,,,,,,,1,Ontime,long,k,1,1.9283,8,0,32,3,1,,,,,
,0.1,,,,,,,,,d,orange,6101599f715789af3c45bb5c,2021-11-03_11h28.07.266,forced_choiceRT_color,2021.2.3,Win32,59.87665409,,,,,,,,1,Ontime,long,d,1,1.9674,8,1,33,0,1,,,,,
,0.39,,,,,,,,,k,purple,6101599f715789af3c45bb5c,2021-11-03_11h28.07.266,forced_choiceRT_color,2021.2.3,Win32,59.87665409,,,,,,,,1,Ontime,long,k,1,2.0858,8,2,34,3,1,,,,,
,0.89,,,,,,,,,d,orange,6101599f715789af3c45bb5c,2021-11-03_11h28.07.266,forced_choiceRT_color,2021.2.3,Win32,59.87665409,,,,,,,,1,Ontime,long,d,1,2.007,8,3,35,0,1,,,,,
,0.97,,,,,,,,,f,blue,6101599f715789af3c45bb5c,2021-11-03_11h28.07.266,forced_choiceRT_color,2021.2.3,Win32,59.87665409,,,,,,,,1,Ontime,long,f,1,2.0107,9,0,36,1,1,,,,,
,0.26,,,,,,,,,k,purple,6101599f715789af3c45bb5c,2021-11-03_11h28.07.266,forced_choiceRT_color,2021.2.3,Win32,59.87665409,,,,,,,,1,Ontime,long,k,1,1.9706,9,1,37,3,1,,,,,
,1.49,,,,,,,,,f,blue,6101599f715789af3c45bb5c,2021-11-03_11h28.07.266,forced_choiceRT_color,2021.2.3,Win32,59.87665409,,,,,,,,1,Ontime,long,f,1,1.9921,9,2,38,1,1,,,,,
,0.75,,,,,,,,,d,orange,6101599f715789af3c45bb5c,2021-11-03_11h28.07.266,forced_choiceRT_color,2021.2.3,Win32,59.87665409,,,,,,,,1,Ontime,long,d,1,1.9836,9,3,39,0,1,,,,,
,,,,,,,,,,,,6101599f715789af3c45bb5c,2021-11-03_11h28.07.266,forced_choiceRT_color,2021.2.3,Win32,59.87665409,,,,,,,,,,,,,,,,,,,0,0,0,0,1
,0.67,,,,,,,,,d,orange,6101599f715789af3c45bb5c,2021-11-03_11h28.07.266,forced_choiceRT_color,2021.2.3,Win32,59.87665409,,,,,,,,2,Fast,long,d,1,1.8129,0,0,0,0,1,,,,,
,0.42,,,,,,,,,d,orange,6101599f715789af3c45bb5c,2021-11-03_11h28.07.266,forced_choiceRT_color,2021.2.3,Win32,59.87665409,,,,,,,,2,Ontime,long,d,1,2.0661,0,1,1,0,1,,,,,
,1.77,,,,,,,,,j,red,6101599f715789af3c45bb5c,2021-11-03_11h28.07.266,forced_choiceRT_color,2021.2.3,Win32,59.87665409,,,,,,,,2,Slow,long,j,1,2.388,0,2,2,2,1,,,,,
,1.12,,,,,,,,,d,orange,6101599f715789af3c45bb5c,2021-11-03_11h28.07.266,forced_choiceRT_color,2021.2.3,Win32,59.87665409,,,,,,,,2,Ontime,long,d,1,2.0508,0,3,3,0,1,,,,,
,1.27,,,,,,,,,d,orange,6101599f715789af3c45bb5c,2021-11-03_11h28.07.266,forced_choiceRT_color,2021.2.3,Win32,59.87665409,,,,,,,,2,Fast,long,d,1,1.858,1,0,4,0,1,,,,,
,0.98,,,,,,,,,k,purple,6101599f715789af3c45bb5c,2021-11-03_11h28.07.266,forced_choiceRT_color,2021.2.3,Win32,59.87665409,,,,,,,,2,Ontime,long,k,1,1.987,1,1,5,3,1,,,,,
,0.04,,,,,,,,,f,blue,6101599f715789af3c45bb5c,2021-11-03_11h28.07.266,forced_choiceRT_color,2021.2.3,Win32,59.87665409,,,,,,,,2,Slow,long,f,1,2.1002,1,2,6,1,1,,,,,
,0.96,,,,,,,,,d,orange,6101599f715789af3c45bb5c,2021-11-03_11h28.07.266,forced_choiceRT_color,2021.2.3,Win32,59.87665409,,,,,,,,2,Ontime,long,d,1,1.9553,1,3,7,0,1,,,,,
,1.16,,,,,,,,,f,blue,6101599f715789af3c45bb5c,2021-11-03_11h28.07.266,forced_choiceRT_color,2021.2.3,Win32,59.87665409,,,,,,,,2,Slow,long,f,1,2.1112,2,0,8,1,1,,,,,
,0.52,,,,,,,,,k,purple,6101599f715789af3c45bb5c,2021-11-03_11h28.07.266,forced_choiceRT_color,2021.2.3,Win32,59.87665409,,,,,,,,2,Ontime,long,k,1,1.9185,2,1,9,3,1,,,,,
,1.71,,,,,,,,,j,red,6101599f715789af3c45bb5c,2021-11-03_11h28.07.266,forced_choiceRT_color,2021.2.3,Win32,59.87665409,,,,,,,,2,Slow,long,j,1,2.2728,2,2,10,2,1,,,,,
,0.12,,,,,,,,,f,blue,6101599f715789af3c45bb5c,2021-11-03_11h28.07.266,forced_choiceRT_color,2021.2.3,Win32,59.87665409,,,,,,,,2,Ontime,long,f,1,2.0344,2,3,11,1,1,,,,,
,1.62,,,,,,,,,j,red,6101599f715789af3c45bb5c,2021-11-03_11h28.07.266,forced_choiceRT_color,2021.2.3,Win32,59.87665409,,,,,,,,2,Ontime,long,j,1,2.0774,3,0,12,2,1,,,,,
,0.38,,,,,,,,,f,blue,6101599f715789af3c45bb5c,2021-11-03_11h28.07.266,forced_choiceRT_color,2021.2.3,Win32,59.87665409,,,,,,,,2,Ontime,long,f,1,1.9545,3,1,13,1,1,,,,,
,1.98,,,,,,,,,f,blue,6101599f715789af3c45bb5c,2021-11-03_11h28.07.266,forced_choiceRT_color,2021.2.3,Win32,59.87665409,,,,,,,,2,Slow,long,f,1,2.8505,3,2,14,1,1,,,,,
,0.19,,,,,,,,,f,blue,6101599f715789af3c45bb5c,2021-11-03_11h28.07.266,forced_choiceRT_color,2021.2.3,Win32,59.87665409,,,,,,,,2,Ontime,long,f,1,2.0343,3,3,15,1,1,,,,,
,0.83,,,,,,,,,f,blue,6101599f715789af3c45bb5c,2021-11-03_11h28.07.266,forced_choiceRT_color,2021.2.3,Win32,59.87665409,,,,,,,,2,Ontime,long,f,1,2.0775,4,0,16,1,1,,,,,
,0.76,,,,,,,,,k,purple,6101599f715789af3c45bb5c,2021-11-03_11h28.07.266,forced_choiceRT_color,2021.2.3,Win32,59.87665409,,,,,,,,2,Slow,long,k,1,2.1341,4,1,17,3,1,,,,,
,0.66,,,,,,,,,k,purple,6101599f715789af3c45bb5c,2021-11-03_11h28.07.266,forced_choiceRT_color,2021.2.3,Win32,59.87665409,,,,,,,,2,Ontime,long,k,1,1.9416,4,2,18,3,1,,,,,
,0.79,,,,,,,,,j,red,6101599f715789af3c45bb5c,2021-11-03_11h28.07.266,forced_choiceRT_color,2021.2.3,Win32,59.87665409,,,,,,,,2,Ontime,long,j,1,2.0189,4,3,19,2,1,,,,,
,0.28,,,,,,,,,k,purple,6101599f715789af3c45bb5c,2021-11-03_11h28.07.266,forced_choiceRT_color,2021.2.3,Win32,59.87665409,,,,,,,,2,Ontime,long,k,1,2.0452,5,0,20,3,1,,,,,
,1,,,,,,,,,d,orange,6101599f715789af3c45bb5c,2021-11-03_11h28.07.266,forced_choiceRT_color,2021.2.3,Win32,59.87665409,,,,,,,,2,Slow,long,f,0,2.2173,5,1,21,0,1,,,,,
,1.13,,,,,,,,,j,red,6101599f715789af3c45bb5c,2021-11-03_11h28.07.266,forced_choiceRT_color,2021.2.3,Win32,59.87665409,,,,,,,,2,Slow,long,j,1,2.2339,5,2,22,2,1,,,,,
,0.43,,,,,,,,,k,purple,6101599f715789af3c45bb5c,2021-11-03_11h28.07.266,forced_choiceRT_color,2021.2.3,Win32,59.87665409,,,,,,,,2,Ontime,long,k,1,1.9966,5,3,23,3,1,,,,,
,0.42,,,,,,,,,f,blue,6101599f715789af3c45bb5c,2021-11-03_11h28.07.266,forced_choiceRT_color,2021.2.3,Win32,59.87665409,,,,,,,,2,Ontime,long,f,1,2.0014,6,0,24,1,1,,,,,
,1.31,,,,,,,,,k,purple,6101599f715789af3c45bb5c,2021-11-03_11h28.07.266,forced_choiceRT_color,2021.2.3,Win32,59.87665409,,,,,,,,2,Ontime,long,k,1,1.9864,6,1,25,3,1,,,,,
,0.24,,,,,,,,,k,purple,6101599f715789af3c45bb5c,2021-11-03_11h28.07.266,forced_choiceRT_color,2021.2.3,Win32,59.87665409,,,,,,,,2,Fast,long,k,1,1.8603,6,2,26,3,1,,,,,
,1.52,,,,,,,,,j,red,6101599f715789af3c45bb5c,2021-11-03_11h28.07.266,forced_choiceRT_color,2021.2.3,Win32,59.87665409,,,,,,,,2,Slow,long,k,0,2.2352,6,3,27,2,1,,,,,
,1.79,,,,,,,,,k,purple,6101599f715789af3c45bb5c,2021-11-03_11h28.07.266,forced_choiceRT_color,2021.2.3,Win32,59.87665409,,,,,,,,2,Slow,long,k,1,2.6266,7,0,28,3,1,,,,,
,0.19,,,,,,,,,k,purple,6101599f715789af3c45bb5c,2021-11-03_11h28.07.266,forced_choiceRT_color,2021.2.3,Win32,59.87665409,,,,,,,,2,Fast,long,k,1,1.8711,7,1,29,3,1,,,,,
,0.58,,,,,,,,,d,orange,6101599f715789af3c45bb5c,2021-11-03_11h28.07.266,forced_choiceRT_color,2021.2.3,Win32,59.87665409,,,,,,,,2,Ontime,long,d,1,1.99,7,2,30,0,1,,,,,
,0.46,,,,,,,,,f,blue,6101599f715789af3c45bb5c,2021-11-03_11h28.07.266,forced_choiceRT_color,2021.2.3,Win32,59.87665409,,,,,,,,2,Ontime,long,f,1,2.0449,7,3,31,1,1,,,,,
,0.38,,,,,,,,,j,red,6101599f715789af3c45bb5c,2021-11-03_11h28.07.266,forced_choiceRT_color,2021.2.3,Win32,59.87665409,,,,,,,,2,Slow,long,j,1,2.1275,8,0,32,2,1,,,,,
,1.29,,,,,,,,,f,blue,6101599f715789af3c45bb5c,2021-11-03_11h28.07.266,forced_choiceRT_color,2021.2.3,Win32,59.87665409,,,,,,,,2,Slow,long,f,1,2.1177,8,1,33,1,1,,,,,
,1.24,,,,,,,,,d,orange,6101599f715789af3c45bb5c,2021-11-03_11h28.07.266,forced_choiceRT_color,2021.2.3,Win32,59.87665409,,,,,,,,2,Slow,long,d,1,2.2146,8,2,34,0,1,,,,,
,1.82,,,,,,,,,j,red,6101599f715789af3c45bb5c,2021-11-03_11h28.07.266,forced_choiceRT_color,2021.2.3,Win32,59.87665409,,,,,,,,2,Slow,long,j,1,2.4505,8,3,35,2,1,,,,,
,0.85,,,,,,,,,d,orange,6101599f715789af3c45bb5c,2021-11-03_11h28.07.266,forced_choiceRT_color,2021.2.3,Win32,59.87665409,,,,,,,,2,Ontime,long,d,1,1.9826,9,0,36,0,1,,,,,
,1.48,,,,,,,,,j,red,6101599f715789af3c45bb5c,2021-11-03_11h28.07.266,forced_choiceRT_color,2021.2.3,Win32,59.87665409,,,,,,,,2,Ontime,long,f,0,1.9892,9,1,37,2,1,,,,,
,1.74,,,,,,,,,j,red,6101599f715789af3c45bb5c,2021-11-03_11h28.07.266,forced_choiceRT_color,2021.2.3,Win32,59.87665409,,,,,,,,2,Slow,long,j,1,2.1734,9,2,38,2,1,,,,,
,1,,,,,,,,,d,orange,6101599f715789af3c45bb5c,2021-11-03_11h28.07.266,forced_choiceRT_color,2021.2.3,Win32,59.87665409,,,,,,,,2,Ontime,long,d,1,2.0505,9,3,39,0,1,,,,,
,,,,,,,,,,,,6101599f715789af3c45bb5c,2021-11-03_11h28.07.266,forced_choiceRT_color,2021.2.3,Win32,59.87665409,,,,,,,,,,,,,,,,,,,1,0,1,0,1
,1.54,,,,,,,,,f,blue,6101599f715789af3c45bb5c,2021-11-03_11h28.07.266,forced_choiceRT_color,2021.2.3,Win32,59.87665409,,,,,,,,3,Slow,long,f,1,2.159,0,0,0,1,1,,,,,
,0.19,,,,,,,,,j,red,6101599f715789af3c45bb5c,2021-11-03_11h28.07.266,forced_choiceRT_color,2021.2.3,Win32,59.87665409,,,,,,,,3,Fast,long,j,1,1.8756,0,1,1,2,1,,,,,
,1.49,,,,,,,,,k,purple,6101599f715789af3c45bb5c,2021-11-03_11h28.07.266,forced_choiceRT_color,2021.2.3,Win32,59.87665409,,,,,,,,3,Slow,long,k,1,2.1081,0,2,2,3,1,,,,,
,0.2,,,,,,,,,f,blue,6101599f715789af3c45bb5c,2021-11-03_11h28.07.266,forced_choiceRT_color,2021.2.3,Win32,59.87665409,,,,,,,,3,Fast,long,f,1,1.8023,0,3,3,1,1,,,,,
,1.04,,,,,,,,,k,purple,6101599f715789af3c45bb5c,2021-11-03_11h28.07.266,forced_choiceRT_color,2021.2.3,Win32,59.87665409,,,,,,,,3,Slow,long,k,1,2.1324,1,0,4,3,1,,,,,
,1.45,,,,,,,,,k,purple,6101599f715789af3c45bb5c,2021-11-03_11h28.07.266,forced_choiceRT_color,2021.2.3,Win32,59.87665409,,,,,,,,3,Slow,long,k,1,2.1711,1,1,5,3,1,,,,,
,1.27,,,,,,,,,k,purple,6101599f715789af3c45bb5c,2021-11-03_11h28.07.266,forced_choiceRT_color,2021.2.3,Win32,59.87665409,,,,,,,,3,Ontime,long,k,1,1.9387,1,2,6,3,1,,,,,
,1.44,,,,,,,,,d,orange,6101599f715789af3c45bb5c,2021-11-03_11h28.07.266,forced_choiceRT_color,2021.2.3,Win32,59.87665409,,,,,,,,3,Slow,long,d,1,3.3736,1,3,7,0,1,,,,,
,1.08,,,,,,,,,f,blue,6101599f715789af3c45bb5c,2021-11-03_11h28.07.266,forced_choiceRT_color,2021.2.3,Win32,59.87665409,,,,,,,,3,Ontime,long,f,1,2.087,2,0,8,1,1,,,,,
,1,,,,,,,,,k,purple,6101599f715789af3c45bb5c,2021-11-03_11h28.07.266,forced_choiceRT_color,2021.2.3,Win32,59.87665409,,,,,,,,3,Ontime,long,k,1,1.9801,2,1,9,3,1,,,,,
,0.74,,,,,,,,,k,purple,6101599f715789af3c45bb5c,2021-11-03_11h28.07.266,forced_choiceRT_color,2021.2.3,Win32,59.87665409,,,,,,,,3,Ontime,long,k,1,1.9102,2,2,10,3,1,,,,,
,1.56,,,,,,,,,k,purple,6101599f715789af3c45bb5c,2021-11-03_11h28.07.266,forced_choiceRT_color,2021.2.3,Win32,59.87665409,,,,,,,,3,Ontime,long,k,1,2.0558,2,3,11,3,1,,,,,
,0.06,,,,,,,,,d,orange,6101599f715789af3c45bb5c,2021-11-03_11h28.07.266,forced_choiceRT_color,2021.2.3,Win32,59.87665409,,,,,,,,3,Slow,long,d,1,2.1489,3,0,12,0,1,,,,,
,0.59,,,,,,,,,d,orange,6101599f715789af3c45bb5c,2021-11-03_11h28.07.266,forced_choiceRT_color,2021.2.3,Win32,59.87665409,,,,,,,,3,Ontime,long,d,1,1.9222,3,1,13,0,1,,,,,
,1.26,,,,,,,,,d,orange,6101599f715789af3c45bb5c,2021-11-03_11h28.07.266,forced_choiceRT_color,2021.2.3,Win32,59.87665409,,,,,,,,3,Ontime,long,d,1,1.9746,3,2,14,0,1,,,,,
,1.21,,,,,,,,,f,blue,6101599f715789af3c45bb5c,2021-11-03_11h28.07.266,forced_choiceRT_color,2021.2.3,Win32,59.87665409,,,,,,,,3,Slow,long,f,1,2.1169,3,3,15,1,1,,,,,
,1.82,,,,,,,,,f,blue,6101599f715789af3c45bb5c,2021-11-03_11h28.07.266,forced_choiceRT_color,2021.2.3,Win32,59.87665409,,,,,,,,3,Slow,long,f,1,2.4559,4,0,16,1,1,,,,,
,0.24,,,,,,,,,k,purple,6101599f715789af3c45bb5c,2021-11-03_11h28.07.266,forced_choiceRT_color,2021.2.3,Win32,59.87665409,,,,,,,,3,Ontime,long,k,1,1.9369,4,1,17,3,1,,,,,
,1.11,,,,,,,,,d,orange,6101599f715789af3c45bb5c,2021-11-03_11h28.07.266,forced_choiceRT_color,2021.2.3,Win32,59.87665409,,,,,,,,3,Ontime,long,d,1,2.0977,4,2,18,0,1,,,,,
,1.91,,,,,,,,,d,orange,6101599f715789af3c45bb5c,2021-11-03_11h28.07.266,forced_choiceRT_color,2021.2.3,Win32,59.87665409,,,,,,,,3,Slow,long,f,0,2.3462,4,3,19,0,1,,,,,
,1.44,,,,,,,,,d,orange,6101599f715789af3c45bb5c,2021-11-03_11h28.07.266,forced_choiceRT_color,2021.2.3,Win32,59.87665409,,,,,,,,3,Ontime,long,d,1,2.0947,5,0,20,0,1,,,,,
,1.53,,,,,,,,,f,blue,6101599f715789af3c45bb5c,2021-11-03_11h28.07.266,forced_choiceRT_color,2021.2.3,Win32,59.87665409,,,,,,,,3,Ontime,long,f,1,2.0799,5,1,21,1,1,,,,,
,0.6,,,,,,,,,k,purple,6101599f715789af3c45bb5c,2021-11-03_11h28.07.266,forced_choiceRT_color,2021.2.3,Win32,59.87665409,,,,,,,,3,Ontime,long,k,1,2.0453,5,2,22,3,1,,,,,
,0.23,,,,,,,,,j,red,6101599f715789af3c45bb5c,2021-11-03_11h28.07.266,forced_choiceRT_color,2021.2.3,Win32,59.87665409,,,,,,,,3,Slow,long,j,1,2.1856,5,3,23,2,1,,,,,
,1.62,,,,,,,,,f,blue,6101599f715789af3c45bb5c,2021-11-03_11h28.07.266,forced_choiceRT_color,2021.2.3,Win32,59.87665409,,,,,,,,3,Slow,long,d,0,2.5019,6,0,24,1,1,,,,,
,1.08,,,,,,,,,f,blue,6101599f715789af3c45bb5c,2021-11-03_11h28.07.266,forced_choiceRT_color,2021.2.3,Win32,59.87665409,,,,,,,,3,Slow,long,f,1,3.1137,6,1,25,1,1,,,,,
,1.92,,,,,,,,,j,red,6101599f715789af3c45bb5c,2021-11-03_11h28.07.266,forced_choiceRT_color,2021.2.3,Win32,59.87665409,,,,,,,,3,Slow,long,j,1,2.8133,6,2,26,2,1,,,,,
,1.25,,,,,,,,,j,red,6101599f715789af3c45bb5c,2021-11-03_11h28.07.266,forced_choiceRT_color,2021.2.3,Win32,59.87665409,,,,,,,,3,Ontime,long,j,1,2.0533,6,3,27,2,1,,,,,
,1.88,,,,,,,,,j,red,6101599f715789af3c45bb5c,2021-11-03_11h28.07.266,forced_choiceRT_color,2021.2.3,Win32,59.87665409,,,,,,,,3,Slow,long,j,1,2.3235,7,0,28,2,1,,,,,
,1.35,,,,,,,,,d,orange,6101599f715789af3c45bb5c,2021-11-03_11h28.07.266,forced_choiceRT_color,2021.2.3,Win32,59.87665409,,,,,,,,3,Slow,long,d,1,2.2013,7,1,29,0,1,,,,,
,0.72,,,,,,,,,f,blue,6101599f715789af3c45bb5c,2021-11-03_11h28.07.266,forced_choiceRT_color,2021.2.3,Win32,59.87665409,,,,,,,,3,Ontime,long,k,0,2.0282,7,2,30,1,1,,,,,
,1.81,,,,,,,,,d,orange,6101599f715789af3c45bb5c,2021-11-03_11h28.07.266,forced_choiceRT_color,2021.2.3,Win32,59.87665409,,,,,,,,3,Slow,long,d,1,2.6005,7,3,31,0,1,,,,,
,0.58,,,,,,,,,j,red,6101599f715789af3c45bb5c,2021-11-03_11h28.07.266,forced_choiceRT_color,2021.2.3,Win32,59.87665409,,,,,,,,3,Ontime,long,j,1,1.9974,8,0,32,2,1,,,,,
,1.19,,,,,,,,,d,orange,6101599f715789af3c45bb5c,2021-11-03_11h28.07.266,forced_choiceRT_color,2021.2.3,Win32,59.87665409,,,,,,,,3,Ontime,long,d,1,2.0197,8,1,33,0,1,,,,,
,0.27,,,,,,,,,k,purple,6101599f715789af3c45bb5c,2021-11-03_11h28.07.266,forced_choiceRT_color,2021.2.3,Win32,59.87665409,,,,,,,,3,Fast,long,k,1,1.8043,8,2,34,3,1,,,,,
,0.14,,,,,,,,,f,blue,6101599f715789af3c45bb5c,2021-11-03_11h28.07.266,forced_choiceRT_color,2021.2.3,Win32,59.87665409,,,,,,,,3,Slow,long,f,1,2.284,8,3,35,1,1,,,,,
,1.49,,,,,,,,,j,red,6101599f715789af3c45bb5c,2021-11-03_11h28.07.266,forced_choiceRT_color,2021.2.3,Win32,59.87665409,,,,,,,,3,Slow,long,j,1,2.1464,9,0,36,2,1,,,,,
,0.97,,,,,,,,,j,red,6101599f715789af3c45bb5c,2021-11-03_11h28.07.266,forced_choiceRT_color,2021.2.3,Win32,59.87665409,,,,,,,,3,Ontime,long,j,1,1.9843,9,1,37,2,1,,,,,
,0.99,,,,,,,,,j,red,6101599f715789af3c45bb5c,2021-11-03_11h28.07.266,forced_choiceRT_color,2021.2.3,Win32,59.87665409,,,,,,,,3,Fast,long,j,1,1.829,9,2,38,2,1,,,,,
,1.73,,,,,,,,,j,red,6101599f715789af3c45bb5c,2021-11-03_11h28.07.266,forced_choiceRT_color,2021.2.3,Win32,59.87665409,,,,,,,,3,Slow,long,j,1,2.1338,9,3,39,2,1,,,,,
,,,,,,,,,,,,6101599f715789af3c45bb5c,2021-11-03_11h28.07.266,forced_choiceRT_color,2021.2.3,Win32,59.87665409,,,,,,,,,,,,,,,,,,,2,0,2,0,1
,0.88,,,,,,,,,f,blue,6101599f715789af3c45bb5c,2021-11-03_11h28.07.266,forced_choiceRT_color,2021.2.3,Win32,59.87665409,,,,,,,,4,Fast,long,f,1,1.8114,0,0,0,1,1,,,,,
,0.68,,,,,,,,,f,blue,6101599f715789af3c45bb5c,2021-11-03_11h28.07.266,forced_choiceRT_color,2021.2.3,Win32,59.87665409,,,,,,,,4,Fast,long,f,1,1.8194,0,1,1,1,1,,,,,
,1.8,,,,,,,,,d,orange,6101599f715789af3c45bb5c,2021-11-03_11h28.07.266,forced_choiceRT_color,2021.2.3,Win32,59.87665409,,,,,,,,4,Slow,long,d,1,2.3153,0,2,2,0,1,,,,,
,0.86,,,,,,,,,k,purple,6101599f715789af3c45bb5c,2021-11-03_11h28.07.266,forced_choiceRT_color,2021.2.3,Win32,59.87665409,,,,,,,,4,Ontime,long,k,1,2.0598,0,3,3,3,1,,,,,
,1.24,,,,,,,,,j,red,6101599f715789af3c45bb5c,2021-11-03_11h28.07.266,forced_choiceRT_color,2021.2.3,Win32,59.87665409,,,,,,,,4,Ontime,long,j,1,1.9992,1,0,4,2,1,,,,,
,0.21,,,,,,,,,d,orange,6101599f715789af3c45bb5c,2021-11-03_11h28.07.266,forced_choiceRT_color,2021.2.3,Win32,59.87665409,,,,,,,,4,Ontime,long,d,1,2.0141,1,1,5,0,1,,,,,
,1.26,,,,,,,,,d,orange,6101599f715789af3c45bb5c,2021-11-03_11h28.07.266,forced_choiceRT_color,2021.2.3,Win32,59.87665409,,,,,,,,4,Ontime,long,d,1,2.0327,1,2,6,0,1,,,,,
,0.85,,,,,,,,,k,purple,6101599f715789af3c45bb5c,2021-11-03_11h28.07.266,forced_choiceRT_color,2021.2.3,Win32,59.87665409,,,,,,,,4,Slow,long,k,1,2.1174,1,3,7,3,1,,,,,
,0.24,,,,,,,,,f,blue,6101599f715789af3c45bb5c,2021-11-03_11h28.07.266,forced_choiceRT_color,2021.2.3,Win32,59.87665409,,,,,,,,4,Slow,long,f,1,2.1021,2,0,8,1,1,,,,,
,0.07,,,,,,,,,d,orange,6101599f715789af3c45bb5c,2021-11-03_11h28.07.266,forced_choiceRT_color,2021.2.3,Win32,59.87665409,,,,,,,,4,Slow,long,f,0,2.1692,2,1,9,0,1,,,,,
,1.26,,,,,,,,,j,red,6101599f715789af3c45bb5c,2021-11-03_11h28.07.266,forced_choiceRT_color,2021.2.3,Win32,59.87665409,,,,,,,,4,Ontime,long,j,1,2.0334,2,2,10,2,1,,,,,
,1.6,,,,,,,,,f,blue,6101599f715789af3c45bb5c,2021-11-03_11h28.07.266,forced_choiceRT_color,2021.2.3,Win32,59.87665409,,,,,,,,4,Slow,long,f,1,2.2369,2,3,11,1,1,,,,,
,0.9,,,,,,,,,d,orange,6101599f715789af3c45bb5c,2021-11-03_11h28.07.266,forced_choiceRT_color,2021.2.3,Win32,59.87665409,,,,,,,,4,Ontime,long,d,1,1.968,3,0,12,0,1,,,,,
,1.73,,,,,,,,,d,orange,6101599f715789af3c45bb5c,2021-11-03_11h28.07.266,forced_choiceRT_color,2021.2.3,Win32,59.87665409,,,,,,,,4,Slow,long,d,1,2.3143,3,1,13,0,1,,,,,
,0.48,,,,,,,,,d,orange,6101599f715789af3c45bb5c,2021-11-03_11h28.07.266,forced_choiceRT_color,2021.2.3,Win32,59.87665409,,,,,,,,4,Slow,long,d,1,2.1965,3,2,14,0,1,,,,,
,1.34,,,,,,,,,j,red,6101599f715789af3c45bb5c,2021-11-03_11h28.07.266,forced_choiceRT_color,2021.2.3,Win32,59.87665409,,,,,,,,4,Slow,long,j,1,3.0201,3,3,15,2,1,,,,,
,1.9,,,,,,,,,d,orange,6101599f715789af3c45bb5c,2021-11-03_11h28.07.266,forced_choiceRT_color,2021.2.3,Win32,59.87665409,,,,,,,,4,Slow,long,d,1,2.8848,4,0,16,0,1,,,,,
,0.6,,,,,,,,,f,blue,6101599f715789af3c45bb5c,2021-11-03_11h28.07.266,forced_choiceRT_color,2021.2.3,Win32,59.87665409,,,,,,,,4,Slow,long,f,1,2.9597,4,1,17,1,1,,,,,
,0.25,,,,,,,,,j,red,6101599f715789af3c45bb5c,2021-11-03_11h28.07.266,forced_choiceRT_color,2021.2.3,Win32,59.87665409,,,,,,,,4,Fast,long,j,1,1.8534,4,2,18,2,1,,,,,
,0.95,,,,,,,,,k,purple,6101599f715789af3c45bb5c,2021-11-03_11h28.07.266,forced_choiceRT_color,2021.2.3,Win32,59.87665409,,,,,,,,4,Slow,long,k,1,2.1005,4,3,19,3,1,,,,,
,0.4,,,,,,,,,d,orange,6101599f715789af3c45bb5c,2021-11-03_11h28.07.266,forced_choiceRT_color,2021.2.3,Win32,59.87665409,,,,,,,,4,Ontime,long,d,1,2.0436,5,0,20,0,1,,,,,
,0.66,,,,,,,,,k,purple,6101599f715789af3c45bb5c,2021-11-03_11h28.07.266,forced_choiceRT_color,2021.2.3,Win32,59.87665409,,,,,,,,4,Ontime,long,k,1,1.9535,5,1,21,3,1,,,,,
,0.15,,,,,,,,,k,purple,6101599f715789af3c45bb5c,2021-11-03_11h28.07.266,forced_choiceRT_color,2021.2.3,Win32,59.87665409,,,,,,,,4,Fast,long,k,1,1.8685,5,2,22,3,1,,,,,
,1.55,,,,,,,,,j,red,6101599f715789af3c45bb5c,2021-11-03_11h28.07.266,forced_choiceRT_color,2021.2.3,Win32,59.87665409,,,,,,,,4,Ontime,long,j,1,2.014,5,3,23,2,1,,,,,
,0.76,,,,,,,,,f,blue,6101599f715789af3c45bb5c,2021-11-03_11h28.07.266,forced_choiceRT_color,2021.2.3,Win32,59.87665409,,,,,,,,4,Ontime,long,f,1,1.9818,6,0,24,1,1,,,,,
,0.48,,,,,,,,,k,purple,6101599f715789af3c45bb5c,2021-11-03_11h28.07.266,forced_choiceRT_color,2021.2.3,Win32,59.87665409,,,,,,,,4,Ontime,long,k,1,2.0624,6,1,25,3,1,,,,,
,1.94,,,,,,,,,j,red,6101599f715789af3c45bb5c,2021-11-03_11h28.07.266,forced_choiceRT_color,2021.2.3,Win32,59.87665409,,,,,,,,4,Slow,long,j,1,2.6479,6,2,26,2,1,,,,,
,0.79,,,,,,,,,j,red,6101599f715789af3c45bb5c,2021-11-03_11h28.07.266,forced_choiceRT_color,2021.2.3,Win32,59.87665409,,,,,,,,4,Ontime,long,j,1,2.0794,6,3,27,2,1,,,,,
,0.72,,,,,,,,,j,red,6101599f715789af3c45bb5c,2021-11-03_11h28.07.266,forced_choiceRT_color,2021.2.3,Win32,59.87665409,,,,,,,,4,Fast,long,j,1,1.8722,7,0,28,2,1,,,,,
,0.41,,,,,,,,,k,purple,6101599f715789af3c45bb5c,2021-11-03_11h28.07.266,forced_choiceRT_color,2021.2.3,Win32,59.87665409,,,,,,,,4,Ontime,long,k,1,2.0512,7,1,29,3,1,,,,,
,1.39,,,,,,,,,j,red,6101599f715789af3c45bb5c,2021-11-03_11h28.07.266,forced_choiceRT_color,2021.2.3,Win32,59.87665409,,,,,,,,4,Ontime,long,j,1,1.973,7,2,30,2,1,,,,,
,0.81,,,,,,,,,f,blue,6101599f715789af3c45bb5c,2021-11-03_11h28.07.266,forced_choiceRT_color,2021.2.3,Win32,59.87665409,,,,,,,,4,Ontime,long,f,1,2.0973,7,3,31,1,1,,,,,
,0.28,,,,,,,,,f,blue,6101599f715789af3c45bb5c,2021-11-03_11h28.07.266,forced_choiceRT_color,2021.2.3,Win32,59.87665409,,,,,,,,4,Ontime,long,f,1,1.9885,8,0,32,1,1,,,,,
,0.62,,,,,,,,,f,blue,6101599f715789af3c45bb5c,2021-11-03_11h28.07.266,forced_choiceRT_color,2021.2.3,Win32,59.87665409,,,,,,,,4,Ontime,long,f,1,1.9139,8,1,33,1,1,,,,,
,0.77,,,,,,,,,k,purple,6101599f715789af3c45bb5c,2021-11-03_11h28.07.266,forced_choiceRT_color,2021.2.3,Win32,59.87665409,,,,,,,,4,Slow,long,k,1,2.1024,8,2,34,3,1,,,,,
,0,,,,,,,,,f,blue,6101599f715789af3c45bb5c,2021-11-03_11h28.07.266,forced_choiceRT_color,2021.2.3,Win32,59.87665409,,,,,,,,4,Ontime,long,f,1,2.0294,8,3,35,1,1,,,,,
,0.3,,,,,,,,,j,red,6101599f715789af3c45bb5c,2021-11-03_11h28.07.266,forced_choiceRT_color,2021.2.3,Win32,59.87665409,,,,,,,,4,Ontime,long,j,1,2.0226,9,0,36,2,1,,,,,
,1.72,,,,,,,,,k,purple,6101599f715789af3c45bb5c,2021-11-03_11h28.07.266,forced_choiceRT_color,2021.2.3,Win32,59.87665409,,,,,,,,4,Slow,long,k,1,2.368,9,1,37,3,1,,,,,
,0.5,,,,,,,,,k,purple,6101599f715789af3c45bb5c,2021-11-03_11h28.07.266,forced_choiceRT_color,2021.2.3,Win32,59.87665409,,,,,,,,4,Slow,long,k,1,6.9847,9,2,38,3,1,,,,,
,1.97,,,,,,,,,d,orange,6101599f715789af3c45bb5c,2021-11-03_11h28.07.266,forced_choiceRT_color,2021.2.3,Win32,59.87665409,,,,,,,,4,Slow,long,d,1,2.8782,9,3,39,0,1,,,,,
,,,,,,,,,,,,6101599f715789af3c45bb5c,2021-11-03_11h28.07.266,forced_choiceRT_color,2021.2.3,Win32,59.87665409,,,,,,,,,,,,,,,,,,,3,0,3,0,1
,0.29,,,,,,,,,d,orange,6101599f715789af3c45bb5c,2021-11-03_11h28.07.266,forced_choiceRT_color,2021.2.3,Win32,59.87665409,,,,,,,,5,Slow,long,d,1,2.101,0,0,0,0,1,,,,,
,0.24,,,,,,,,,d,orange,6101599f715789af3c45bb5c,2021-11-03_11h28.07.266,forced_choiceRT_color,2021.2.3,Win32,59.87665409,,,,,,,,5,Ontime,long,d,1,2.0181,0,1,1,0,1,,,,,
,0.79,,,,,,,,,f,blue,6101599f715789af3c45bb5c,2021-11-03_11h28.07.266,forced_choiceRT_color,2021.2.3,Win32,59.87665409,,,,,,,,5,Ontime,long,f,1,2.0899,0,2,2,1,1,,,,,
,0.68,,,,,,,,,j,red,6101599f715789af3c45bb5c,2021-11-03_11h28.07.266,forced_choiceRT_color,2021.2.3,Win32,59.87665409,,,,,,,,5,Ontime,long,j,1,2.0336,0,3,3,2,1,,,,,
,1.69,,,,,,,,,k,purple,6101599f715789af3c45bb5c,2021-11-03_11h28.07.266,forced_choiceRT_color,2021.2.3,Win32,59.87665409,,,,,,,,5,Slow,long,k,1,2.3511,1,0,4,3,1,,,,,
,1.84,,,,,,,,,k,purple,6101599f715789af3c45bb5c,2021-11-03_11h28.07.266,forced_choiceRT_color,2021.2.3,Win32,59.87665409,,,,,,,,5,Slow,long,k,1,2.3744,1,1,5,3,1,,,,,
,0.39,,,,,,,,,j,red,6101599f715789af3c45bb5c,2021-11-03_11h28.07.266,forced_choiceRT_color,2021.2.3,Win32,59.87665409,,,,,,,,5,Slow,long,j,1,2.1347,1,2,6,2,1,,,,,
,0.73,,,,,,,,,j,red,6101599f715789af3c45bb5c,2021-11-03_11h28.07.266,forced_choiceRT_color,2021.2.3,Win32,59.87665409,,,,,,,,5,Ontime,long,j,1,2.0299,1,3,7,2,1,,,,,
,0.82,,,,,,,,,f,blue,6101599f715789af3c45bb5c,2021-11-03_11h28.07.266,forced_choiceRT_color,2021.2.3,Win32,59.87665409,,,,,,,,5,Ontime,long,f,1,2.0787,2,0,8,1,1,,,,,
,0.14,,,,,,,,,f,blue,6101599f715789af3c45bb5c,2021-11-03_11h28.07.266,forced_choiceRT_color,2021.2.3,Win32,59.87665409,,,,,,,,5,Ontime,long,f,1,2.0103,2,1,9,1,1,,,,,
,0.31,,,,,,,,,d,orange,6101599f715789af3c45bb5c,2021-11-03_11h28.07.266,forced_choiceRT_color,2021.2.3,Win32,59.87665409,,,,,,,,5,Ontime,long,d,1,1.9054,2,2,10,0,1,,,,,
,0.27,,,,,,,,,f,blue,6101599f715789af3c45bb5c,2021-11-03_11h28.07.266,forced_choiceRT_color,2021.2.3,Win32,59.87665409,,,,,,,,5,Ontime,long,f,1,2.0641,2,3,11,1,1,,,,,
,1.18,,,,,,,,,k,purple,6101599f715789af3c45bb5c,2021-11-03_11h28.07.266,forced_choiceRT_color,2021.2.3,Win32,59.87665409,,,,,,,,5,Ontime,long,k,1,2.058,3,0,12,3,1,,,,,
,1.77,,,,,,,,,f,blue,6101599f715789af3c45bb5c,2021-11-03_11h28.07.266,forced_choiceRT_color,2021.2.3,Win32,59.87665409,,,,,,,,5,Slow,long,k,0,2.4144,3,1,13,1,1,,,,,
,0.38,,,,,,,,,f,blue,6101599f715789af3c45bb5c,2021-11-03_11h28.07.266,forced_choiceRT_color,2021.2.3,Win32,59.87665409,,,,,,,,5,Ontime,long,f,1,2.0917,3,2,14,1,1,,,,,
,0.41,,,,,,,,,d,orange,6101599f715789af3c45bb5c,2021-11-03_11h28.07.266,forced_choiceRT_color,2021.2.3,Win32,59.87665409,,,,,,,,5,Ontime,long,d,1,1.9311,3,3,15,0,1,,,,,
,0.84,,,,,,,,,f,blue,6101599f715789af3c45bb5c,2021-11-03_11h28.07.266,forced_choiceRT_color,2021.2.3,Win32,59.87665409,,,,,,,,5,Ontime,long,f,1,2.0339,4,0,16,1,1,,,,,
,0.46,,,,,,,,,f,blue,6101599f715789af3c45bb5c,2021-11-03_11h28.07.266,forced_choiceRT_color,2021.2.3,Win32,59.87665409,,,,,,,,5,Ontime,long,f,1,1.9686,4,1,17,1,1,,,,,
,1.99,,,,,,,,,k,purple,6101599f715789af3c45bb5c,2021-11-03_11h28.07.266,forced_choiceRT_color,2021.2.3,Win32,59.87665409,,,,,,,,5,Slow,long,k,1,2.7185,4,2,18,3,1,,,,,
,1.53,,,,,,,,,d,orange,6101599f715789af3c45bb5c,2021-11-03_11h28.07.266,forced_choiceRT_color,2021.2.3,Win32,59.87665409,,,,,,,,5,Slow,long,d,1,3.0648,4,3,19,0,1,,,,,
,1.29,,,,,,,,,j,red,6101599f715789af3c45bb5c,2021-11-03_11h28.07.266,forced_choiceRT_color,2021.2.3,Win32,59.87665409,,,,,,,,5,Ontime,long,j,1,2.0318,5,0,20,2,1,,,,,
,0.33,,,,,,,,,k,purple,6101599f715789af3c45bb5c,2021-11-03_11h28.07.266,forced_choiceRT_color,2021.2.3,Win32,59.87665409,,,,,,,,5,Ontime,long,k,1,2.0734,5,1,21,3,1,,,,,
,1.59,,,,,,,,,d,orange,6101599f715789af3c45bb5c,2021-11-03_11h28.07.266,forced_choiceRT_color,2021.2.3,Win32,59.87665409,,,,,,,,5,Slow,long,d,1,2.4261,5,2,22,0,1,,,,,
,0.98,,,,,,,,,j,red,6101599f715789af3c45bb5c,2021-11-03_11h28.07.266,forced_choiceRT_color,2021.2.3,Win32,59.87665409,,,,,,,,5,Ontime,long,j,1,2.095,5,3,23,2,1,,,,,
,0.71,,,,,,,,,k,purple,6101599f715789af3c45bb5c,2021-11-03_11h28.07.266,forced_choiceRT_color,2021.2.3,Win32,59.87665409,,,,,,,,5,Ontime,long,k,1,1.9475,6,0,24,3,1,,,,,
,0.95,,,,,,,,,j,red,6101599f715789af3c45bb5c,2021-11-03_11h28.07.266,forced_choiceRT_color,2021.2.3,Win32,59.87665409,,,,,,,,5,Ontime,long,j,1,1.9652,6,1,25,2,1,,,,,
,0.77,,,,,,,,,j,red,6101599f715789af3c45bb5c,2021-11-03_11h28.07.266,forced_choiceRT_color,2021.2.3,Win32,59.87665409,,,,,,,,5,Ontime,long,j,1,1.9735,6,2,26,2,1,,,,,
,0.15,,,,,,,,,d,orange,6101599f715789af3c45bb5c,2021-11-03_11h28.07.266,forced_choiceRT_color,2021.2.3,Win32,59.87665409,,,,,,,,5,Ontime,long,d,1,1.9791,6,3,27,0,1,,,,,
,0.02,,,,,,,,,k,purple,6101599f715789af3c45bb5c,2021-11-03_11h28.07.266,forced_choiceRT_color,2021.2.3,Win32,59.87665409,,,,,,,,5,Fast,long,k,1,1.8373,7,0,28,3,1,,,,,
,1.73,,,,,,,,,k,purple,6101599f715789af3c45bb5c,2021-11-03_11h28.07.266,forced_choiceRT_color,2021.2.3,Win32,59.87665409,,,,,,,,5,Slow,long,k,1,2.2978,7,1,29,3,1,,,,,
,1.29,,,,,,,,,k,purple,6101599f715789af3c45bb5c,2021-11-03_11h28.07.266,forced_choiceRT_color,2021.2.3,Win32,59.87665409,,,,,,,,5,Ontime,long,k,1,1.9467,7,2,30,3,1,,,,,
,0.33,,,,,,,,,d,orange,6101599f715789af3c45bb5c,2021-11-03_11h28.07.266,forced_choiceRT_color,2021.2.3,Win32,59.87665409,,,,,,,,5,Ontime,long,d,1,2.0703,7,3,31,0,1,,,,,
,0.07,,,,,,,,,d,orange,6101599f715789af3c45bb5c,2021-11-03_11h28.07.266,forced_choiceRT_color,2021.2.3,Win32,59.87665409,,,,,,,,5,Ontime,long,d,1,2.0372,8,0,32,0,1,,,,,
,1.31,,,,,,,,,f,blue,6101599f715789af3c45bb5c,2021-11-03_11h28.07.266,forced_choiceRT_color,2021.2.3,Win32,59.87665409,,,,,,,,5,Ontime,long,f,1,2.0376,8,1,33,1,1,,,,,
,0.88,,,,,,,,,j,red,6101599f715789af3c45bb5c,2021-11-03_11h28.07.266,forced_choiceRT_color,2021.2.3,Win32,59.87665409,,,,,,,,5,Slow,long,j,1,2.1359,8,2,34,2,1,,,,,
,1.35,,,,,,,,,f,blue,6101599f715789af3c45bb5c,2021-11-03_11h28.07.266,forced_choiceRT_color,2021.2.3,Win32,59.87665409,,,,,,,,5,Ontime,long,f,1,2.0791,8,3,35,1,1,,,,,
,0.76,,,,,,,,,j,red,6101599f715789af3c45bb5c,2021-11-03_11h28.07.266,forced_choiceRT_color,2021.2.3,Win32,59.87665409,,,,,,,,5,Ontime,long,k,0,2.0785,9,0,36,2,1,,,,,
,0.2,,,,,,,,,j,red,6101599f715789af3c45bb5c,2021-11-03_11h28.07.266,forced_choiceRT_color,2021.2.3,Win32,59.87665409,,,,,,,,5,Ontime,long,j,1,1.9887,9,1,37,2,1,,,,,
,0.83,,,,,,,,,k,purple,6101599f715789af3c45bb5c,2021-11-03_11h28.07.266,forced_choiceRT_color,2021.2.3,Win32,59.87665409,,,,,,,,5,Ontime,long,k,1,1.9891,9,2,38,3,1,,,,,
,0.89,,,,,,,,,d,orange,6101599f715789af3c45bb5c,2021-11-03_11h28.07.266,forced_choiceRT_color,2021.2.3,Win32,59.87665409,,,,,,,,5,Ontime,long,d,1,1.9973,9,3,39,0,1,,,,,
,,,,,,,,,,,,6101599f715789af3c45bb5c,2021-11-03_11h28.07.266,forced_choiceRT_color,2021.2.3,Win32,59.87665409,,,,,,,,,,,,,,,,,,,4,0,4,0,1
,0.71,,,,,,,,,k,purple,6101599f715789af3c45bb5c,2021-11-03_11h28.07.266,forced_choiceRT_color,2021.2.3,Win32,59.87665409,,,,,,,,6,Ontime,long,k,1,2.0154,0,0,0,3,1,,,,,
,0.1,,,,,,,,,j,red,6101599f715789af3c45bb5c,2021-11-03_11h28.07.266,forced_choiceRT_color,2021.2.3,Win32,59.87665409,,,,,,,,6,Ontime,long,j,1,2.0343,0,1,1,2,1,,,,,
,0.35,,,,,,,,,d,orange,6101599f715789af3c45bb5c,2021-11-03_11h28.07.266,forced_choiceRT_color,2021.2.3,Win32,59.87665409,,,,,,,,6,Slow,long,d,1,2.1062,0,2,2,0,1,,,,,
,0.01,,,,,,,,,d,orange,6101599f715789af3c45bb5c,2021-11-03_11h28.07.266,forced_choiceRT_color,2021.2.3,Win32,59.87665409,,,,,,,,6,Slow,long,d,1,2.1027,0,3,3,0,1,,,,,
,1.04,,,,,,,,,f,blue,6101599f715789af3c45bb5c,2021-11-03_11h28.07.266,forced_choiceRT_color,2021.2.3,Win32,59.87665409,,,,,,,,6,Ontime,long,f,1,1.9509,1,0,4,1,1,,,,,
,1.44,,,,,,,,,d,orange,6101599f715789af3c45bb5c,2021-11-03_11h28.07.266,forced_choiceRT_color,2021.2.3,Win32,59.87665409,,,,,,,,6,Slow,long,f,0,2.2471,1,1,5,0,1,,,,,
,0.98,,,,,,,,,d,orange,6101599f715789af3c45bb5c,2021-11-03_11h28.07.266,forced_choiceRT_color,2021.2.3,Win32,59.87665409,,,,,,,,6,Slow,long,d,1,2.2281,1,2,6,0,1,,,,,
,0.11,,,,,,,,,k,purple,6101599f715789af3c45bb5c,2021-11-03_11h28.07.266,forced_choiceRT_color,2021.2.3,Win32,59.87665409,,,,,,,,6,Ontime,long,k,1,2.0001,1,3,7,3,1,,,,,
,0.34,,,,,,,,,k,purple,6101599f715789af3c45bb5c,2021-11-03_11h28.07.266,forced_choiceRT_color,2021.2.3,Win32,59.87665409,,,,,,,,6,Fast,long,k,1,1.895,2,0,8,3,1,,,,,
,0.9,,,,,,,,,d,orange,6101599f715789af3c45bb5c,2021-11-03_11h28.07.266,forced_choiceRT_color,2021.2.3,Win32,59.87665409,,,,,,,,6,Ontime,long,d,1,2.0845,2,1,9,0,1,,,,,
,1.11,,,,,,,,,j,red,6101599f715789af3c45bb5c,2021-11-03_11h28.07.266,forced_choiceRT_color,2021.2.3,Win32,59.87665409,,,,,,,,6,Slow,long,j,1,2.156,2,2,10,2,1,,,,,
,1.13,,,,,,,,,k,purple,6101599f715789af3c45bb5c,2021-11-03_11h28.07.266,forced_choiceRT_color,2021.2.3,Win32,59.87665409,,,,,,,,6,Ontime,long,k,1,2.0415,2,3,11,3,1,,,,,
,0.03,,,,,,,,,j,red,6101599f715789af3c45bb5c,2021-11-03_11h28.07.266,forced_choiceRT_color,2021.2.3,Win32,59.87665409,,,,,,,,6,Ontime,long,j,1,2.0341,3,0,12,2,1,,,,,
,1.1,,,,,,,,,f,blue,6101599f715789af3c45bb5c,2021-11-03_11h28.07.266,forced_choiceRT_color,2021.2.3,Win32,59.87665409,,,,,,,,6,Slow,long,f,1,2.1327,3,1,13,1,1,,,,,
,1.4,,,,,,,,,f,blue,6101599f715789af3c45bb5c,2021-11-03_11h28.07.266,forced_choiceRT_color,2021.2.3,Win32,59.87665409,,,,,,,,6,Slow,long,f,1,2.1348,3,2,14,1,1,,,,,
,0.93,,,,,,,,,f,blue,6101599f715789af3c45bb5c,2021-11-03_11h28.07.266,forced_choiceRT_color,2021.2.3,Win32,59.87665409,,,,,,,,6,Ontime,long,f,1,1.982,3,3,15,1,1,,,,,
,0.64,,,,,,,,,d,orange,6101599f715789af3c45bb5c,2021-11-03_11h28.07.266,forced_choiceRT_color,2021.2.3,Win32,59.87665409,,,,,,,,6,Slow,long,d,1,2.1875,4,0,16,0,1,,,,,
,0.12,,,,,,,,,j,red,6101599f715789af3c45bb5c,2021-11-03_11h28.07.266,forced_choiceRT_color,2021.2.3,Win32,59.87665409,,,,,,,,6,Ontime,long,j,1,1.9013,4,1,17,2,1,,,,,
,1.83,,,,,,,,,k,purple,6101599f715789af3c45bb5c,2021-11-03_11h28.07.266,forced_choiceRT_color,2021.2.3,Win32,59.87665409,,,,,,,,6,Slow,long,k,1,2.651,4,2,18,3,1,,,,,
,0.8,,,,,,,,,f,blue,6101599f715789af3c45bb5c,2021-11-03_11h28.07.266,forced_choiceRT_color,2021.2.3,Win32,59.87665409,,,,,,,,6,Fast,long,f,1,1.8511,4,3,19,1,1,,,,,
,1.71,,,,,,,,,f,blue,6101599f715789af3c45bb5c,2021-11-03_11h28.07.266,forced_choiceRT_color,2021.2.3,Win32,59.87665409,,,,,,,,6,Slow,long,f,1,2.4815,5,0,20,1,1,,,,,
,0.53,,,,,,,,,j,red,6101599f715789af3c45bb5c,2021-11-03_11h28.07.266,forced_choiceRT_color,2021.2.3,Win32,59.87665409,,,,,,,,6,Slow,long,j,1,2.1137,5,1,21,2,1,,,,,
,1.04,,,,,,,,,k,purple,6101599f715789af3c45bb5c,2021-11-03_11h28.07.266,forced_choiceRT_color,2021.2.3,Win32,59.87665409,,,,,,,,6,Slow,long,k,1,2.1158,5,2,22,3,1,,,,,
,1.71,,,,,,,,,d,orange,6101599f715789af3c45bb5c,2021-11-03_11h28.07.266,forced_choiceRT_color,2021.2.3,Win32,59.87665409,,,,,,,,6,Slow,long,d,1,2.32,5,3,23,0,1,,,,,
,0.32,,,,,,,,,f,blue,6101599f715789af3c45bb5c,2021-11-03_11h28.07.266,forced_choiceRT_color,2021.2.3,Win32,59.87665409,,,,,,,,6,Ontime,long,f,1,2.037,6,0,24,1,1,,,,,
,1.01,,,,,,,,,k,purple,6101599f715789af3c45bb5c,2021-11-03_11h28.07.266,forced_choiceRT_color,2021.2.3,Win32,59.87665409,,,,,,,,6,Slow,long,k,1,2.2151,6,1,25,3,1,,,,,
,0.57,,,,,,,,,d,orange,6101599f715789af3c45bb5c,2021-11-03_11h28.07.266,forced_choiceRT_color,2021.2.3,Win32,59.87665409,,,,,,,,6,Ontime,long,d,1,2.0502,6,2,26,0,1,,,,,
,0.92,,,,,,,,,f,blue,6101599f715789af3c45bb5c,2021-11-03_11h28.07.266,forced_choiceRT_color,2021.2.3,Win32,59.87665409,,,,,,,,6,Slow,long,f,1,2.1507,6,3,27,1,1,,,,,
,0.5,,,,,,,,,k,purple,6101599f715789af3c45bb5c,2021-11-03_11h28.07.266,forced_choiceRT_color,2021.2.3,Win32,59.87665409,,,,,,,,6,Slow,long,k,1,2.118,7,0,28,3,1,,,,,
,1.87,,,,,,,,,k,purple,6101599f715789af3c45bb5c,2021-11-03_11h28.07.266,forced_choiceRT_color,2021.2.3,Win32,59.87665409,,,,,,,,6,Slow,long,k,1,2.5003,7,1,29,3,1,,,,,
,0.84,,,,,,,,,d,orange,6101599f715789af3c45bb5c,2021-11-03_11h28.07.266,forced_choiceRT_color,2021.2.3,Win32,59.87665409,,,,,,,,6,Slow,long,d,1,3.0314,7,2,30,0,1,,,,,
,0.98,,,,,,,,,f,blue,6101599f715789af3c45bb5c,2021-11-03_11h28.07.266,forced_choiceRT_color,2021.2.3,Win32,59.87665409,,,,,,,,6,Ontime,long,f,1,1.9557,7,3,31,1,1,,,,,
,1.03,,,,,,,,,f,blue,6101599f715789af3c45bb5c,2021-11-03_11h28.07.266,forced_choiceRT_color,2021.2.3,Win32,59.87665409,,,,,,,,6,Ontime,long,f,1,2.0482,8,0,32,1,1,,,,,
,0.24,,,,,,,,,j,red,6101599f715789af3c45bb5c,2021-11-03_11h28.07.266,forced_choiceRT_color,2021.2.3,Win32,59.87665409,,,,,,,,6,Slow,long,j,1,2.1139,8,1,33,2,1,,,,,
,1.04,,,,,,,,,j,red,6101599f715789af3c45bb5c,2021-11-03_11h28.07.266,forced_choiceRT_color,2021.2.3,Win32,59.87665409,,,,,,,,6,Fast,long,j,1,1.7761,8,2,34,2,1,,,,,
,0.66,,,,,,,,,k,purple,6101599f715789af3c45bb5c,2021-11-03_11h28.07.266,forced_choiceRT_color,2021.2.3,Win32,59.87665409,,,,,,,,6,Ontime,long,f,0,1.9971,8,3,35,3,1,,,,,
,0.02,,,,,,,,,j,red,6101599f715789af3c45bb5c,2021-11-03_11h28.07.266,forced_choiceRT_color,2021.2.3,Win32,59.87665409,,,,,,,,6,Ontime,long,j,1,1.9341,9,0,36,2,1,,,,,
,1.21,,,,,,,,,j,red,6101599f715789af3c45bb5c,2021-11-03_11h28.07.266,forced_choiceRT_color,2021.2.3,Win32,59.87665409,,,,,,,,6,Slow,long,j,1,2.1485,9,1,37,2,1,,,,,
,0.55,,,,,,,,,d,orange,6101599f715789af3c45bb5c,2021-11-03_11h28.07.266,forced_choiceRT_color,2021.2.3,Win32,59.87665409,,,,,,,,6,Fast,long,d,1,1.7977,9,2,38,0,1,,,,,
,1.31,,,,,,,,,j,red,6101599f715789af3c45bb5c,2021-11-03_11h28.07.266,forced_choiceRT_color,2021.2.3,Win32,59.87665409,,,,,,,,6,Ontime,long,j,1,2.0338,9,3,39,2,1,,,,,
,,,,,,,,,,,,6101599f715789af3c45bb5c,2021-11-03_11h28.07.266,forced_choiceRT_color,2021.2.3,Win32,59.87665409,,,,,,,,,,,,,,,,,,,5,0,5,0,1
,0.38,,,,,,,,,f,blue,6101599f715789af3c45bb5c,2021-11-03_11h28.07.266,forced_choiceRT_color,2021.2.3,Win32,59.87665409,,,,,,,,7,Ontime,long,f,1,2.0689,0,0,0,1,1,,,,,
,0.26,,,,,,,,,f,blue,6101599f715789af3c45bb5c,2021-11-03_11h28.07.266,forced_choiceRT_color,2021.2.3,Win32,59.87665409,,,,,,,,7,Ontime,long,f,1,2.0369,0,1,1,1,1,,,,,
,1.99,,,,,,,,,j,red,6101599f715789af3c45bb5c,2021-11-03_11h28.07.266,forced_choiceRT_color,2021.2.3,Win32,59.87665409,,,,,,,,7,Slow,long,j,1,2.6704,0,2,2,2,1,,,,,
,1.18,,,,,,,,,f,blue,6101599f715789af3c45bb5c,2021-11-03_11h28.07.266,forced_choiceRT_color,2021.2.3,Win32,59.87665409,,,,,,,,7,Ontime,long,f,1,1.9679,0,3,3,1,1,,,,,
,0.82,,,,,,,,,j,red,6101599f715789af3c45bb5c,2021-11-03_11h28.07.266,forced_choiceRT_color,2021.2.3,Win32,59.87665409,,,,,,,,7,Slow,long,j,1,2.1141,1,0,4,2,1,,,,,
,0.24,,,,,,,,,f,blue,6101599f715789af3c45bb5c,2021-11-03_11h28.07.266,forced_choiceRT_color,2021.2.3,Win32,59.87665409,,,,,,,,7,Fast,long,f,1,1.7501,1,1,5,1,1,,,,,
,1.21,,,,,,,,,k,purple,6101599f715789af3c45bb5c,2021-11-03_11h28.07.266,forced_choiceRT_color,2021.2.3,Win32,59.87665409,,,,,,,,7,Ontime,long,k,1,2.0639,1,2,6,3,1,,,,,
,0.36,,,,,,,,,j,red,6101599f715789af3c45bb5c,2021-11-03_11h28.07.266,forced_choiceRT_color,2021.2.3,Win32,59.87665409,,,,,,,,7,Ontime,long,j,1,1.9555,1,3,7,2,1,,,,,
,0.32,,,,,,,,,f,blue,6101599f715789af3c45bb5c,2021-11-03_11h28.07.266,forced_choiceRT_color,2021.2.3,Win32,59.87665409,,,,,,,,7,Ontime,long,f,1,1.9527,2,0,8,1,1,,,,,
,0.67,,,,,,,,,k,purple,6101599f715789af3c45bb5c,2021-11-03_11h28.07.266,forced_choiceRT_color,2021.2.3,Win32,59.87665409,,,,,,,,7,Fast,long,k,1,1.8549,2,1,9,3,1,,,,,
,1.11,,,,,,,,,d,orange,6101599f715789af3c45bb5c,2021-11-03_11h28.07.266,forced_choiceRT_color,2021.2.3,Win32,59.87665409,,,,,,,,7,Ontime,long,d,1,2.0708,2,2,10,0,1,,,,,
,1.03,,,,,,,,,k,purple,6101599f715789af3c45bb5c,2021-11-03_11h28.07.266,forced_choiceRT_color,2021.2.3,Win32,59.87665409,,,,,,,,7,Ontime,long,k,1,2.0419,2,3,11,3,1,,,,,
,0.45,,,,,,,,,k,purple,6101599f715789af3c45bb5c,2021-11-03_11h28.07.266,forced_choiceRT_color,2021.2.3,Win32,59.87665409,,,,,,,,7,Ontime,long,k,1,2.0177,3,0,12,3,1,,,,,
,1.43,,,,,,,,,d,orange,6101599f715789af3c45bb5c,2021-11-03_11h28.07.266,forced_choiceRT_color,2021.2.3,Win32,59.87665409,,,,,,,,7,Slow,long,d,1,2.1585,3,1,13,0,1,,,,,
,1.84,,,,,,,,,d,orange,6101599f715789af3c45bb5c,2021-11-03_11h28.07.266,forced_choiceRT_color,2021.2.3,Win32,59.87665409,,,,,,,,7,Slow,long,d,1,2.5256,3,2,14,0,1,,,,,
,0.36,,,,,,,,,k,purple,6101599f715789af3c45bb5c,2021-11-03_11h28.07.266,forced_choiceRT_color,2021.2.3,Win32,59.87665409,,,,,,,,7,Ontime,long,k,1,2.0677,3,3,15,3,1,,,,,
,1.1,,,,,,,,,j,red,6101599f715789af3c45bb5c,2021-11-03_11h28.07.266,forced_choiceRT_color,2021.2.3,Win32,59.87665409,,,,,,,,7,Slow,long,j,1,2.2711,4,0,16,2,1,,,,,
,1.78,,,,,,,,,k,purple,6101599f715789af3c45bb5c,2021-11-03_11h28.07.266,forced_choiceRT_color,2021.2.3,Win32,59.87665409,,,,,,,,7,Slow,long,k,1,2.5147,4,1,17,3,1,,,,,
,1.22,,,,,,,,,d,orange,6101599f715789af3c45bb5c,2021-11-03_11h28.07.266,forced_choiceRT_color,2021.2.3,Win32,59.87665409,,,,,,,,7,Ontime,long,d,1,2.0436,4,2,18,0,1,,,,,
,0.74,,,,,,,,,f,blue,6101599f715789af3c45bb5c,2021-11-03_11h28.07.266,forced_choiceRT_color,2021.2.3,Win32,59.87665409,,,,,,,,7,Slow,long,f,1,2.1478,4,3,19,1,1,,,,,
,1.95,,,,,,,,,j,red,6101599f715789af3c45bb5c,2021-11-03_11h28.07.266,forced_choiceRT_color,2021.2.3,Win32,59.87665409,,,,,,,,7,Slow,long,j,1,2.5626,5,0,20,2,1,,,,,
,1.58,,,,,,,,,j,red,6101599f715789af3c45bb5c,2021-11-03_11h28.07.266,forced_choiceRT_color,2021.2.3,Win32,59.87665409,,,,,,,,7,Slow,long,j,1,2.298,5,1,21,2,1,,,,,
,1.4,,,,,,,,,j,red,6101599f715789af3c45bb5c,2021-11-03_11h28.07.266,forced_choiceRT_color,2021.2.3,Win32,59.87665409,,,,,,,,7,Slow,long,j,1,2.1619,5,2,22,2,1,,,,,
,1.68,,,,,,,,,k,purple,6101599f715789af3c45bb5c,2021-11-03_11h28.07.266,forced_choiceRT_color,2021.2.3,Win32,59.87665409,,,,,,,,7,Slow,long,k,1,2.1967,5,3,23,3,1,,,,,
,1,,,,,,,,,k,purple,6101599f715789af3c45bb5c,2021-11-03_11h28.07.266,forced_choiceRT_color,2021.2.3,Win32,59.87665409,,,,,,,,7,Ontime,long,k,1,1.9479,6,0,24,3,1,,,,,
,1.62,,,,,,,,,f,blue,6101599f715789af3c45bb5c,2021-11-03_11h28.07.266,forced_choiceRT_color,2021.2.3,Win32,59.87665409,,,,,,,,7,Slow,long,f,1,2.3127,6,1,25,1,1,,,,,
,0.4,,,,,,,,,d,orange,6101599f715789af3c45bb5c,2021-11-03_11h28.07.266,forced_choiceRT_color,2021.2.3,Win32,59.87665409,,,,,,,,7,Ontime,long,d,1,1.9352,6,2,26,0,1,,,,,
,1.02,,,,,,,,,j,red,6101599f715789af3c45bb5c,2021-11-03_11h28.07.266,forced_choiceRT_color,2021.2.3,Win32,59.87665409,,,,,,,,7,Ontime,long,j,1,1.918,6,3,27,2,1,,,,,
,0.84,,,,,,,,,f,blue,6101599f715789af3c45bb5c,2021-11-03_11h28.07.266,forced_choiceRT_color,2021.2.3,Win32,59.87665409,,,,,,,,7,Fast,long,f,1,1.8041,7,0,28,1,1,,,,,
,1.34,,,,,,,,,k,purple,6101599f715789af3c45bb5c,2021-11-03_11h28.07.266,forced_choiceRT_color,2021.2.3,Win32,59.87665409,,,,,,,,7,Slow,long,k,1,2.1278,7,1,29,3,1,,,,,
,1.58,,,,,,,,,j,red,6101599f715789af3c45bb5c,2021-11-03_11h28.07.266,forced_choiceRT_color,2021.2.3,Win32,59.87665409,,,,,,,,7,Slow,long,j,1,2.1283,7,2,30,2,1,,,,,
,0.76,,,,,,,,,f,blue,6101599f715789af3c45bb5c,2021-11-03_11h28.07.266,forced_choiceRT_color,2021.2.3,Win32,59.87665409,,,,,,,,7,Fast,long,f,1,1.8831,7,3,31,1,1,,,,,
,0.46,,,,,,,,,d,orange,6101599f715789af3c45bb5c,2021-11-03_11h28.07.266,forced_choiceRT_color,2021.2.3,Win32,59.87665409,,,,,,,,7,Ontime,long,d,1,1.9316,8,0,32,0,1,,,,,
,0.11,,,,,,,,,d,orange,6101599f715789af3c45bb5c,2021-11-03_11h28.07.266,forced_choiceRT_color,2021.2.3,Win32,59.87665409,,,,,,,,7,Ontime,long,d,1,2.0177,8,1,33,0,1,,,,,
,0.86,,,,,,,,,d,orange,6101599f715789af3c45bb5c,2021-11-03_11h28.07.266,forced_choiceRT_color,2021.2.3,Win32,59.87665409,,,,,,,,7,Fast,long,d,1,1.8127,8,2,34,0,1,,,,,
,0.37,,,,,,,,,d,orange,6101599f715789af3c45bb5c,2021-11-03_11h28.07.266,forced_choiceRT_color,2021.2.3,Win32,59.87665409,,,,,,,,7,Fast,long,d,1,1.8067,8,3,35,0,1,,,,,
,0.05,,,,,,,,,d,orange,6101599f715789af3c45bb5c,2021-11-03_11h28.07.266,forced_choiceRT_color,2021.2.3,Win32,59.87665409,,,,,,,,7,Fast,long,d,1,1.8056,9,0,36,0,1,,,,,
,1.32,,,,,,,,,k,purple,6101599f715789af3c45bb5c,2021-11-03_11h28.07.266,forced_choiceRT_color,2021.2.3,Win32,59.87665409,,,,,,,,7,Slow,long,k,1,2.1519,9,1,37,3,1,,,,,
,1.45,,,,,,,,,j,red,6101599f715789af3c45bb5c,2021-11-03_11h28.07.266,forced_choiceRT_color,2021.2.3,Win32,59.87665409,,,,,,,,7,Slow,long,j,1,2.1591,9,2,38,2,1,,,,,
,1.3,,,,,,,,,f,blue,6101599f715789af3c45bb5c,2021-11-03_11h28.07.266,forced_choiceRT_color,2021.2.3,Win32,59.87665409,,,,,,,,7,Slow,long,f,1,2.1477,9,3,39,1,1,,,,,
,,,,,,,,,,,,6101599f715789af3c45bb5c,2021-11-03_11h28.07.266,forced_choiceRT_color,2021.2.3,Win32,59.87665409,,,,,,,,,,,,,,,,,,,6,0,6,0,1
,0.74,,,,,,,,,d,orange,6101599f715789af3c45bb5c,2021-11-03_11h28.07.266,forced_choiceRT_color,2021.2.3,Win32,59.87665409,,,,,,,,8,Fast,long,f,0,1.8263,0,0,0,0,1,,,,,
,0.51,,,,,,,,,k,purple,6101599f715789af3c45bb5c,2021-11-03_11h28.07.266,forced_choiceRT_color,2021.2.3,Win32,59.87665409,,,,,,,,8,Ontime,long,k,1,1.9915,0,1,1,3,1,,,,,
,0.79,,,,,,,,,f,blue,6101599f715789af3c45bb5c,2021-11-03_11h28.07.266,forced_choiceRT_color,2021.2.3,Win32,59.87665409,,,,,,,,8,Ontime,long,f,1,1.9652,0,2,2,1,1,,,,,
,0.95,,,,,,,,,j,red,6101599f715789af3c45bb5c,2021-11-03_11h28.07.266,forced_choiceRT_color,2021.2.3,Win32,59.87665409,,,,,,,,8,Fast,long,j,1,1.8225,0,3,3,2,1,,,,,
,1.67,,,,,,,,,d,orange,6101599f715789af3c45bb5c,2021-11-03_11h28.07.266,forced_choiceRT_color,2021.2.3,Win32,59.87665409,,,,,,,,8,Slow,long,d,1,2.4924,1,0,4,0,1,,,,,
,1.31,,,,,,,,,d,orange,6101599f715789af3c45bb5c,2021-11-03_11h28.07.266,forced_choiceRT_color,2021.2.3,Win32,59.87665409,,,,,,,,8,Ontime,long,d,1,1.9958,1,1,5,0,1,,,,,
,0.15,,,,,,,,,d,orange,6101599f715789af3c45bb5c,2021-11-03_11h28.07.266,forced_choiceRT_color,2021.2.3,Win32,59.87665409,,,,,,,,8,Fast,long,d,1,1.8687,1,2,6,0,1,,,,,
,1.33,,,,,,,,,k,purple,6101599f715789af3c45bb5c,2021-11-03_11h28.07.266,forced_choiceRT_color,2021.2.3,Win32,59.87665409,,,,,,,,8,Slow,long,k,1,2.1392,1,3,7,3,1,,,,,
,0.8,,,,,,,,,j,red,6101599f715789af3c45bb5c,2021-11-03_11h28.07.266,forced_choiceRT_color,2021.2.3,Win32,59.87665409,,,,,,,,8,Ontime,long,j,1,1.9134,2,0,8,2,1,,,,,
,0.43,,,,,,,,,f,blue,6101599f715789af3c45bb5c,2021-11-03_11h28.07.266,forced_choiceRT_color,2021.2.3,Win32,59.87665409,,,,,,,,8,Ontime,long,f,1,2.0958,2,1,9,1,1,,,,,
,0.36,,,,,,,,,k,purple,6101599f715789af3c45bb5c,2021-11-03_11h28.07.266,forced_choiceRT_color,2021.2.3,Win32,59.87665409,,,,,,,,8,Ontime,long,k,1,1.9615,2,2,10,3,1,,,,,
,1.12,,,,,,,,,d,orange,6101599f715789af3c45bb5c,2021-11-03_11h28.07.266,forced_choiceRT_color,2021.2.3,Win32,59.87665409,,,,,,,,8,Slow,long,d,1,2.1007,2,3,11,0,1,,,,,
,0.96,,,,,,,,,f,blue,6101599f715789af3c45bb5c,2021-11-03_11h28.07.266,forced_choiceRT_color,2021.2.3,Win32,59.87665409,,,,,,,,8,Slow,long,f,1,3.02,3,0,12,1,1,,,,,
,0.51,,,,,,,,,f,blue,6101599f715789af3c45bb5c,2021-11-03_11h28.07.266,forced_choiceRT_color,2021.2.3,Win32,59.87665409,,,,,,,,8,Ontime,long,f,1,2.0561,3,1,13,1,1,,,,,
,0.65,,,,,,,,,k,purple,6101599f715789af3c45bb5c,2021-11-03_11h28.07.266,forced_choiceRT_color,2021.2.3,Win32,59.87665409,,,,,,,,8,Ontime,long,k,1,2.0471,3,2,14,3,1,,,,,
,1.02,,,,,,,,,k,purple,6101599f715789af3c45bb5c,2021-11-03_11h28.07.266,forced_choiceRT_color,2021.2.3,Win32,59.87665409,,,,,,,,8,Ontime,long,k,1,1.9692,3,3,15,3,1,,,,,
,1.07,,,,,,,,,f,blue,6101599f715789af3c45bb5c,2021-11-03_11h28.07.266,forced_choiceRT_color,2021.2.3,Win32,59.87665409,,,,,,,,8,Slow,long,f,1,2.4045,4,0,16,1,1,,,,,
,1.27,,,,,,,,,d,orange,6101599f715789af3c45bb5c,2021-11-03_11h28.07.266,forced_choiceRT_color,2021.2.3,Win32,59.87665409,,,,,,,,8,Slow,long,j,0,2.1003,4,1,17,0,1,,,,,
,1.67,,,,,,,,,f,blue,6101599f715789af3c45bb5c,2021-11-03_11h28.07.266,forced_choiceRT_color,2021.2.3,Win32,59.87665409,,,,,,,,8,Slow,long,f,1,2.2875,4,2,18,1,1,,,,,
,0.57,,,,,,,,,j,red,6101599f715789af3c45bb5c,2021-11-03_11h28.07.266,forced_choiceRT_color,2021.2.3,Win32,59.87665409,,,,,,,,8,Ontime,long,j,1,1.906,4,3,19,2,1,,,,,
,0.91,,,,,,,,,j,red,6101599f715789af3c45bb5c,2021-11-03_11h28.07.266,forced_choiceRT_color,2021.2.3,Win32,59.87665409,,,,,,,,8,Ontime,long,j,1,1.9988,5,0,20,2,1,,,,,
,0.93,,,,,,,,,k,purple,6101599f715789af3c45bb5c,2021-11-03_11h28.07.266,forced_choiceRT_color,2021.2.3,Win32,59.87665409,,,,,,,,8,Ontime,long,k,1,2.0518,5,1,21,3,1,,,,,
,0.56,,,,,,,,,j,red,6101599f715789af3c45bb5c,2021-11-03_11h28.07.266,forced_choiceRT_color,2021.2.3,Win32,59.87665409,,,,,,,,8,Ontime,long,j,1,2.0155,5,2,22,2,1,,,,,
,0.89,,,,,,,,,f,blue,6101599f715789af3c45bb5c,2021-11-03_11h28.07.266,forced_choiceRT_color,2021.2.3,Win32,59.87665409,,,,,,,,8,Ontime,long,f,1,2.0175,5,3,23,1,1,,,,,
,0.84,,,,,,,,,k,purple,6101599f715789af3c45bb5c,2021-11-03_11h28.07.266,forced_choiceRT_color,2021.2.3,Win32,59.87665409,,,,,,,,8,Slow,long,k,1,2.1781,6,0,24,3,1,,,,,
,1.13,,,,,,,,,f,blue,6101599f715789af3c45bb5c,2021-11-03_11h28.07.266,forced_choiceRT_color,2021.2.3,Win32,59.87665409,,,,,,,,8,Slow,long,f,1,2.1831,6,1,25,1,1,,,,,
,0.45,,,,,,,,,j,red,6101599f715789af3c45bb5c,2021-11-03_11h28.07.266,forced_choiceRT_color,2021.2.3,Win32,59.87665409,,,,,,,,8,Ontime,long,j,1,1.9311,6,2,26,2,1,,,,,
,1.58,,,,,,,,,j,red,6101599f715789af3c45bb5c,2021-11-03_11h28.07.266,forced_choiceRT_color,2021.2.3,Win32,59.87665409,,,,,,,,8,Ontime,long,j,1,2.0604,6,3,27,2,1,,,,,
,0.89,,,,,,,,,k,purple,6101599f715789af3c45bb5c,2021-11-03_11h28.07.266,forced_choiceRT_color,2021.2.3,Win32,59.87665409,,,,,,,,8,Fast,long,k,1,1.8339,7,0,28,3,1,,,,,
,0.58,,,,,,,,,f,blue,6101599f715789af3c45bb5c,2021-11-03_11h28.07.266,forced_choiceRT_color,2021.2.3,Win32,59.87665409,,,,,,,,8,Ontime,long,f,1,1.9454,7,1,29,1,1,,,,,
,0.52,,,,,,,,,d,orange,6101599f715789af3c45bb5c,2021-11-03_11h28.07.266,forced_choiceRT_color,2021.2.3,Win32,59.87665409,,,,,,,,8,Slow,long,d,1,2.2452,7,2,30,0,1,,,,,
,0.15,,,,,,,,,f,blue,6101599f715789af3c45bb5c,2021-11-03_11h28.07.266,forced_choiceRT_color,2021.2.3,Win32,59.87665409,,,,,,,,8,Slow,long,f,1,2.483,7,3,31,1,1,,,,,
,0.28,,,,,,,,,k,purple,6101599f715789af3c45bb5c,2021-11-03_11h28.07.266,forced_choiceRT_color,2021.2.3,Win32,59.87665409,,,,,,,,8,Ontime,long,k,1,2.0677,8,0,32,3,1,,,,,
,0.78,,,,,,,,,j,red,6101599f715789af3c45bb5c,2021-11-03_11h28.07.266,forced_choiceRT_color,2021.2.3,Win32,59.87665409,,,,,,,,8,Ontime,long,j,1,1.9848,8,1,33,2,1,,,,,
,1.3,,,,,,,,,d,orange,6101599f715789af3c45bb5c,2021-11-03_11h28.07.266,forced_choiceRT_color,2021.2.3,Win32,59.87665409,,,,,,,,8,Slow,long,d,1,3.1994,8,2,34,0,1,,,,,
,1.67,,,,,,,,,d,orange,6101599f715789af3c45bb5c,2021-11-03_11h28.07.266,forced_choiceRT_color,2021.2.3,Win32,59.87665409,,,,,,,,8,Slow,long,d,1,2.2489,8,3,35,0,1,,,,,
,1.6,,,,,,,,,j,red,6101599f715789af3c45bb5c,2021-11-03_11h28.07.266,forced_choiceRT_color,2021.2.3,Win32,59.87665409,,,,,,,,8,Ontime,long,f,0,2.0813,9,0,36,2,1,,,,,
,0.24,,,,,,,,,j,red,6101599f715789af3c45bb5c,2021-11-03_11h28.07.266,forced_choiceRT_color,2021.2.3,Win32,59.87665409,,,,,,,,8,Ontime,long,j,1,1.9098,9,1,37,2,1,,,,,
,0.45,,,,,,,,,k,purple,6101599f715789af3c45bb5c,2021-11-03_11h28.07.266,forced_choiceRT_color,2021.2.3,Win32,59.87665409,,,,,,,,8,Fast,long,k,1,1.8472,9,2,38,3,1,,,,,
,0.97,,,,,,,,,d,orange,6101599f715789af3c45bb5c,2021-11-03_11h28.07.266,forced_choiceRT_color,2021.2.3,Win32,59.87665409,,,,,,,,8,Ontime,long,d,1,1.9345,9,3,39,0,1,,,,,
,,,,,,,,,,,,6101599f715789af3c45bb5c,2021-11-03_11h28.07.266,forced_choiceRT_color,2021.2.3,Win32,59.87665409,,,,,,,,,,,,,,,,,,,7,0,7,0,1
,1.43,,,,,,,,,f,blue,6101599f715789af3c45bb5c,2021-11-03_11h28.07.266,forced_choiceRT_color,2021.2.3,Win32,59.87665409,,,,,,,,9,Slow,long,f,1,3.3301,0,0,0,1,1,,,,,
,0.06,,,,,,,,,k,purple,6101599f715789af3c45bb5c,2021-11-03_11h28.07.266,forced_choiceRT_color,2021.2.3,Win32,59.87665409,,,,,,,,9,Ontime,long,k,1,2.0079,0,1,1,3,1,,,,,
,1.53,,,,,,,,,f,blue,6101599f715789af3c45bb5c,2021-11-03_11h28.07.266,forced_choiceRT_color,2021.2.3,Win32,59.87665409,,,,,,,,9,Ontime,long,f,1,2.0705,0,2,2,1,1,,,,,
,0.38,,,,,,,,,j,red,6101599f715789af3c45bb5c,2021-11-03_11h28.07.266,forced_choiceRT_color,2021.2.3,Win32,59.87665409,,,,,,,,9,Ontime,long,j,1,1.9194,0,3,3,2,1,,,,,
,0.32,,,,,,,,,d,orange,6101599f715789af3c45bb5c,2021-11-03_11h28.07.266,forced_choiceRT_color,2021.2.3,Win32,59.87665409,,,,,,,,9,Fast,long,d,1,1.7832,1,0,4,0,1,,,,,
,0.38,,,,,,,,,d,orange,6101599f715789af3c45bb5c,2021-11-03_11h28.07.266,forced_choiceRT_color,2021.2.3,Win32,59.87665409,,,,,,,,9,Fast,long,d,1,1.8916,1,1,5,0,1,,,,,
,1.01,,,,,,,,,d,orange,6101599f715789af3c45bb5c,2021-11-03_11h28.07.266,forced_choiceRT_color,2021.2.3,Win32,59.87665409,,,,,,,,9,Ontime,long,d,1,2.0637,1,2,6,0,1,,,,,
,0.23,,,,,,,,,d,orange,6101599f715789af3c45bb5c,2021-11-03_11h28.07.266,forced_choiceRT_color,2021.2.3,Win32,59.87665409,,,,,,,,9,Ontime,long,d,1,2.048,1,3,7,0,1,,,,,
,0.45,,,,,,,,,k,purple,6101599f715789af3c45bb5c,2021-11-03_11h28.07.266,forced_choiceRT_color,2021.2.3,Win32,59.87665409,,,,,,,,9,Slow,long,k,1,2.3674,2,0,8,3,1,,,,,
,0.96,,,,,,,,,k,purple,6101599f715789af3c45bb5c,2021-11-03_11h28.07.266,forced_choiceRT_color,2021.2.3,Win32,59.87665409,,,,,,,,9,Ontime,long,k,1,2.0642,2,1,9,3,1,,,,,
,0.92,,,,,,,,,d,orange,6101599f715789af3c45bb5c,2021-11-03_11h28.07.266,forced_choiceRT_color,2021.2.3,Win32,59.87665409,,,,,,,,9,Slow,long,f,0,2.1832,2,2,10,0,1,,,,,
,0.74,,,,,,,,,d,orange,6101599f715789af3c45bb5c,2021-11-03_11h28.07.266,forced_choiceRT_color,2021.2.3,Win32,59.87665409,,,,,,,,9,Ontime,long,d,1,1.9494,2,3,11,0,1,,,,,
,0.78,,,,,,,,,f,blue,6101599f715789af3c45bb5c,2021-11-03_11h28.07.266,forced_choiceRT_color,2021.2.3,Win32,59.87665409,,,,,,,,9,Ontime,long,f,1,2.0981,3,0,12,1,1,,,,,
,0.72,,,,,,,,,d,orange,6101599f715789af3c45bb5c,2021-11-03_11h28.07.266,forced_choiceRT_color,2021.2.3,Win32,59.87665409,,,,,,,,9,Ontime,long,d,1,1.9749,3,1,13,0,1,,,,,
,0.66,,,,,,,,,k,purple,6101599f715789af3c45bb5c,2021-11-03_11h28.07.266,forced_choiceRT_color,2021.2.3,Win32,59.87665409,,,,,,,,9,Ontime,long,k,1,1.9825,3,2,14,3,1,,,,,
,1.07,,,,,,,,,j,red,6101599f715789af3c45bb5c,2021-11-03_11h28.07.266,forced_choiceRT_color,2021.2.3,Win32,59.87665409,,,,,,,,9,Slow,long,j,1,2.1942,3,3,15,2,1,,,,,
,0.59,,,,,,,,,j,red,6101599f715789af3c45bb5c,2021-11-03_11h28.07.266,forced_choiceRT_color,2021.2.3,Win32,59.87665409,,,,,,,,9,Ontime,long,j,1,1.9726,4,0,16,2,1,,,,,
,1.66,,,,,,,,,d,orange,6101599f715789af3c45bb5c,2021-11-03_11h28.07.266,forced_choiceRT_color,2021.2.3,Win32,59.87665409,,,,,,,,9,Slow,long,d,1,2.2514,4,1,17,0,1,,,,,
,0.55,,,,,,,,,f,blue,6101599f715789af3c45bb5c,2021-11-03_11h28.07.266,forced_choiceRT_color,2021.2.3,Win32,59.87665409,,,,,,,,9,Slow,long,f,1,2.1137,4,2,18,1,1,,,,,
,1.47,,,,,,,,,k,purple,6101599f715789af3c45bb5c,2021-11-03_11h28.07.266,forced_choiceRT_color,2021.2.3,Win32,59.87665409,,,,,,,,9,Slow,long,k,1,2.1647,4,3,19,3,1,,,,,
,0.24,,,,,,,,,j,red,6101599f715789af3c45bb5c,2021-11-03_11h28.07.266,forced_choiceRT_color,2021.2.3,Win32,59.87665409,,,,,,,,9,Ontime,long,j,1,1.9802,5,0,20,2,1,,,,,
,1.6,,,,,,,,,f,blue,6101599f715789af3c45bb5c,2021-11-03_11h28.07.266,forced_choiceRT_color,2021.2.3,Win32,59.87665409,,,,,,,,9,Slow,long,f,1,2.3436,5,1,21,1,1,,,,,
,1.01,,,,,,,,,f,blue,6101599f715789af3c45bb5c,2021-11-03_11h28.07.266,forced_choiceRT_color,2021.2.3,Win32,59.87665409,,,,,,,,9,Ontime,long,f,1,2.0178,5,2,22,1,1,,,,,
,1,,,,,,,,,j,red,6101599f715789af3c45bb5c,2021-11-03_11h28.07.266,forced_choiceRT_color,2021.2.3,Win32,59.87665409,,,,,,,,9,Slow,long,j,1,2.1232,5,3,23,2,1,,,,,
,0.89,,,,,,,,,k,purple,6101599f715789af3c45bb5c,2021-11-03_11h28.07.266,forced_choiceRT_color,2021.2.3,Win32,59.87665409,,,,,,,,9,Ontime,long,k,1,2.0326,6,0,24,3,1,,,,,
,0.34,,,,,,,,,f,blue,6101599f715789af3c45bb5c,2021-11-03_11h28.07.266,forced_choiceRT_color,2021.2.3,Win32,59.87665409,,,,,,,,9,Ontime,long,f,1,1.9211,6,1,25,1,1,,,,,
,0.56,,,,,,,,,j,red,6101599f715789af3c45bb5c,2021-11-03_11h28.07.266,forced_choiceRT_color,2021.2.3,Win32,59.87665409,,,,,,,,9,Ontime,long,j,1,1.9611,6,2,26,2,1,,,,,
,1.94,,,,,,,,,j,red,6101599f715789af3c45bb5c,2021-11-03_11h28.07.266,forced_choiceRT_color,2021.2.3,Win32,59.87665409,,,,,,,,9,Slow,long,j,1,2.4814,6,3,27,2,1,,,,,
,0.78,,,,,,,,,d,orange,6101599f715789af3c45bb5c,2021-11-03_11h28.07.266,forced_choiceRT_color,2021.2.3,Win32,59.87665409,,,,,,,,9,Ontime,long,d,1,1.9527,7,0,28,0,1,,,,,
,0.76,,,,,,,,,f,blue,6101599f715789af3c45bb5c,2021-11-03_11h28.07.266,forced_choiceRT_color,2021.2.3,Win32,59.87665409,,,,,,,,9,Ontime,long,f,1,2.0483,7,1,29,1,1,,,,,
,0.97,,,,,,,,,k,purple,6101599f715789af3c45bb5c,2021-11-03_11h28.07.266,forced_choiceRT_color,2021.2.3,Win32,59.87665409,,,,,,,,9,Ontime,long,k,1,2.0803,7,2,30,3,1,,,,,
,0.83,,,,,,,,,j,red,6101599f715789af3c45bb5c,2021-11-03_11h28.07.266,forced_choiceRT_color,2021.2.3,Win32,59.87665409,,,,,,,,9,Ontime,long,j,1,1.9687,7,3,31,2,1,,,,,
,1.26,,,,,,,,,d,orange,6101599f715789af3c45bb5c,2021-11-03_11h28.07.266,forced_choiceRT_color,2021.2.3,Win32,59.87665409,,,,,,,,9,Ontime,long,d,1,2.0369,8,0,32,0,1,,,,,
,0.36,,,,,,,,,f,blue,6101599f715789af3c45bb5c,2021-11-03_11h28.07.266,forced_choiceRT_color,2021.2.3,Win32,59.87665409,,,,,,,,9,Ontime,long,f,1,1.9097,8,1,33,1,1,,,,,
,0.76,,,,,,,,,k,purple,6101599f715789af3c45bb5c,2021-11-03_11h28.07.266,forced_choiceRT_color,2021.2.3,Win32,59.87665409,,,,,,,,9,Ontime,long,k,1,2.0796,8,2,34,3,1,,,,,
,0.49,,,,,,,,,f,blue,6101599f715789af3c45bb5c,2021-11-03_11h28.07.266,forced_choiceRT_color,2021.2.3,Win32,59.87665409,,,,,,,,9,Fast,long,f,1,1.883,8,3,35,1,1,,,,,
,1.89,,,,,,,,,j,red,6101599f715789af3c45bb5c,2021-11-03_11h28.07.266,forced_choiceRT_color,2021.2.3,Win32,59.87665409,,,,,,,,9,Slow,long,j,1,2.2828,9,0,36,2,1,,,,,
,0.94,,,,,,,,,k,purple,6101599f715789af3c45bb5c,2021-11-03_11h28.07.266,forced_choiceRT_color,2021.2.3,Win32,59.87665409,,,,,,,,9,Slow,long,k,1,2.6218,9,1,37,3,1,,,,,
,1.99,,,,,,,,,j,red,6101599f715789af3c45bb5c,2021-11-03_11h28.07.266,forced_choiceRT_color,2021.2.3,Win32,59.87665409,,,,,,,,9,Slow,long,j,1,2.464,9,2,38,2,1,,,,,
,0.39,,,,,,,,,k,purple,6101599f715789af3c45bb5c,2021-11-03_11h28.07.266,forced_choiceRT_color,2021.2.3,Win32,59.87665409,,,,,,,,9,Ontime,long,k,1,2.0977,9,3,39,3,1,,,,,
,,,,,,,,,,,,6101599f715789af3c45bb5c,2021-11-03_11h28.07.266,forced_choiceRT_color,2021.2.3,Win32,59.87665409,,,,,,,,,,,,,,,,,,,8,0,8,0,1
,1.41,,,,,,,,,k,purple,6101599f715789af3c45bb5c,2021-11-03_11h28.07.266,forced_choiceRT_color,2021.2.3,Win32,59.87665409,,,,,,,,10,Slow,long,k,1,2.1798,0,0,0,3,1,,,,,
,1.66,,,,,,,,,f,blue,6101599f715789af3c45bb5c,2021-11-03_11h28.07.266,forced_choiceRT_color,2021.2.3,Win32,59.87665409,,,,,,,,10,Slow,long,f,1,2.3648,0,1,1,1,1,,,,,
,0.5,,,,,,,,,j,red,6101599f715789af3c45bb5c,2021-11-03_11h28.07.266,forced_choiceRT_color,2021.2.3,Win32,59.87665409,,,,,,,,10,Fast,long,j,1,1.8176,0,2,2,2,1,,,,,
,1.39,,,,,,,,,j,red,6101599f715789af3c45bb5c,2021-11-03_11h28.07.266,forced_choiceRT_color,2021.2.3,Win32,59.87665409,,,,,,,,10,Slow,long,j,1,2.1345,0,3,3,2,1,,,,,
,1.34,,,,,,,,,f,blue,6101599f715789af3c45bb5c,2021-11-03_11h28.07.266,forced_choiceRT_color,2021.2.3,Win32,59.87665409,,,,,,,,10,Slow,long,f,1,2.3642,1,0,4,1,1,,,,,
,0.66,,,,,,,,,j,red,6101599f715789af3c45bb5c,2021-11-03_11h28.07.266,forced_choiceRT_color,2021.2.3,Win32,59.87665409,,,,,,,,10,Fast,long,j,1,1.7978,1,1,5,2,1,,,,,
,0.26,,,,,,,,,j,red,6101599f715789af3c45bb5c,2021-11-03_11h28.07.266,forced_choiceRT_color,2021.2.3,Win32,59.87665409,,,,,,,,10,Fast,long,j,1,1.7905,1,2,6,2,1,,,,,
,1.57,,,,,,,,,f,blue,6101599f715789af3c45bb5c,2021-11-03_11h28.07.266,forced_choiceRT_color,2021.2.3,Win32,59.87665409,,,,,,,,10,Slow,long,f,1,2.2038,1,3,7,1,1,,,,,
,1.6,,,,,,,,,j,red,6101599f715789af3c45bb5c,2021-11-03_11h28.07.266,forced_choiceRT_color,2021.2.3,Win32,59.87665409,,,,,,,,10,Slow,long,j,1,2.1687,2,0,8,2,1,,,,,
,1.52,,,,,,,,,f,blue,6101599f715789af3c45bb5c,2021-11-03_11h28.07.266,forced_choiceRT_color,2021.2.3,Win32,59.87665409,,,,,,,,10,Slow,long,f,1,2.2475,2,1,9,1,1,,,,,
,0.94,,,,,,,,,d,orange,6101599f715789af3c45bb5c,2021-11-03_11h28.07.266,forced_choiceRT_color,2021.2.3,Win32,59.87665409,,,,,,,,10,Ontime,long,d,1,1.9809,2,2,10,0,1,,,,,
,0.29,,,,,,,,,d,orange,6101599f715789af3c45bb5c,2021-11-03_11h28.07.266,forced_choiceRT_color,2021.2.3,Win32,59.87665409,,,,,,,,10,Slow,long,d,1,2.1137,2,3,11,0,1,,,,,
,1.18,,,,,,,,,f,blue,6101599f715789af3c45bb5c,2021-11-03_11h28.07.266,forced_choiceRT_color,2021.2.3,Win32,59.87665409,,,,,,,,10,Slow,long,f,1,2.4174,3,0,12,1,1,,,,,
,0.61,,,,,,,,,k,purple,6101599f715789af3c45bb5c,2021-11-03_11h28.07.266,forced_choiceRT_color,2021.2.3,Win32,59.87665409,,,,,,,,10,Ontime,long,k,1,2.0966,3,1,13,3,1,,,,,
,1.79,,,,,,,,,d,orange,6101599f715789af3c45bb5c,2021-11-03_11h28.07.266,forced_choiceRT_color,2021.2.3,Win32,59.87665409,,,,,,,,10,Slow,long,f,0,2.4173,3,2,14,0,1,,,,,
,0.68,,,,,,,,,k,purple,6101599f715789af3c45bb5c,2021-11-03_11h28.07.266,forced_choiceRT_color,2021.2.3,Win32,59.87665409,,,,,,,,10,Ontime,long,k,1,1.9851,3,3,15,3,1,,,,,
,0.12,,,,,,,,,j,red,6101599f715789af3c45bb5c,2021-11-03_11h28.07.266,forced_choiceRT_color,2021.2.3,Win32,59.87665409,,,,,,,,10,Ontime,long,j,1,1.9825,4,0,16,2,1,,,,,
,1.5,,,,,,,,,f,blue,6101599f715789af3c45bb5c,2021-11-03_11h28.07.266,forced_choiceRT_color,2021.2.3,Win32,59.87665409,,,,,,,,10,Slow,long,f,1,2.1974,4,1,17,1,1,,,,,
,1.98,,,,,,,,,k,purple,6101599f715789af3c45bb5c,2021-11-03_11h28.07.266,forced_choiceRT_color,2021.2.3,Win32,59.87665409,,,,,,,,10,Slow,long,k,1,3.1992,4,2,18,3,1,,,,,
,0.16,,,,,,,,,d,orange,6101599f715789af3c45bb5c,2021-11-03_11h28.07.266,forced_choiceRT_color,2021.2.3,Win32,59.87665409,,,,,,,,10,Fast,long,d,1,1.7454,4,3,19,0,1,,,,,
,1.1,,,,,,,,,k,purple,6101599f715789af3c45bb5c,2021-11-03_11h28.07.266,forced_choiceRT_color,2021.2.3,Win32,59.87665409,,,,,,,,10,Slow,long,k,1,2.1478,5,0,20,3,1,,,,,
,0.69,,,,,,,,,j,red,6101599f715789af3c45bb5c,2021-11-03_11h28.07.266,forced_choiceRT_color,2021.2.3,Win32,59.87665409,,,,,,,,10,Ontime,long,j,1,1.9134,5,1,21,2,1,,,,,
,0.02,,,,,,,,,f,blue,6101599f715789af3c45bb5c,2021-11-03_11h28.07.266,forced_choiceRT_color,2021.2.3,Win32,59.87665409,,,,,,,,10,Slow,long,f,1,2.1814,5,2,22,1,1,,,,,
,1.74,,,,,,,,,d,orange,6101599f715789af3c45bb5c,2021-11-03_11h28.07.266,forced_choiceRT_color,2021.2.3,Win32,59.87665409,,,,,,,,10,Slow,long,d,1,2.5018,5,3,23,0,1,,,,,
,0.99,,,,,,,,,k,purple,6101599f715789af3c45bb5c,2021-11-03_11h28.07.266,forced_choiceRT_color,2021.2.3,Win32,59.87665409,,,,,,,,10,Ontime,long,k,1,2.0051,6,0,24,3,1,,,,,
,0.48,,,,,,,,,f,blue,6101599f715789af3c45bb5c,2021-11-03_11h28.07.266,forced_choiceRT_color,2021.2.3,Win32,59.87665409,,,,,,,,10,Slow,long,f,1,2.1243,6,1,25,1,1,,,,,
,0.95,,,,,,,,,k,purple,6101599f715789af3c45bb5c,2021-11-03_11h28.07.266,forced_choiceRT_color,2021.2.3,Win32,59.87665409,,,,,,,,10,Slow,long,k,1,2.1924,6,2,26,3,1,,,,,
,0.53,,,,,,,,,d,orange,6101599f715789af3c45bb5c,2021-11-03_11h28.07.266,forced_choiceRT_color,2021.2.3,Win32,59.87665409,,,,,,,,10,Ontime,long,d,1,2.08,6,3,27,0,1,,,,,
,0.04,,,,,,,,,d,orange,6101599f715789af3c45bb5c,2021-11-03_11h28.07.266,forced_choiceRT_color,2021.2.3,Win32,59.87665409,,,,,,,,10,Fast,long,d,1,1.6866,7,0,28,0,1,,,,,
,0.12,,,,,,,,,k,purple,6101599f715789af3c45bb5c,2021-11-03_11h28.07.266,forced_choiceRT_color,2021.2.3,Win32,59.87665409,,,,,,,,10,Fast,long,k,1,1.7818,7,1,29,3,1,,,,,
,0.14,,,,,,,,,d,orange,6101599f715789af3c45bb5c,2021-11-03_11h28.07.266,forced_choiceRT_color,2021.2.3,Win32,59.87665409,,,,,,,,10,Ontime,long,d,1,1.9557,7,2,30,0,1,,,,,
,0.27,,,,,,,,,j,red,6101599f715789af3c45bb5c,2021-11-03_11h28.07.266,forced_choiceRT_color,2021.2.3,Win32,59.87665409,,,,,,,,10,Ontime,long,j,1,1.9336,7,3,31,2,1,,,,,
,0.36,,,,,,,,,j,red,6101599f715789af3c45bb5c,2021-11-03_11h28.07.266,forced_choiceRT_color,2021.2.3,Win32,59.87665409,,,,,,,,10,Fast,long,j,1,1.898,8,0,32,2,1,,,,,
,1.61,,,,,,,,,k,purple,6101599f715789af3c45bb5c,2021-11-03_11h28.07.266,forced_choiceRT_color,2021.2.3,Win32,59.87665409,,,,,,,,10,Slow,long,k,1,2.2354,8,1,33,3,1,,,,,
,1.49,,,,,,,,,f,blue,6101599f715789af3c45bb5c,2021-11-03_11h28.07.266,forced_choiceRT_color,2021.2.3,Win32,59.87665409,,,,,,,,10,Slow,long,d,0,2.3062,8,2,34,1,1,,,,,
,0.48,,,,,,,,,k,purple,6101599f715789af3c45bb5c,2021-11-03_11h28.07.266,forced_choiceRT_color,2021.2.3,Win32,59.87665409,,,,,,,,10,Slow,long,k,1,2.2405,8,3,35,3,1,,,,,
,1.61,,,,,,,,,d,orange,6101599f715789af3c45bb5c,2021-11-03_11h28.07.266,forced_choiceRT_color,2021.2.3,Win32,59.87665409,,,,,,,,10,Slow,long,f,0,3.3173,9,0,36,0,1,,,,,
,1.05,,,,,,,,,f,blue,6101599f715789af3c45bb5c,2021-11-03_11h28.07.266,forced_choiceRT_color,2021.2.3,Win32,59.87665409,,,,,,,,10,Ontime,long,f,1,1.9472,9,1,37,1,1,,,,,
,0.62,,,,,,,,,d,orange,6101599f715789af3c45bb5c,2021-11-03_11h28.07.266,forced_choiceRT_color,2021.2.3,Win32,59.87665409,,,,,,,,10,Ontime,long,d,1,1.9879,9,2,38,0,1,,,,,
,0.5,,,,,,,,,j,red,6101599f715789af3c45bb5c,2021-11-03_11h28.07.266,forced_choiceRT_color,2021.2.3,Win32,59.87665409,,,,,,,,10,Slow,long,j,1,2.1684,9,3,39,2,1,,,,,
,,,,,,,,,,,,6101599f715789af3c45bb5c,2021-11-03_11h28.07.266,forced_choiceRT_color,2021.2.3,Win32,59.87665409,,,,,,,,,,,,,,,,,,,9,0,9,0,1
