IP_Addresss,target_onset,trial_resp_sp.keys,trial_resp_sp.corr,trial_resp_sp.rt,trials_train_loop.thisRepN,trials_train_loop.thisTrialN,trials_train_loop.thisN,trials_train_loop.thisIndex,trials_train_loop.ran,correct_key,color,participant,date,expName,psychopyVersion,OS,frameRate,trial_resp_timing.keys,trial_resp_timing.rt,trials_train_timing.thisRepN,trials_train_timing.thisTrialN,trials_train_timing.thisN,trials_train_timing.thisIndex,trials_train_timing.ran,block_id,ontime,feedback_cond,forcedRT_resp.keys,forcedRT_resp.corr,forcedRT_resp.rt,trials.thisRepN,trials.thisTrialN,trials.thisN,trials.thisIndex,trials.ran,blocks.thisRepN,blocks.thisTrialN,blocks.thisN,blocks.thisIndex,blocks.ran
98.171.32.93,0,f,1,4.585,0,0,0,1,1,f,blue,6102c81e911700cf7ba5f6bd,2021-09-27_15h49.59.924,forced_choiceRT_color,2021.2.3,Win32,21.45922747,,,,,,,,,,,,,,,,,,,,,,,
,0,d,1,1.005,0,1,1,0,1,d,orange,6102c81e911700cf7ba5f6bd,2021-09-27_15h49.59.924,forced_choiceRT_color,2021.2.3,Win32,21.45922747,,,,,,,,,,,,,,,,,,,,,,,
,0,f,1,1.06,0,2,2,1,1,f,blue,6102c81e911700cf7ba5f6bd,2021-09-27_15h49.59.924,forced_choiceRT_color,2021.2.3,Win32,21.45922747,,,,,,,,,,,,,,,,,,,,,,,
,0,k,0,1.148,0,3,3,2,1,j,red,6102c81e911700cf7ba5f6bd,2021-09-27_15h49.59.924,forced_choiceRT_color,2021.2.3,Win32,21.45922747,,,,,,,,,,,,,,,,,,,,,,,
,0,j,1,0.867,1,0,4,2,1,j,red,6102c81e911700cf7ba5f6bd,2021-09-27_15h49.59.924,forced_choiceRT_color,2021.2.3,Win32,21.45922747,,,,,,,,,,,,,,,,,,,,,,,
,0,k,1,0.773,1,1,5,3,1,k,purple,6102c81e911700cf7ba5f6bd,2021-09-27_15h49.59.924,forced_choiceRT_color,2021.2.3,Win32,21.45922747,,,,,,,,,,,,,,,,,,,,,,,
,0,k,1,0.854,1,2,6,3,1,k,purple,6102c81e911700cf7ba5f6bd,2021-09-27_15h49.59.924,forced_choiceRT_color,2021.2.3,Win32,21.45922747,,,,,,,,,,,,,,,,,,,,,,,
,0,k,1,0.765,1,3,7,3,1,k,purple,6102c81e911700cf7ba5f6bd,2021-09-27_15h49.59.924,forced_choiceRT_color,2021.2.3,Win32,21.45922747,,,,,,,,,,,,,,,,,,,,,,,
,0,k,0,0.711,2,0,8,1,1,f,blue,6102c81e911700cf7ba5f6bd,2021-09-27_15h49.59.924,forced_choiceRT_color,2021.2.3,Win32,21.45922747,,,,,,,,,,,,,,,,,,,,,,,
,0,k,1,1.002,2,1,9,3,1,k,purple,6102c81e911700cf7ba5f6bd,2021-09-27_15h49.59.924,forced_choiceRT_color,2021.2.3,Win32,21.45922747,,,,,,,,,,,,,,,,,,,,,,,
,0,j,1,0.578,2,2,10,2,1,j,red,6102c81e911700cf7ba5f6bd,2021-09-27_15h49.59.924,forced_choiceRT_color,2021.2.3,Win32,21.45922747,,,,,,,,,,,,,,,,,,,,,,,
,0,f,1,0.695,2,3,11,1,1,f,blue,6102c81e911700cf7ba5f6bd,2021-09-27_15h49.59.924,forced_choiceRT_color,2021.2.3,Win32,21.45922747,,,,,,,,,,,,,,,,,,,,,,,
,0,k,1,1.189,3,0,12,3,1,k,purple,6102c81e911700cf7ba5f6bd,2021-09-27_15h49.59.924,forced_choiceRT_color,2021.2.3,Win32,21.45922747,,,,,,,,,,,,,,,,,,,,,,,
,0,f,1,0.715,3,1,13,1,1,f,blue,6102c81e911700cf7ba5f6bd,2021-09-27_15h49.59.924,forced_choiceRT_color,2021.2.3,Win32,21.45922747,,,,,,,,,,,,,,,,,,,,,,,
,0,d,1,0.751,3,2,14,0,1,d,orange,6102c81e911700cf7ba5f6bd,2021-09-27_15h49.59.924,forced_choiceRT_color,2021.2.3,Win32,21.45922747,,,,,,,,,,,,,,,,,,,,,,,
,0,f,1,1.063,3,3,15,1,1,f,blue,6102c81e911700cf7ba5f6bd,2021-09-27_15h49.59.924,forced_choiceRT_color,2021.2.3,Win32,21.45922747,,,,,,,,,,,,,,,,,,,,,,,
,0,k,1,0.672,4,0,16,3,1,k,purple,6102c81e911700cf7ba5f6bd,2021-09-27_15h49.59.924,forced_choiceRT_color,2021.2.3,Win32,21.45922747,,,,,,,,,,,,,,,,,,,,,,,
,0,j,1,0.941,4,1,17,2,1,j,red,6102c81e911700cf7ba5f6bd,2021-09-27_15h49.59.924,forced_choiceRT_color,2021.2.3,Win32,21.45922747,,,,,,,,,,,,,,,,,,,,,,,
,0,f,0,1.165,4,2,18,0,1,d,orange,6102c81e911700cf7ba5f6bd,2021-09-27_15h49.59.924,forced_choiceRT_color,2021.2.3,Win32,21.45922747,,,,,,,,,,,,,,,,,,,,,,,
,0,j,1,0.782,4,3,19,2,1,j,red,6102c81e911700cf7ba5f6bd,2021-09-27_15h49.59.924,forced_choiceRT_color,2021.2.3,Win32,21.45922747,,,,,,,,,,,,,,,,,,,,,,,
,0,f,1,0.749,5,0,20,1,1,f,blue,6102c81e911700cf7ba5f6bd,2021-09-27_15h49.59.924,forced_choiceRT_color,2021.2.3,Win32,21.45922747,,,,,,,,,,,,,,,,,,,,,,,
,0,k,1,0.779,5,1,21,3,1,k,purple,6102c81e911700cf7ba5f6bd,2021-09-27_15h49.59.924,forced_choiceRT_color,2021.2.3,Win32,21.45922747,,,,,,,,,,,,,,,,,,,,,,,
,0,d,1,0.748,5,2,22,0,1,d,orange,6102c81e911700cf7ba5f6bd,2021-09-27_15h49.59.924,forced_choiceRT_color,2021.2.3,Win32,21.45922747,,,,,,,,,,,,,,,,,,,,,,,
,0,f,1,0.737,5,3,23,1,1,f,blue,6102c81e911700cf7ba5f6bd,2021-09-27_15h49.59.924,forced_choiceRT_color,2021.2.3,Win32,21.45922747,,,,,,,,,,,,,,,,,,,,,,,
,0,j,1,0.78,6,0,24,2,1,j,red,6102c81e911700cf7ba5f6bd,2021-09-27_15h49.59.924,forced_choiceRT_color,2021.2.3,Win32,21.45922747,,,,,,,,,,,,,,,,,,,,,,,
,0,d,1,0.838,6,1,25,0,1,d,orange,6102c81e911700cf7ba5f6bd,2021-09-27_15h49.59.924,forced_choiceRT_color,2021.2.3,Win32,21.45922747,,,,,,,,,,,,,,,,,,,,,,,
,0,k,0,0.828,6,2,26,2,1,j,red,6102c81e911700cf7ba5f6bd,2021-09-27_15h49.59.924,forced_choiceRT_color,2021.2.3,Win32,21.45922747,,,,,,,,,,,,,,,,,,,,,,,
,0,f,1,0.816,6,3,27,1,1,f,blue,6102c81e911700cf7ba5f6bd,2021-09-27_15h49.59.924,forced_choiceRT_color,2021.2.3,Win32,21.45922747,,,,,,,,,,,,,,,,,,,,,,,
,0,k,1,0.904,7,0,28,3,1,k,purple,6102c81e911700cf7ba5f6bd,2021-09-27_15h49.59.924,forced_choiceRT_color,2021.2.3,Win32,21.45922747,,,,,,,,,,,,,,,,,,,,,,,
,0,j,1,1.403,7,1,29,2,1,j,red,6102c81e911700cf7ba5f6bd,2021-09-27_15h49.59.924,forced_choiceRT_color,2021.2.3,Win32,21.45922747,,,,,,,,,,,,,,,,,,,,,,,
,0,k,1,0.772,7,2,30,3,1,k,purple,6102c81e911700cf7ba5f6bd,2021-09-27_15h49.59.924,forced_choiceRT_color,2021.2.3,Win32,21.45922747,,,,,,,,,,,,,,,,,,,,,,,
,0,j,1,0.897,7,3,31,2,1,j,red,6102c81e911700cf7ba5f6bd,2021-09-27_15h49.59.924,forced_choiceRT_color,2021.2.3,Win32,21.45922747,,,,,,,,,,,,,,,,,,,,,,,
,0,j,1,0.667,8,0,32,2,1,j,red,6102c81e911700cf7ba5f6bd,2021-09-27_15h49.59.924,forced_choiceRT_color,2021.2.3,Win32,21.45922747,,,,,,,,,,,,,,,,,,,,,,,
,0,f,1,1.096,8,1,33,1,1,f,blue,6102c81e911700cf7ba5f6bd,2021-09-27_15h49.59.924,forced_choiceRT_color,2021.2.3,Win32,21.45922747,,,,,,,,,,,,,,,,,,,,,,,
,0,d,1,0.792,8,2,34,0,1,d,orange,6102c81e911700cf7ba5f6bd,2021-09-27_15h49.59.924,forced_choiceRT_color,2021.2.3,Win32,21.45922747,,,,,,,,,,,,,,,,,,,,,,,
,0,d,1,0.883,8,3,35,0,1,d,orange,6102c81e911700cf7ba5f6bd,2021-09-27_15h49.59.924,forced_choiceRT_color,2021.2.3,Win32,21.45922747,,,,,,,,,,,,,,,,,,,,,,,
,0,f,1,0.772,9,0,36,1,1,f,blue,6102c81e911700cf7ba5f6bd,2021-09-27_15h49.59.924,forced_choiceRT_color,2021.2.3,Win32,21.45922747,,,,,,,,,,,,,,,,,,,,,,,
,0,d,1,0.76,9,1,37,0,1,d,orange,6102c81e911700cf7ba5f6bd,2021-09-27_15h49.59.924,forced_choiceRT_color,2021.2.3,Win32,21.45922747,,,,,,,,,,,,,,,,,,,,,,,
,0,d,1,0.818,9,2,38,0,1,d,orange,6102c81e911700cf7ba5f6bd,2021-09-27_15h49.59.924,forced_choiceRT_color,2021.2.3,Win32,21.45922747,,,,,,,,,,,,,,,,,,,,,,,
,0,j,1,0.945,9,3,39,2,1,j,red,6102c81e911700cf7ba5f6bd,2021-09-27_15h49.59.924,forced_choiceRT_color,2021.2.3,Win32,21.45922747,,,,,,,,,,,,,,,,,,,,,,,
,0,d,1,0.905,10,0,40,0,1,d,orange,6102c81e911700cf7ba5f6bd,2021-09-27_15h49.59.924,forced_choiceRT_color,2021.2.3,Win32,21.45922747,,,,,,,,,,,,,,,,,,,,,,,
,0,d,1,0.661,10,1,41,0,1,d,orange,6102c81e911700cf7ba5f6bd,2021-09-27_15h49.59.924,forced_choiceRT_color,2021.2.3,Win32,21.45922747,,,,,,,,,,,,,,,,,,,,,,,
,0,k,1,1.032,10,2,42,3,1,k,purple,6102c81e911700cf7ba5f6bd,2021-09-27_15h49.59.924,forced_choiceRT_color,2021.2.3,Win32,21.45922747,,,,,,,,,,,,,,,,,,,,,,,
,0,k,1,0.602,10,3,43,3,1,k,purple,6102c81e911700cf7ba5f6bd,2021-09-27_15h49.59.924,forced_choiceRT_color,2021.2.3,Win32,21.45922747,,,,,,,,,,,,,,,,,,,,,,,
,0,j,0,0.538,11,0,44,1,1,f,blue,6102c81e911700cf7ba5f6bd,2021-09-27_15h49.59.924,forced_choiceRT_color,2021.2.3,Win32,21.45922747,,,,,,,,,,,,,,,,,,,,,,,
,0,d,1,0.742,11,1,45,0,1,d,orange,6102c81e911700cf7ba5f6bd,2021-09-27_15h49.59.924,forced_choiceRT_color,2021.2.3,Win32,21.45922747,,,,,,,,,,,,,,,,,,,,,,,
,0,k,0,0.848,11,2,46,1,1,f,blue,6102c81e911700cf7ba5f6bd,2021-09-27_15h49.59.924,forced_choiceRT_color,2021.2.3,Win32,21.45922747,,,,,,,,,,,,,,,,,,,,,,,
,0,j,1,0.736,11,3,47,2,1,j,red,6102c81e911700cf7ba5f6bd,2021-09-27_15h49.59.924,forced_choiceRT_color,2021.2.3,Win32,21.45922747,,,,,,,,,,,,,,,,,,,,,,,
,0,k,1,0.84,12,0,48,3,1,k,purple,6102c81e911700cf7ba5f6bd,2021-09-27_15h49.59.924,forced_choiceRT_color,2021.2.3,Win32,21.45922747,,,,,,,,,,,,,,,,,,,,,,,
,0,f,0,0.798,12,1,49,2,1,j,red,6102c81e911700cf7ba5f6bd,2021-09-27_15h49.59.924,forced_choiceRT_color,2021.2.3,Win32,21.45922747,,,,,,,,,,,,,,,,,,,,,,,
,0,f,1,1.239,12,2,50,1,1,f,blue,6102c81e911700cf7ba5f6bd,2021-09-27_15h49.59.924,forced_choiceRT_color,2021.2.3,Win32,21.45922747,,,,,,,,,,,,,,,,,,,,,,,
,0,k,1,0.84,12,3,51,3,1,k,purple,6102c81e911700cf7ba5f6bd,2021-09-27_15h49.59.924,forced_choiceRT_color,2021.2.3,Win32,21.45922747,,,,,,,,,,,,,,,,,,,,,,,
,0,d,0,0.799,13,0,52,2,1,j,red,6102c81e911700cf7ba5f6bd,2021-09-27_15h49.59.924,forced_choiceRT_color,2021.2.3,Win32,21.45922747,,,,,,,,,,,,,,,,,,,,,,,
,0,k,1,1.402,13,1,53,3,1,k,purple,6102c81e911700cf7ba5f6bd,2021-09-27_15h49.59.924,forced_choiceRT_color,2021.2.3,Win32,21.45922747,,,,,,,,,,,,,,,,,,,,,,,
,0,d,1,0.719,13,2,54,0,1,d,orange,6102c81e911700cf7ba5f6bd,2021-09-27_15h49.59.924,forced_choiceRT_color,2021.2.3,Win32,21.45922747,,,,,,,,,,,,,,,,,,,,,,,
,0,k,1,0.936,13,3,55,3,1,k,purple,6102c81e911700cf7ba5f6bd,2021-09-27_15h49.59.924,forced_choiceRT_color,2021.2.3,Win32,21.45922747,,,,,,,,,,,,,,,,,,,,,,,
,0,f,1,0.972,14,0,56,1,1,f,blue,6102c81e911700cf7ba5f6bd,2021-09-27_15h49.59.924,forced_choiceRT_color,2021.2.3,Win32,21.45922747,,,,,,,,,,,,,,,,,,,,,,,
,0,j,1,1.036,14,1,57,2,1,j,red,6102c81e911700cf7ba5f6bd,2021-09-27_15h49.59.924,forced_choiceRT_color,2021.2.3,Win32,21.45922747,,,,,,,,,,,,,,,,,,,,,,,
,0,d,1,0.868,14,2,58,0,1,d,orange,6102c81e911700cf7ba5f6bd,2021-09-27_15h49.59.924,forced_choiceRT_color,2021.2.3,Win32,21.45922747,,,,,,,,,,,,,,,,,,,,,,,
,0,d,1,1.727,14,3,59,0,1,d,orange,6102c81e911700cf7ba5f6bd,2021-09-27_15h49.59.924,forced_choiceRT_color,2021.2.3,Win32,21.45922747,,,,,,,,,,,,,,,,,,,,,,,
,,,,,,,,,,,,6102c81e911700cf7ba5f6bd,2021-09-27_15h49.59.924,forced_choiceRT_color,2021.2.3,Win32,21.45922747,d,2.27,0,0,0,0,1,,,,,,,,,,,,,,,,
,,,,,,,,,,,,6102c81e911700cf7ba5f6bd,2021-09-27_15h49.59.924,forced_choiceRT_color,2021.2.3,Win32,21.45922747,f,1.814,1,0,1,0,1,,,,,,,,,,,,,,,,
,,,,,,,,,,,,6102c81e911700cf7ba5f6bd,2021-09-27_15h49.59.924,forced_choiceRT_color,2021.2.3,Win32,21.45922747,f,1.857,2,0,2,0,1,,,,,,,,,,,,,,,,
,,,,,,,,,,,,6102c81e911700cf7ba5f6bd,2021-09-27_15h49.59.924,forced_choiceRT_color,2021.2.3,Win32,21.45922747,d,1.805,3,0,3,0,1,,,,,,,,,,,,,,,,
,,,,,,,,,,,,6102c81e911700cf7ba5f6bd,2021-09-27_15h49.59.924,forced_choiceRT_color,2021.2.3,Win32,21.45922747,f,1.758,4,0,4,0,1,,,,,,,,,,,,,,,,
,,,,,,,,,,,,6102c81e911700cf7ba5f6bd,2021-09-27_15h49.59.924,forced_choiceRT_color,2021.2.3,Win32,21.45922747,f,2.081,5,0,5,0,1,,,,,,,,,,,,,,,,
,,,,,,,,,,,,6102c81e911700cf7ba5f6bd,2021-09-27_15h49.59.924,forced_choiceRT_color,2021.2.3,Win32,21.45922747,f,1.998,6,0,6,0,1,,,,,,,,,,,,,,,,
,,,,,,,,,,,,6102c81e911700cf7ba5f6bd,2021-09-27_15h49.59.924,forced_choiceRT_color,2021.2.3,Win32,21.45922747,f,1.932,7,0,7,0,1,,,,,,,,,,,,,,,,
,,,,,,,,,,,,6102c81e911700cf7ba5f6bd,2021-09-27_15h49.59.924,forced_choiceRT_color,2021.2.3,Win32,21.45922747,f,2.344,8,0,8,0,1,,,,,,,,,,,,,,,,
,,,,,,,,,,,,6102c81e911700cf7ba5f6bd,2021-09-27_15h49.59.924,forced_choiceRT_color,2021.2.3,Win32,21.45922747,f,1.91,9,0,9,0,1,,,,,,,,,,,,,,,,
,,,,,,,,,,,,6102c81e911700cf7ba5f6bd,2021-09-27_15h49.59.924,forced_choiceRT_color,2021.2.3,Win32,21.45922747,f,2.026,10,0,10,0,1,,,,,,,,,,,,,,,,
,,,,,,,,,,,,6102c81e911700cf7ba5f6bd,2021-09-27_15h49.59.924,forced_choiceRT_color,2021.2.3,Win32,21.45922747,f,2.041,11,0,11,0,1,,,,,,,,,,,,,,,,
,,,,,,,,,,,,6102c81e911700cf7ba5f6bd,2021-09-27_15h49.59.924,forced_choiceRT_color,2021.2.3,Win32,21.45922747,f,2.867,12,0,12,0,1,,,,,,,,,,,,,,,,
,,,,,,,,,,,,6102c81e911700cf7ba5f6bd,2021-09-27_15h49.59.924,forced_choiceRT_color,2021.2.3,Win32,21.45922747,d,2.067,13,0,13,0,1,,,,,,,,,,,,,,,,
,,,,,,,,,,,,6102c81e911700cf7ba5f6bd,2021-09-27_15h49.59.924,forced_choiceRT_color,2021.2.3,Win32,21.45922747,j,2.046,14,0,14,0,1,,,,,,,,,,,,,,,,
,,,,,,,,,,,,6102c81e911700cf7ba5f6bd,2021-09-27_15h49.59.924,forced_choiceRT_color,2021.2.3,Win32,21.45922747,j,2.105,15,0,15,0,1,,,,,,,,,,,,,,,,
,,,,,,,,,,,,6102c81e911700cf7ba5f6bd,2021-09-27_15h49.59.924,forced_choiceRT_color,2021.2.3,Win32,21.45922747,j,2.063,16,0,16,0,1,,,,,,,,,,,,,,,,
,,,,,,,,,,,,6102c81e911700cf7ba5f6bd,2021-09-27_15h49.59.924,forced_choiceRT_color,2021.2.3,Win32,21.45922747,j,2.215,17,0,17,0,1,,,,,,,,,,,,,,,,
,,,,,,,,,,,,6102c81e911700cf7ba5f6bd,2021-09-27_15h49.59.924,forced_choiceRT_color,2021.2.3,Win32,21.45922747,j,2.132,18,0,18,0,1,,,,,,,,,,,,,,,,
,,,,,,,,,,,,6102c81e911700cf7ba5f6bd,2021-09-27_15h49.59.924,forced_choiceRT_color,2021.2.3,Win32,21.45922747,j,2.099,19,0,19,0,1,,,,,,,,,,,,,,,,
,1.05,,,,,,,,,d,orange,6102c81e911700cf7ba5f6bd,2021-09-27_15h49.59.924,forced_choiceRT_color,2021.2.3,Win32,21.45922747,,,,,,,,1,Fast,long,d,1,1.767,0,0,0,0,1,,,,,
,0.64,,,,,,,,,k,purple,6102c81e911700cf7ba5f6bd,2021-09-27_15h49.59.924,forced_choiceRT_color,2021.2.3,Win32,21.45922747,,,,,,,,1,Ontime,long,k,1,2.067,0,1,1,3,1,,,,,
,0.87,,,,,,,,,k,purple,6102c81e911700cf7ba5f6bd,2021-09-27_15h49.59.924,forced_choiceRT_color,2021.2.3,Win32,21.45922747,,,,,,,,1,Ontime,long,k,1,2.053,0,2,2,3,1,,,,,
,1.81,,,,,,,,,d,orange,6102c81e911700cf7ba5f6bd,2021-09-27_15h49.59.924,forced_choiceRT_color,2021.2.3,Win32,21.45922747,,,,,,,,1,Fast,long,k,0,1.74,0,3,3,0,1,,,,,
,1.99,,,,,,,,,j,red,6102c81e911700cf7ba5f6bd,2021-09-27_15h49.59.924,forced_choiceRT_color,2021.2.3,Win32,21.45922747,,,,,,,,1,Slow,long,j,1,4.993,1,0,4,2,1,,,,,
,0.32,,,,,,,,,k,purple,6102c81e911700cf7ba5f6bd,2021-09-27_15h49.59.924,forced_choiceRT_color,2021.2.3,Win32,21.45922747,,,,,,,,1,Slow,long,k,1,2.142,1,1,5,3,1,,,,,
,1.28,,,,,,,,,k,purple,6102c81e911700cf7ba5f6bd,2021-09-27_15h49.59.924,forced_choiceRT_color,2021.2.3,Win32,21.45922747,,,,,,,,1,Slow,long,k,1,2.105,1,2,6,3,1,,,,,
,0.87,,,,,,,,,f,blue,6102c81e911700cf7ba5f6bd,2021-09-27_15h49.59.924,forced_choiceRT_color,2021.2.3,Win32,21.45922747,,,,,,,,1,Fast,long,f,1,1.794,1,3,7,1,1,,,,,
,1.27,,,,,,,,,j,red,6102c81e911700cf7ba5f6bd,2021-09-27_15h49.59.924,forced_choiceRT_color,2021.2.3,Win32,21.45922747,,,,,,,,1,Slow,long,f,0,2.266,2,0,8,2,1,,,,,
,0.85,,,,,,,,,f,blue,6102c81e911700cf7ba5f6bd,2021-09-27_15h49.59.924,forced_choiceRT_color,2021.2.3,Win32,21.45922747,,,,,,,,1,Fast,long,f,1,1.825,2,1,9,1,1,,,,,
,0.37,,,,,,,,,f,blue,6102c81e911700cf7ba5f6bd,2021-09-27_15h49.59.924,forced_choiceRT_color,2021.2.3,Win32,21.45922747,,,,,,,,1,Ontime,long,f,1,2.036,2,2,10,1,1,,,,,
,1.45,,,,,,,,,f,blue,6102c81e911700cf7ba5f6bd,2021-09-27_15h49.59.924,forced_choiceRT_color,2021.2.3,Win32,21.45922747,,,,,,,,1,Ontime,long,f,1,2.038,2,3,11,1,1,,,,,
,1.66,,,,,,,,,d,orange,6102c81e911700cf7ba5f6bd,2021-09-27_15h49.59.924,forced_choiceRT_color,2021.2.3,Win32,21.45922747,,,,,,,,1,Ontime,long,f,0,2.099,3,0,12,0,1,,,,,
,0.4,,,,,,,,,k,purple,6102c81e911700cf7ba5f6bd,2021-09-27_15h49.59.924,forced_choiceRT_color,2021.2.3,Win32,21.45922747,,,,,,,,1,Ontime,long,k,1,2.032,3,1,13,3,1,,,,,
,0.49,,,,,,,,,f,blue,6102c81e911700cf7ba5f6bd,2021-09-27_15h49.59.924,forced_choiceRT_color,2021.2.3,Win32,21.45922747,,,,,,,,1,Ontime,long,f,1,2.065,3,2,14,1,1,,,,,
,1.68,,,,,,,,,k,purple,6102c81e911700cf7ba5f6bd,2021-09-27_15h49.59.924,forced_choiceRT_color,2021.2.3,Win32,21.45922747,,,,,,,,1,Slow,long,k,1,2.165,3,3,15,3,1,,,,,
,1.28,,,,,,,,,d,orange,6102c81e911700cf7ba5f6bd,2021-09-27_15h49.59.924,forced_choiceRT_color,2021.2.3,Win32,21.45922747,,,,,,,,1,Slow,long,d,1,2.179,4,0,16,0,1,,,,,
,1.56,,,,,,,,,d,orange,6102c81e911700cf7ba5f6bd,2021-09-27_15h49.59.924,forced_choiceRT_color,2021.2.3,Win32,21.45922747,,,,,,,,1,Slow,long,d,1,2.232,4,1,17,0,1,,,,,
,0.02,,,,,,,,,k,purple,6102c81e911700cf7ba5f6bd,2021-09-27_15h49.59.924,forced_choiceRT_color,2021.2.3,Win32,21.45922747,,,,,,,,1,Fast,long,k,1,1.74,4,2,18,3,1,,,,,
,1.45,,,,,,,,,j,red,6102c81e911700cf7ba5f6bd,2021-09-27_15h49.59.924,forced_choiceRT_color,2021.2.3,Win32,21.45922747,,,,,,,,1,Slow,long,j,1,2.104,4,3,19,2,1,,,,,
,1.61,,,,,,,,,j,red,6102c81e911700cf7ba5f6bd,2021-09-27_15h49.59.924,forced_choiceRT_color,2021.2.3,Win32,21.45922747,,,,,,,,1,Ontime,long,j,1,2.028,5,0,20,2,1,,,,,
,0.07,,,,,,,,,k,purple,6102c81e911700cf7ba5f6bd,2021-09-27_15h49.59.924,forced_choiceRT_color,2021.2.3,Win32,21.45922747,,,,,,,,1,Ontime,long,k,1,1.964,5,1,21,3,1,,,,,
,1.52,,,,,,,,,d,orange,6102c81e911700cf7ba5f6bd,2021-09-27_15h49.59.924,forced_choiceRT_color,2021.2.3,Win32,21.45922747,,,,,,,,1,Slow,long,d,1,2.222,5,2,22,0,1,,,,,
,0.58,,,,,,,,,f,blue,6102c81e911700cf7ba5f6bd,2021-09-27_15h49.59.924,forced_choiceRT_color,2021.2.3,Win32,21.45922747,,,,,,,,1,Ontime,long,f,1,2.031,5,3,23,1,1,,,,,
,0.75,,,,,,,,,k,purple,6102c81e911700cf7ba5f6bd,2021-09-27_15h49.59.924,forced_choiceRT_color,2021.2.3,Win32,21.45922747,,,,,,,,1,Fast,long,d,0,1.865,6,0,24,3,1,,,,,
,0.32,,,,,,,,,j,red,6102c81e911700cf7ba5f6bd,2021-09-27_15h49.59.924,forced_choiceRT_color,2021.2.3,Win32,21.45922747,,,,,,,,1,Ontime,long,j,1,2.031,6,1,25,2,1,,,,,
,1.63,,,,,,,,,k,purple,6102c81e911700cf7ba5f6bd,2021-09-27_15h49.59.924,forced_choiceRT_color,2021.2.3,Win32,21.45922747,,,,,,,,1,Ontime,long,j,0,2.043,6,2,26,3,1,,,,,
,1.23,,,,,,,,,j,red,6102c81e911700cf7ba5f6bd,2021-09-27_15h49.59.924,forced_choiceRT_color,2021.2.3,Win32,21.45922747,,,,,,,,1,Ontime,long,j,1,1.954,6,3,27,2,1,,,,,
,1.61,,,,,,,,,j,red,6102c81e911700cf7ba5f6bd,2021-09-27_15h49.59.924,forced_choiceRT_color,2021.2.3,Win32,21.45922747,,,,,,,,1,Ontime,long,j,1,2.082,7,0,28,2,1,,,,,
,1.74,,,,,,,,,d,orange,6102c81e911700cf7ba5f6bd,2021-09-27_15h49.59.924,forced_choiceRT_color,2021.2.3,Win32,21.45922747,,,,,,,,1,Slow,long,j,0,2.158,7,1,29,0,1,,,,,
,0.96,,,,,,,,,j,red,6102c81e911700cf7ba5f6bd,2021-09-27_15h49.59.924,forced_choiceRT_color,2021.2.3,Win32,21.45922747,,,,,,,,1,Ontime,long,j,1,1.971,7,2,30,2,1,,,,,
,0.57,,,,,,,,,d,orange,6102c81e911700cf7ba5f6bd,2021-09-27_15h49.59.924,forced_choiceRT_color,2021.2.3,Win32,21.45922747,,,,,,,,1,Ontime,long,d,1,1.939,7,3,31,0,1,,,,,
,1.92,,,,,,,,,d,orange,6102c81e911700cf7ba5f6bd,2021-09-27_15h49.59.924,forced_choiceRT_color,2021.2.3,Win32,21.45922747,,,,,,,,1,Slow,long,d,1,2.189,8,0,32,0,1,,,,,
,1.97,,,,,,,,,f,blue,6102c81e911700cf7ba5f6bd,2021-09-27_15h49.59.924,forced_choiceRT_color,2021.2.3,Win32,21.45922747,,,,,,,,1,Slow,long,f,1,2.123,8,1,33,1,1,,,,,
,0.52,,,,,,,,,f,blue,6102c81e911700cf7ba5f6bd,2021-09-27_15h49.59.924,forced_choiceRT_color,2021.2.3,Win32,21.45922747,,,,,,,,1,Ontime,long,f,1,1.971,8,2,34,1,1,,,,,
,0.78,,,,,,,,,d,orange,6102c81e911700cf7ba5f6bd,2021-09-27_15h49.59.924,forced_choiceRT_color,2021.2.3,Win32,21.45922747,,,,,,,,1,Fast,long,d,1,1.892,8,3,35,0,1,,,,,
,1.88,,,,,,,,,f,blue,6102c81e911700cf7ba5f6bd,2021-09-27_15h49.59.924,forced_choiceRT_color,2021.2.3,Win32,21.45922747,,,,,,,,1,Ontime,long,d,0,2.039,9,0,36,1,1,,,,,
,0.86,,,,,,,,,j,red,6102c81e911700cf7ba5f6bd,2021-09-27_15h49.59.924,forced_choiceRT_color,2021.2.3,Win32,21.45922747,,,,,,,,1,Fast,long,j,1,1.886,9,1,37,2,1,,,,,
,0.18,,,,,,,,,f,blue,6102c81e911700cf7ba5f6bd,2021-09-27_15h49.59.924,forced_choiceRT_color,2021.2.3,Win32,21.45922747,,,,,,,,1,Ontime,long,f,1,2.02,9,2,38,1,1,,,,,
,1.34,,,,,,,,,j,red,6102c81e911700cf7ba5f6bd,2021-09-27_15h49.59.924,forced_choiceRT_color,2021.2.3,Win32,21.45922747,,,,,,,,1,Ontime,long,j,1,2.069,9,3,39,2,1,,,,,
,,,,,,,,,,,,6102c81e911700cf7ba5f6bd,2021-09-27_15h49.59.924,forced_choiceRT_color,2021.2.3,Win32,21.45922747,,,,,,,,,,,,,,,,,,,0,0,0,0,1
,1.27,,,,,,,,,k,purple,6102c81e911700cf7ba5f6bd,2021-09-27_15h49.59.924,forced_choiceRT_color,2021.2.3,Win32,21.45922747,,,,,,,,2,Slow,long,k,1,2.159,0,0,0,3,1,,,,,
,1.64,,,,,,,,,k,purple,6102c81e911700cf7ba5f6bd,2021-09-27_15h49.59.924,forced_choiceRT_color,2021.2.3,Win32,21.45922747,,,,,,,,2,Slow,long,k,1,2.252,0,1,1,3,1,,,,,
,0.33,,,,,,,,,f,blue,6102c81e911700cf7ba5f6bd,2021-09-27_15h49.59.924,forced_choiceRT_color,2021.2.3,Win32,21.45922747,,,,,,,,2,Ontime,long,f,1,1.906,0,2,2,1,1,,,,,
,1.9,,,,,,,,,f,blue,6102c81e911700cf7ba5f6bd,2021-09-27_15h49.59.924,forced_choiceRT_color,2021.2.3,Win32,21.45922747,,,,,,,,2,Ontime,long,f,1,2.005,0,3,3,1,1,,,,,
,0.01,,,,,,,,,f,blue,6102c81e911700cf7ba5f6bd,2021-09-27_15h49.59.924,forced_choiceRT_color,2021.2.3,Win32,21.45922747,,,,,,,,2,Fast,long,f,1,1.829,1,0,4,1,1,,,,,
,0.43,,,,,,,,,j,red,6102c81e911700cf7ba5f6bd,2021-09-27_15h49.59.924,forced_choiceRT_color,2021.2.3,Win32,21.45922747,,,,,,,,2,Ontime,long,j,1,2.052,1,1,5,2,1,,,,,
,0.53,,,,,,,,,k,purple,6102c81e911700cf7ba5f6bd,2021-09-27_15h49.59.924,forced_choiceRT_color,2021.2.3,Win32,21.45922747,,,,,,,,2,Ontime,long,k,1,2.023,1,2,6,3,1,,,,,
,1.35,,,,,,,,,f,blue,6102c81e911700cf7ba5f6bd,2021-09-27_15h49.59.924,forced_choiceRT_color,2021.2.3,Win32,21.45922747,,,,,,,,2,Ontime,long,f,1,2.036,1,3,7,1,1,,,,,
,0.43,,,,,,,,,d,orange,6102c81e911700cf7ba5f6bd,2021-09-27_15h49.59.924,forced_choiceRT_color,2021.2.3,Win32,21.45922747,,,,,,,,2,Ontime,long,d,1,1.923,2,0,8,0,1,,,,,
,0.14,,,,,,,,,j,red,6102c81e911700cf7ba5f6bd,2021-09-27_15h49.59.924,forced_choiceRT_color,2021.2.3,Win32,21.45922747,,,,,,,,2,Fast,long,j,1,1.88,2,1,9,2,1,,,,,
,1.59,,,,,,,,,d,orange,6102c81e911700cf7ba5f6bd,2021-09-27_15h49.59.924,forced_choiceRT_color,2021.2.3,Win32,21.45922747,,,,,,,,2,Slow,long,d,1,2.325,2,2,10,0,1,,,,,
,0.3,,,,,,,,,k,purple,6102c81e911700cf7ba5f6bd,2021-09-27_15h49.59.924,forced_choiceRT_color,2021.2.3,Win32,21.45922747,,,,,,,,2,Ontime,long,k,1,2.071,2,3,11,3,1,,,,,
,1.9,,,,,,,,,k,purple,6102c81e911700cf7ba5f6bd,2021-09-27_15h49.59.924,forced_choiceRT_color,2021.2.3,Win32,21.45922747,,,,,,,,2,Ontime,long,f,0,2.078,3,0,12,3,1,,,,,
,0.84,,,,,,,,,k,purple,6102c81e911700cf7ba5f6bd,2021-09-27_15h49.59.924,forced_choiceRT_color,2021.2.3,Win32,21.45922747,,,,,,,,2,Ontime,long,k,1,2.1,3,1,13,3,1,,,,,
,1.88,,,,,,,,,f,blue,6102c81e911700cf7ba5f6bd,2021-09-27_15h49.59.924,forced_choiceRT_color,2021.2.3,Win32,21.45922747,,,,,,,,2,Slow,long,k,0,2.159,3,2,14,1,1,,,,,
,0.08,,,,,,,,,d,orange,6102c81e911700cf7ba5f6bd,2021-09-27_15h49.59.924,forced_choiceRT_color,2021.2.3,Win32,21.45922747,,,,,,,,2,Ontime,long,d,1,1.914,3,3,15,0,1,,,,,
,1.83,,,,,,,,,j,red,6102c81e911700cf7ba5f6bd,2021-09-27_15h49.59.924,forced_choiceRT_color,2021.2.3,Win32,21.45922747,,,,,,,,2,Ontime,long,f,0,2.051,4,0,16,2,1,,,,,
,1.51,,,,,,,,,j,red,6102c81e911700cf7ba5f6bd,2021-09-27_15h49.59.924,forced_choiceRT_color,2021.2.3,Win32,21.45922747,,,,,,,,2,Slow,long,j,1,2.11,4,1,17,2,1,,,,,
,1.34,,,,,,,,,k,purple,6102c81e911700cf7ba5f6bd,2021-09-27_15h49.59.924,forced_choiceRT_color,2021.2.3,Win32,21.45922747,,,,,,,,2,Ontime,long,f,0,2.037,4,2,18,3,1,,,,,
,0.77,,,,,,,,,d,orange,6102c81e911700cf7ba5f6bd,2021-09-27_15h49.59.924,forced_choiceRT_color,2021.2.3,Win32,21.45922747,,,,,,,,2,Ontime,long,d,1,2.069,4,3,19,0,1,,,,,
,0.29,,,,,,,,,f,blue,6102c81e911700cf7ba5f6bd,2021-09-27_15h49.59.924,forced_choiceRT_color,2021.2.3,Win32,21.45922747,,,,,,,,2,Ontime,long,f,1,2.002,5,0,20,1,1,,,,,
,1.43,,,,,,,,,k,purple,6102c81e911700cf7ba5f6bd,2021-09-27_15h49.59.924,forced_choiceRT_color,2021.2.3,Win32,21.45922747,,,,,,,,2,Slow,long,k,1,2.147,5,1,21,3,1,,,,,
,1.84,,,,,,,,,d,orange,6102c81e911700cf7ba5f6bd,2021-09-27_15h49.59.924,forced_choiceRT_color,2021.2.3,Win32,21.45922747,,,,,,,,2,Slow,long,k,0,2.164,5,2,22,0,1,,,,,
,1.32,,,,,,,,,j,red,6102c81e911700cf7ba5f6bd,2021-09-27_15h49.59.924,forced_choiceRT_color,2021.2.3,Win32,21.45922747,,,,,,,,2,Ontime,long,j,1,1.981,5,3,23,2,1,,,,,
,1.36,,,,,,,,,d,orange,6102c81e911700cf7ba5f6bd,2021-09-27_15h49.59.924,forced_choiceRT_color,2021.2.3,Win32,21.45922747,,,,,,,,2,Ontime,long,f,0,2.043,6,0,24,0,1,,,,,
,0.62,,,,,,,,,k,purple,6102c81e911700cf7ba5f6bd,2021-09-27_15h49.59.924,forced_choiceRT_color,2021.2.3,Win32,21.45922747,,,,,,,,2,Ontime,long,k,1,1.986,6,1,25,3,1,,,,,
,1.52,,,,,,,,,f,blue,6102c81e911700cf7ba5f6bd,2021-09-27_15h49.59.924,forced_choiceRT_color,2021.2.3,Win32,21.45922747,,,,,,,,2,Slow,long,d,0,2.154,6,2,26,1,1,,,,,
,0.41,,,,,,,,,f,blue,6102c81e911700cf7ba5f6bd,2021-09-27_15h49.59.924,forced_choiceRT_color,2021.2.3,Win32,21.45922747,,,,,,,,2,Ontime,long,f,1,2.024,6,3,27,1,1,,,,,
,0.73,,,,,,,,,d,orange,6102c81e911700cf7ba5f6bd,2021-09-27_15h49.59.924,forced_choiceRT_color,2021.2.3,Win32,21.45922747,,,,,,,,2,Fast,long,d,1,1.712,7,0,28,0,1,,,,,
,1.39,,,,,,,,,d,orange,6102c81e911700cf7ba5f6bd,2021-09-27_15h49.59.924,forced_choiceRT_color,2021.2.3,Win32,21.45922747,,,,,,,,2,Ontime,long,d,1,2.074,7,1,29,0,1,,,,,
,0.49,,,,,,,,,j,red,6102c81e911700cf7ba5f6bd,2021-09-27_15h49.59.924,forced_choiceRT_color,2021.2.3,Win32,21.45922747,,,,,,,,2,Ontime,long,j,1,1.954,7,2,30,2,1,,,,,
,1.32,,,,,,,,,f,blue,6102c81e911700cf7ba5f6bd,2021-09-27_15h49.59.924,forced_choiceRT_color,2021.2.3,Win32,21.45922747,,,,,,,,2,Ontime,long,f,1,2.064,7,3,31,1,1,,,,,
,1.05,,,,,,,,,d,orange,6102c81e911700cf7ba5f6bd,2021-09-27_15h49.59.924,forced_choiceRT_color,2021.2.3,Win32,21.45922747,,,,,,,,2,Ontime,long,d,1,1.901,8,0,32,0,1,,,,,
,0,,,,,,,,,j,red,6102c81e911700cf7ba5f6bd,2021-09-27_15h49.59.924,forced_choiceRT_color,2021.2.3,Win32,21.45922747,,,,,,,,2,Ontime,long,j,1,2.071,8,1,33,2,1,,,,,
,1.07,,,,,,,,,j,red,6102c81e911700cf7ba5f6bd,2021-09-27_15h49.59.924,forced_choiceRT_color,2021.2.3,Win32,21.45922747,,,,,,,,2,Ontime,long,j,1,2.087,8,2,34,2,1,,,,,
,0.28,,,,,,,,,f,blue,6102c81e911700cf7ba5f6bd,2021-09-27_15h49.59.924,forced_choiceRT_color,2021.2.3,Win32,21.45922747,,,,,,,,2,Ontime,long,f,1,2.043,8,3,35,1,1,,,,,
,1.97,,,,,,,,,d,orange,6102c81e911700cf7ba5f6bd,2021-09-27_15h49.59.924,forced_choiceRT_color,2021.2.3,Win32,21.45922747,,,,,,,,2,Slow,long,f,0,2.533,9,0,36,0,1,,,,,
,1.21,,,,,,,,,j,red,6102c81e911700cf7ba5f6bd,2021-09-27_15h49.59.924,forced_choiceRT_color,2021.2.3,Win32,21.45922747,,,,,,,,2,Slow,long,d,0,2.437,9,1,37,2,1,,,,,
,1.08,,,,,,,,,k,purple,6102c81e911700cf7ba5f6bd,2021-09-27_15h49.59.924,forced_choiceRT_color,2021.2.3,Win32,21.45922747,,,,,,,,2,Slow,long,k,1,2.245,9,2,38,3,1,,,,,
,0.81,,,,,,,,,j,red,6102c81e911700cf7ba5f6bd,2021-09-27_15h49.59.924,forced_choiceRT_color,2021.2.3,Win32,21.45922747,,,,,,,,2,Slow,long,j,1,2.132,9,3,39,2,1,,,,,
,,,,,,,,,,,,6102c81e911700cf7ba5f6bd,2021-09-27_15h49.59.924,forced_choiceRT_color,2021.2.3,Win32,21.45922747,,,,,,,,,,,,,,,,,,,1,0,1,0,1
,1.59,,,,,,,,,j,red,6102c81e911700cf7ba5f6bd,2021-09-27_15h49.59.924,forced_choiceRT_color,2021.2.3,Win32,21.45922747,,,,,,,,3,Ontime,long,k,0,1.981,0,0,0,2,1,,,,,
,0.38,,,,,,,,,k,purple,6102c81e911700cf7ba5f6bd,2021-09-27_15h49.59.924,forced_choiceRT_color,2021.2.3,Win32,21.45922747,,,,,,,,3,Ontime,long,k,1,2.028,0,1,1,3,1,,,,,
,1.2,,,,,,,,,f,blue,6102c81e911700cf7ba5f6bd,2021-09-27_15h49.59.924,forced_choiceRT_color,2021.2.3,Win32,21.45922747,,,,,,,,3,Ontime,long,f,1,1.966,0,2,2,1,1,,,,,
,1.67,,,,,,,,,d,orange,6102c81e911700cf7ba5f6bd,2021-09-27_15h49.59.924,forced_choiceRT_color,2021.2.3,Win32,21.45922747,,,,,,,,3,Slow,long,k,0,2.274,0,3,3,0,1,,,,,
,1.34,,,,,,,,,f,blue,6102c81e911700cf7ba5f6bd,2021-09-27_15h49.59.924,forced_choiceRT_color,2021.2.3,Win32,21.45922747,,,,,,,,3,Ontime,long,f,1,2.07,1,0,4,1,1,,,,,
,0.14,,,,,,,,,f,blue,6102c81e911700cf7ba5f6bd,2021-09-27_15h49.59.924,forced_choiceRT_color,2021.2.3,Win32,21.45922747,,,,,,,,3,Fast,long,f,1,1.859,1,1,5,1,1,,,,,
,0.32,,,,,,,,,k,purple,6102c81e911700cf7ba5f6bd,2021-09-27_15h49.59.924,forced_choiceRT_color,2021.2.3,Win32,21.45922747,,,,,,,,3,Ontime,long,k,1,2.075,1,2,6,3,1,,,,,
,1.59,,,,,,,,,f,blue,6102c81e911700cf7ba5f6bd,2021-09-27_15h49.59.924,forced_choiceRT_color,2021.2.3,Win32,21.45922747,,,,,,,,3,Ontime,long,f,1,2.07,1,3,7,1,1,,,,,
,0.71,,,,,,,,,d,orange,6102c81e911700cf7ba5f6bd,2021-09-27_15h49.59.924,forced_choiceRT_color,2021.2.3,Win32,21.45922747,,,,,,,,3,Slow,long,d,1,2.14,2,0,8,0,1,,,,,
,0.42,,,,,,,,,k,purple,6102c81e911700cf7ba5f6bd,2021-09-27_15h49.59.924,forced_choiceRT_color,2021.2.3,Win32,21.45922747,,,,,,,,3,Ontime,long,k,1,2.049,2,1,9,3,1,,,,,
,0.45,,,,,,,,,j,red,6102c81e911700cf7ba5f6bd,2021-09-27_15h49.59.924,forced_choiceRT_color,2021.2.3,Win32,21.45922747,,,,,,,,3,Fast,long,f,0,1.898,2,2,10,2,1,,,,,
,0.15,,,,,,,,,f,blue,6102c81e911700cf7ba5f6bd,2021-09-27_15h49.59.924,forced_choiceRT_color,2021.2.3,Win32,21.45922747,,,,,,,,3,Ontime,long,f,1,2.037,2,3,11,1,1,,,,,
,1.5,,,,,,,,,k,purple,6102c81e911700cf7ba5f6bd,2021-09-27_15h49.59.924,forced_choiceRT_color,2021.2.3,Win32,21.45922747,,,,,,,,3,Slow,long,k,1,2.287,3,0,12,3,1,,,,,
,0.2,,,,,,,,,f,blue,6102c81e911700cf7ba5f6bd,2021-09-27_15h49.59.924,forced_choiceRT_color,2021.2.3,Win32,21.45922747,,,,,,,,3,Fast,long,f,1,1.866,3,1,13,1,1,,,,,
,0.21,,,,,,,,,f,blue,6102c81e911700cf7ba5f6bd,2021-09-27_15h49.59.924,forced_choiceRT_color,2021.2.3,Win32,21.45922747,,,,,,,,3,Ontime,long,f,1,2.074,3,2,14,1,1,,,,,
,1.13,,,,,,,,,d,orange,6102c81e911700cf7ba5f6bd,2021-09-27_15h49.59.924,forced_choiceRT_color,2021.2.3,Win32,21.45922747,,,,,,,,3,Ontime,long,d,1,1.954,3,3,15,0,1,,,,,
,1.41,,,,,,,,,f,blue,6102c81e911700cf7ba5f6bd,2021-09-27_15h49.59.924,forced_choiceRT_color,2021.2.3,Win32,21.45922747,,,,,,,,3,Ontime,long,f,1,2.006,4,0,16,1,1,,,,,
,0.33,,,,,,,,,j,red,6102c81e911700cf7ba5f6bd,2021-09-27_15h49.59.924,forced_choiceRT_color,2021.2.3,Win32,21.45922747,,,,,,,,3,Ontime,long,j,1,2.021,4,1,17,2,1,,,,,
,1.98,,,,,,,,,k,purple,6102c81e911700cf7ba5f6bd,2021-09-27_15h49.59.924,forced_choiceRT_color,2021.2.3,Win32,21.45922747,,,,,,,,3,Ontime,long,f,0,2.067,4,2,18,3,1,,,,,
,0.85,,,,,,,,,f,blue,6102c81e911700cf7ba5f6bd,2021-09-27_15h49.59.924,forced_choiceRT_color,2021.2.3,Win32,21.45922747,,,,,,,,3,Ontime,long,f,1,2.067,4,3,19,1,1,,,,,
,1.52,,,,,,,,,j,red,6102c81e911700cf7ba5f6bd,2021-09-27_15h49.59.924,forced_choiceRT_color,2021.2.3,Win32,21.45922747,,,,,,,,3,Slow,long,j,1,2.138,5,0,20,2,1,,,,,
,1.65,,,,,,,,,j,red,6102c81e911700cf7ba5f6bd,2021-09-27_15h49.59.924,forced_choiceRT_color,2021.2.3,Win32,21.45922747,,,,,,,,3,Slow,long,j,1,2.105,5,1,21,2,1,,,,,
,0.21,,,,,,,,,d,orange,6102c81e911700cf7ba5f6bd,2021-09-27_15h49.59.924,forced_choiceRT_color,2021.2.3,Win32,21.45922747,,,,,,,,3,Fast,long,d,1,1.892,5,2,22,0,1,,,,,
,1.1,,,,,,,,,k,purple,6102c81e911700cf7ba5f6bd,2021-09-27_15h49.59.924,forced_choiceRT_color,2021.2.3,Win32,21.45922747,,,,,,,,3,Fast,long,k,1,1.832,5,3,23,3,1,,,,,
,1.61,,,,,,,,,d,orange,6102c81e911700cf7ba5f6bd,2021-09-27_15h49.59.924,forced_choiceRT_color,2021.2.3,Win32,21.45922747,,,,,,,,3,Ontime,long,k,0,2.016,6,0,24,0,1,,,,,
,0.86,,,,,,,,,j,red,6102c81e911700cf7ba5f6bd,2021-09-27_15h49.59.924,forced_choiceRT_color,2021.2.3,Win32,21.45922747,,,,,,,,3,Ontime,long,j,1,2.091,6,1,25,2,1,,,,,
,1.22,,,,,,,,,j,red,6102c81e911700cf7ba5f6bd,2021-09-27_15h49.59.924,forced_choiceRT_color,2021.2.3,Win32,21.45922747,,,,,,,,3,Ontime,long,j,1,2.039,6,2,26,2,1,,,,,
,1.7,,,,,,,,,d,orange,6102c81e911700cf7ba5f6bd,2021-09-27_15h49.59.924,forced_choiceRT_color,2021.2.3,Win32,21.45922747,,,,,,,,3,Slow,long,f,0,2.382,6,3,27,0,1,,,,,
,1.05,,,,,,,,,k,purple,6102c81e911700cf7ba5f6bd,2021-09-27_15h49.59.924,forced_choiceRT_color,2021.2.3,Win32,21.45922747,,,,,,,,3,Fast,long,d,0,0.778,7,0,28,3,1,,,,,
,0.44,,,,,,,,,k,purple,6102c81e911700cf7ba5f6bd,2021-09-27_15h49.59.924,forced_choiceRT_color,2021.2.3,Win32,21.45922747,,,,,,,,3,Slow,long,k,1,2.269,7,1,29,3,1,,,,,
,0.76,,,,,,,,,d,orange,6102c81e911700cf7ba5f6bd,2021-09-27_15h49.59.924,forced_choiceRT_color,2021.2.3,Win32,21.45922747,,,,,,,,3,Ontime,long,d,1,2.023,7,2,30,0,1,,,,,
,1.65,,,,,,,,,d,orange,6102c81e911700cf7ba5f6bd,2021-09-27_15h49.59.924,forced_choiceRT_color,2021.2.3,Win32,21.45922747,,,,,,,,3,Ontime,long,d,1,2.008,7,3,31,0,1,,,,,
,1.99,,,,,,,,,d,orange,6102c81e911700cf7ba5f6bd,2021-09-27_15h49.59.924,forced_choiceRT_color,2021.2.3,Win32,21.45922747,,,,,,,,3,Slow,long,k,0,2.246,8,0,32,0,1,,,,,
,1.26,,,,,,,,,j,red,6102c81e911700cf7ba5f6bd,2021-09-27_15h49.59.924,forced_choiceRT_color,2021.2.3,Win32,21.45922747,,,,,,,,3,Ontime,long,j,1,1.955,8,1,33,2,1,,,,,
,1.64,,,,,,,,,d,orange,6102c81e911700cf7ba5f6bd,2021-09-27_15h49.59.924,forced_choiceRT_color,2021.2.3,Win32,21.45922747,,,,,,,,3,Slow,long,f,0,2.334,8,2,34,0,1,,,,,
,0.87,,,,,,,,,j,red,6102c81e911700cf7ba5f6bd,2021-09-27_15h49.59.924,forced_choiceRT_color,2021.2.3,Win32,21.45922747,,,,,,,,3,Slow,long,j,1,2.54,8,3,35,2,1,,,,,
,1.14,,,,,,,,,k,purple,6102c81e911700cf7ba5f6bd,2021-09-27_15h49.59.924,forced_choiceRT_color,2021.2.3,Win32,21.45922747,,,,,,,,3,Fast,long,k,1,1.86,9,0,36,3,1,,,,,
,0.49,,,,,,,,,j,red,6102c81e911700cf7ba5f6bd,2021-09-27_15h49.59.924,forced_choiceRT_color,2021.2.3,Win32,21.45922747,,,,,,,,3,Ontime,long,j,1,1.945,9,1,37,2,1,,,,,
,0.74,,,,,,,,,k,purple,6102c81e911700cf7ba5f6bd,2021-09-27_15h49.59.924,forced_choiceRT_color,2021.2.3,Win32,21.45922747,,,,,,,,3,Ontime,long,k,1,1.975,9,2,38,3,1,,,,,
,1.59,,,,,,,,,f,blue,6102c81e911700cf7ba5f6bd,2021-09-27_15h49.59.924,forced_choiceRT_color,2021.2.3,Win32,21.45922747,,,,,,,,3,Slow,long,j,0,2.217,9,3,39,1,1,,,,,
,,,,,,,,,,,,6102c81e911700cf7ba5f6bd,2021-09-27_15h49.59.924,forced_choiceRT_color,2021.2.3,Win32,21.45922747,,,,,,,,,,,,,,,,,,,2,0,2,0,1
,0.62,,,,,,,,,j,red,6102c81e911700cf7ba5f6bd,2021-09-27_15h49.59.924,forced_choiceRT_color,2021.2.3,Win32,21.45922747,,,,,,,,4,Ontime,long,j,1,2.022,0,0,0,2,1,,,,,
,1.99,,,,,,,,,k,purple,6102c81e911700cf7ba5f6bd,2021-09-27_15h49.59.924,forced_choiceRT_color,2021.2.3,Win32,21.45922747,,,,,,,,4,Slow,long,j,0,2.153,0,1,1,3,1,,,,,
,1.67,,,,,,,,,j,red,6102c81e911700cf7ba5f6bd,2021-09-27_15h49.59.924,forced_choiceRT_color,2021.2.3,Win32,21.45922747,,,,,,,,4,Slow,long,j,1,2.169,0,2,2,2,1,,,,,
,1.78,,,,,,,,,f,blue,6102c81e911700cf7ba5f6bd,2021-09-27_15h49.59.924,forced_choiceRT_color,2021.2.3,Win32,21.45922747,,,,,,,,4,Ontime,long,k,0,2.034,0,3,3,1,1,,,,,
,0.47,,,,,,,,,j,red,6102c81e911700cf7ba5f6bd,2021-09-27_15h49.59.924,forced_choiceRT_color,2021.2.3,Win32,21.45922747,,,,,,,,4,Ontime,long,j,1,1.941,1,0,4,2,1,,,,,
,0.33,,,,,,,,,k,purple,6102c81e911700cf7ba5f6bd,2021-09-27_15h49.59.924,forced_choiceRT_color,2021.2.3,Win32,21.45922747,,,,,,,,4,Ontime,long,k,1,1.935,1,1,5,3,1,,,,,
,1.38,,,,,,,,,f,blue,6102c81e911700cf7ba5f6bd,2021-09-27_15h49.59.924,forced_choiceRT_color,2021.2.3,Win32,21.45922747,,,,,,,,4,Ontime,long,f,1,2.089,1,2,6,1,1,,,,,
,0.79,,,,,,,,,d,orange,6102c81e911700cf7ba5f6bd,2021-09-27_15h49.59.924,forced_choiceRT_color,2021.2.3,Win32,21.45922747,,,,,,,,4,Ontime,long,d,1,2.085,1,3,7,0,1,,,,,
,1.44,,,,,,,,,k,purple,6102c81e911700cf7ba5f6bd,2021-09-27_15h49.59.924,forced_choiceRT_color,2021.2.3,Win32,21.45922747,,,,,,,,4,Slow,long,j,0,5.695,2,0,8,3,1,,,,,
,1.36,,,,,,,,,f,blue,6102c81e911700cf7ba5f6bd,2021-09-27_15h49.59.924,forced_choiceRT_color,2021.2.3,Win32,21.45922747,,,,,,,,4,Slow,long,f,1,2.134,2,1,9,1,1,,,,,
,1.71,,,,,,,,,j,red,6102c81e911700cf7ba5f6bd,2021-09-27_15h49.59.924,forced_choiceRT_color,2021.2.3,Win32,21.45922747,,,,,,,,4,Ontime,long,f,0,2.089,2,2,10,2,1,,,,,
,0.16,,,,,,,,,f,blue,6102c81e911700cf7ba5f6bd,2021-09-27_15h49.59.924,forced_choiceRT_color,2021.2.3,Win32,21.45922747,,,,,,,,4,Ontime,long,f,1,1.963,2,3,11,1,1,,,,,
,0.86,,,,,,,,,d,orange,6102c81e911700cf7ba5f6bd,2021-09-27_15h49.59.924,forced_choiceRT_color,2021.2.3,Win32,21.45922747,,,,,,,,4,Ontime,long,d,1,2.04,3,0,12,0,1,,,,,
,0.76,,,,,,,,,d,orange,6102c81e911700cf7ba5f6bd,2021-09-27_15h49.59.924,forced_choiceRT_color,2021.2.3,Win32,21.45922747,,,,,,,,4,Ontime,long,d,1,2.01,3,1,13,0,1,,,,,
,1.17,,,,,,,,,j,red,6102c81e911700cf7ba5f6bd,2021-09-27_15h49.59.924,forced_choiceRT_color,2021.2.3,Win32,21.45922747,,,,,,,,4,Slow,long,f,0,2.272,3,2,14,2,1,,,,,
,0.13,,,,,,,,,k,purple,6102c81e911700cf7ba5f6bd,2021-09-27_15h49.59.924,forced_choiceRT_color,2021.2.3,Win32,21.45922747,,,,,,,,4,Ontime,long,k,1,2.044,3,3,15,3,1,,,,,
,1.72,,,,,,,,,j,red,6102c81e911700cf7ba5f6bd,2021-09-27_15h49.59.924,forced_choiceRT_color,2021.2.3,Win32,21.45922747,,,,,,,,4,Slow,long,j,1,2.454,4,0,16,2,1,,,,,
,1.48,,,,,,,,,f,blue,6102c81e911700cf7ba5f6bd,2021-09-27_15h49.59.924,forced_choiceRT_color,2021.2.3,Win32,21.45922747,,,,,,,,4,Slow,long,f,1,2.937,4,1,17,1,1,,,,,
,1.69,,,,,,,,,k,purple,6102c81e911700cf7ba5f6bd,2021-09-27_15h49.59.924,forced_choiceRT_color,2021.2.3,Win32,21.45922747,,,,,,,,4,Slow,long,f,0,2.247,4,2,18,3,1,,,,,
,1.91,,,,,,,,,f,blue,6102c81e911700cf7ba5f6bd,2021-09-27_15h49.59.924,forced_choiceRT_color,2021.2.3,Win32,21.45922747,,,,,,,,4,Slow,long,j,0,2.105,4,3,19,1,1,,,,,
,0.78,,,,,,,,,k,purple,6102c81e911700cf7ba5f6bd,2021-09-27_15h49.59.924,forced_choiceRT_color,2021.2.3,Win32,21.45922747,,,,,,,,4,Ontime,long,k,1,2.029,5,0,20,3,1,,,,,
,0.3,,,,,,,,,j,red,6102c81e911700cf7ba5f6bd,2021-09-27_15h49.59.924,forced_choiceRT_color,2021.2.3,Win32,21.45922747,,,,,,,,4,Slow,long,j,1,2.121,5,1,21,2,1,,,,,
,0.89,,,,,,,,,k,purple,6102c81e911700cf7ba5f6bd,2021-09-27_15h49.59.924,forced_choiceRT_color,2021.2.3,Win32,21.45922747,,,,,,,,4,Slow,long,k,1,2.198,5,2,22,3,1,,,,,
,0.8,,,,,,,,,d,orange,6102c81e911700cf7ba5f6bd,2021-09-27_15h49.59.924,forced_choiceRT_color,2021.2.3,Win32,21.45922747,,,,,,,,4,Ontime,long,j,0,2.029,5,3,23,0,1,,,,,
,0.56,,,,,,,,,d,orange,6102c81e911700cf7ba5f6bd,2021-09-27_15h49.59.924,forced_choiceRT_color,2021.2.3,Win32,21.45922747,,,,,,,,4,Fast,long,d,1,1.639,6,0,24,0,1,,,,,
,0.75,,,,,,,,,d,orange,6102c81e911700cf7ba5f6bd,2021-09-27_15h49.59.924,forced_choiceRT_color,2021.2.3,Win32,21.45922747,,,,,,,,4,Slow,long,f,0,2.801,6,1,25,0,1,,,,,
,1.94,,,,,,,,,d,orange,6102c81e911700cf7ba5f6bd,2021-09-27_15h49.59.924,forced_choiceRT_color,2021.2.3,Win32,21.45922747,,,,,,,,4,Slow,long,d,1,2.336,6,2,26,0,1,,,,,
,1.77,,,,,,,,,k,purple,6102c81e911700cf7ba5f6bd,2021-09-27_15h49.59.924,forced_choiceRT_color,2021.2.3,Win32,21.45922747,,,,,,,,4,Slow,long,k,1,2.54,6,3,27,3,1,,,,,
,1.16,,,,,,,,,f,blue,6102c81e911700cf7ba5f6bd,2021-09-27_15h49.59.924,forced_choiceRT_color,2021.2.3,Win32,21.45922747,,,,,,,,4,Ontime,long,f,1,2.005,7,0,28,1,1,,,,,
,1.16,,,,,,,,,j,red,6102c81e911700cf7ba5f6bd,2021-09-27_15h49.59.924,forced_choiceRT_color,2021.2.3,Win32,21.45922747,,,,,,,,4,Ontime,long,j,1,2.017,7,1,29,2,1,,,,,
,0.47,,,,,,,,,f,blue,6102c81e911700cf7ba5f6bd,2021-09-27_15h49.59.924,forced_choiceRT_color,2021.2.3,Win32,21.45922747,,,,,,,,4,Ontime,long,f,1,1.954,7,2,30,1,1,,,,,
,1.82,,,,,,,,,k,purple,6102c81e911700cf7ba5f6bd,2021-09-27_15h49.59.924,forced_choiceRT_color,2021.2.3,Win32,21.45922747,,,,,,,,4,Slow,long,j,0,2.344,7,3,31,3,1,,,,,
,0.36,,,,,,,,,d,orange,6102c81e911700cf7ba5f6bd,2021-09-27_15h49.59.924,forced_choiceRT_color,2021.2.3,Win32,21.45922747,,,,,,,,4,Slow,long,d,1,2.158,8,0,32,0,1,,,,,
,1,,,,,,,,,j,red,6102c81e911700cf7ba5f6bd,2021-09-27_15h49.59.924,forced_choiceRT_color,2021.2.3,Win32,21.45922747,,,,,,,,4,Ontime,long,j,1,2.074,8,1,33,2,1,,,,,
,0.11,,,,,,,,,k,purple,6102c81e911700cf7ba5f6bd,2021-09-27_15h49.59.924,forced_choiceRT_color,2021.2.3,Win32,21.45922747,,,,,,,,4,Ontime,long,k,1,2.077,8,2,34,3,1,,,,,
,0.29,,,,,,,,,f,blue,6102c81e911700cf7ba5f6bd,2021-09-27_15h49.59.924,forced_choiceRT_color,2021.2.3,Win32,21.45922747,,,,,,,,4,Slow,long,f,1,2.568,8,3,35,1,1,,,,,
,0.09,,,,,,,,,f,blue,6102c81e911700cf7ba5f6bd,2021-09-27_15h49.59.924,forced_choiceRT_color,2021.2.3,Win32,21.45922747,,,,,,,,4,Ontime,long,f,1,2.021,9,0,36,1,1,,,,,
,0.84,,,,,,,,,j,red,6102c81e911700cf7ba5f6bd,2021-09-27_15h49.59.924,forced_choiceRT_color,2021.2.3,Win32,21.45922747,,,,,,,,4,Ontime,long,k,0,2.064,9,1,37,2,1,,,,,
,0.26,,,,,,,,,d,orange,6102c81e911700cf7ba5f6bd,2021-09-27_15h49.59.924,forced_choiceRT_color,2021.2.3,Win32,21.45922747,,,,,,,,4,Slow,long,d,1,2.87,9,2,38,0,1,,,,,
,0.15,,,,,,,,,d,orange,6102c81e911700cf7ba5f6bd,2021-09-27_15h49.59.924,forced_choiceRT_color,2021.2.3,Win32,21.45922747,,,,,,,,4,Slow,long,d,1,2.422,9,3,39,0,1,,,,,
,,,,,,,,,,,,6102c81e911700cf7ba5f6bd,2021-09-27_15h49.59.924,forced_choiceRT_color,2021.2.3,Win32,21.45922747,,,,,,,,,,,,,,,,,,,3,0,3,0,1
,0.34,,,,,,,,,k,purple,6102c81e911700cf7ba5f6bd,2021-09-27_15h49.59.924,forced_choiceRT_color,2021.2.3,Win32,21.45922747,,,,,,,,5,Slow,long,k,1,2.121,0,0,0,3,1,,,,,
,1.95,,,,,,,,,d,orange,6102c81e911700cf7ba5f6bd,2021-09-27_15h49.59.924,forced_choiceRT_color,2021.2.3,Win32,21.45922747,,,,,,,,5,Slow,long,k,0,2.251,0,1,1,0,1,,,,,
,0.59,,,,,,,,,f,blue,6102c81e911700cf7ba5f6bd,2021-09-27_15h49.59.924,forced_choiceRT_color,2021.2.3,Win32,21.45922747,,,,,,,,5,Ontime,long,f,1,1.944,0,2,2,1,1,,,,,
,0.51,,,,,,,,,d,orange,6102c81e911700cf7ba5f6bd,2021-09-27_15h49.59.924,forced_choiceRT_color,2021.2.3,Win32,21.45922747,,,,,,,,5,Ontime,long,d,1,1.946,0,3,3,0,1,,,,,
,1.35,,,,,,,,,f,blue,6102c81e911700cf7ba5f6bd,2021-09-27_15h49.59.924,forced_choiceRT_color,2021.2.3,Win32,21.45922747,,,,,,,,5,Slow,long,f,1,2.318,1,0,4,1,1,,,,,
,0.16,,,,,,,,,k,purple,6102c81e911700cf7ba5f6bd,2021-09-27_15h49.59.924,forced_choiceRT_color,2021.2.3,Win32,21.45922747,,,,,,,,5,Ontime,long,k,1,1.956,1,1,5,3,1,,,,,
,1,,,,,,,,,k,purple,6102c81e911700cf7ba5f6bd,2021-09-27_15h49.59.924,forced_choiceRT_color,2021.2.3,Win32,21.45922747,,,,,,,,5,Ontime,long,k,1,2.02,1,2,6,3,1,,,,,
,1.72,,,,,,,,,j,red,6102c81e911700cf7ba5f6bd,2021-09-27_15h49.59.924,forced_choiceRT_color,2021.2.3,Win32,21.45922747,,,,,,,,5,Slow,long,f,0,2.823,1,3,7,2,1,,,,,
,1.73,,,,,,,,,f,blue,6102c81e911700cf7ba5f6bd,2021-09-27_15h49.59.924,forced_choiceRT_color,2021.2.3,Win32,21.45922747,,,,,,,,5,Slow,long,j,0,2.284,2,0,8,1,1,,,,,
,1.14,,,,,,,,,f,blue,6102c81e911700cf7ba5f6bd,2021-09-27_15h49.59.924,forced_choiceRT_color,2021.2.3,Win32,21.45922747,,,,,,,,5,Fast,long,f,1,1.891,2,1,9,1,1,,,,,
,1.53,,,,,,,,,f,blue,6102c81e911700cf7ba5f6bd,2021-09-27_15h49.59.924,forced_choiceRT_color,2021.2.3,Win32,21.45922747,,,,,,,,5,Ontime,long,f,1,2.08,2,2,10,1,1,,,,,
,1.79,,,,,,,,,d,orange,6102c81e911700cf7ba5f6bd,2021-09-27_15h49.59.924,forced_choiceRT_color,2021.2.3,Win32,21.45922747,,,,,,,,5,Slow,long,f,0,2.368,2,3,11,0,1,,,,,
,1.11,,,,,,,,,d,orange,6102c81e911700cf7ba5f6bd,2021-09-27_15h49.59.924,forced_choiceRT_color,2021.2.3,Win32,21.45922747,,,,,,,,5,Slow,long,d,1,2.207,3,0,12,0,1,,,,,
,0.27,,,,,,,,,k,purple,6102c81e911700cf7ba5f6bd,2021-09-27_15h49.59.924,forced_choiceRT_color,2021.2.3,Win32,21.45922747,,,,,,,,5,Fast,long,k,1,1.839,3,1,13,3,1,,,,,
,0.71,,,,,,,,,j,red,6102c81e911700cf7ba5f6bd,2021-09-27_15h49.59.924,forced_choiceRT_color,2021.2.3,Win32,21.45922747,,,,,,,,5,Slow,long,j,1,2.278,3,2,14,2,1,,,,,
,0.36,,,,,,,,,j,red,6102c81e911700cf7ba5f6bd,2021-09-27_15h49.59.924,forced_choiceRT_color,2021.2.3,Win32,21.45922747,,,,,,,,5,Slow,long,j,1,2.257,3,3,15,2,1,,,,,
,1.93,,,,,,,,,d,orange,6102c81e911700cf7ba5f6bd,2021-09-27_15h49.59.924,forced_choiceRT_color,2021.2.3,Win32,21.45922747,,,,,,,,5,Slow,long,j,0,2.13,4,0,16,0,1,,,,,
,0.66,,,,,,,,,j,red,6102c81e911700cf7ba5f6bd,2021-09-27_15h49.59.924,forced_choiceRT_color,2021.2.3,Win32,21.45922747,,,,,,,,5,Fast,long,d,0,1.867,4,1,17,2,1,,,,,
,1.29,,,,,,,,,d,orange,6102c81e911700cf7ba5f6bd,2021-09-27_15h49.59.924,forced_choiceRT_color,2021.2.3,Win32,21.45922747,,,,,,,,5,Slow,long,f,0,2.331,4,2,18,0,1,,,,,
,1.2,,,,,,,,,d,orange,6102c81e911700cf7ba5f6bd,2021-09-27_15h49.59.924,forced_choiceRT_color,2021.2.3,Win32,21.45922747,,,,,,,,5,Fast,long,d,1,1.785,4,3,19,0,1,,,,,
,0.12,,,,,,,,,k,purple,6102c81e911700cf7ba5f6bd,2021-09-27_15h49.59.924,forced_choiceRT_color,2021.2.3,Win32,21.45922747,,,,,,,,5,Ontime,long,k,1,1.996,5,0,20,3,1,,,,,
,1.6,,,,,,,,,j,red,6102c81e911700cf7ba5f6bd,2021-09-27_15h49.59.924,forced_choiceRT_color,2021.2.3,Win32,21.45922747,,,,,,,,5,Slow,long,j,1,2.23,5,1,21,2,1,,,,,
,0.43,,,,,,,,,k,purple,6102c81e911700cf7ba5f6bd,2021-09-27_15h49.59.924,forced_choiceRT_color,2021.2.3,Win32,21.45922747,,,,,,,,5,Slow,long,k,1,2.132,5,2,22,3,1,,,,,
,1.04,,,,,,,,,d,orange,6102c81e911700cf7ba5f6bd,2021-09-27_15h49.59.924,forced_choiceRT_color,2021.2.3,Win32,21.45922747,,,,,,,,5,Fast,long,d,1,1.751,5,3,23,0,1,,,,,
,1.41,,,,,,,,,f,blue,6102c81e911700cf7ba5f6bd,2021-09-27_15h49.59.924,forced_choiceRT_color,2021.2.3,Win32,21.45922747,,,,,,,,5,Slow,long,f,1,2.219,6,0,24,1,1,,,,,
,1.6,,,,,,,,,d,orange,6102c81e911700cf7ba5f6bd,2021-09-27_15h49.59.924,forced_choiceRT_color,2021.2.3,Win32,21.45922747,,,,,,,,5,Fast,long,d,1,1.803,6,1,25,0,1,,,,,
,1.06,,,,,,,,,d,orange,6102c81e911700cf7ba5f6bd,2021-09-27_15h49.59.924,forced_choiceRT_color,2021.2.3,Win32,21.45922747,,,,,,,,5,Fast,long,d,1,1.8,6,2,26,0,1,,,,,
,1.5,,,,,,,,,f,blue,6102c81e911700cf7ba5f6bd,2021-09-27_15h49.59.924,forced_choiceRT_color,2021.2.3,Win32,21.45922747,,,,,,,,5,Slow,long,f,1,2.435,6,3,27,1,1,,,,,
,0.8,,,,,,,,,j,red,6102c81e911700cf7ba5f6bd,2021-09-27_15h49.59.924,forced_choiceRT_color,2021.2.3,Win32,21.45922747,,,,,,,,5,Ontime,long,d,0,2.073,7,0,28,2,1,,,,,
,0.42,,,,,,,,,j,red,6102c81e911700cf7ba5f6bd,2021-09-27_15h49.59.924,forced_choiceRT_color,2021.2.3,Win32,21.45922747,,,,,,,,5,Ontime,long,j,1,2.021,7,1,29,2,1,,,,,
,1.63,,,,,,,,,f,blue,6102c81e911700cf7ba5f6bd,2021-09-27_15h49.59.924,forced_choiceRT_color,2021.2.3,Win32,21.45922747,,,,,,,,5,Slow,long,f,1,2.267,7,2,30,1,1,,,,,
,0.99,,,,,,,,,f,blue,6102c81e911700cf7ba5f6bd,2021-09-27_15h49.59.924,forced_choiceRT_color,2021.2.3,Win32,21.45922747,,,,,,,,5,Ontime,long,f,1,2.008,7,3,31,1,1,,,,,
,1,,,,,,,,,f,blue,6102c81e911700cf7ba5f6bd,2021-09-27_15h49.59.924,forced_choiceRT_color,2021.2.3,Win32,21.45922747,,,,,,,,5,Ontime,long,f,1,2.057,8,0,32,1,1,,,,,
,1.54,,,,,,,,,j,red,6102c81e911700cf7ba5f6bd,2021-09-27_15h49.59.924,forced_choiceRT_color,2021.2.3,Win32,21.45922747,,,,,,,,5,Slow,long,d,0,2.309,8,1,33,2,1,,,,,
,1.56,,,,,,,,,k,purple,6102c81e911700cf7ba5f6bd,2021-09-27_15h49.59.924,forced_choiceRT_color,2021.2.3,Win32,21.45922747,,,,,,,,5,Slow,long,k,1,2.207,8,2,34,3,1,,,,,
,1.69,,,,,,,,,j,red,6102c81e911700cf7ba5f6bd,2021-09-27_15h49.59.924,forced_choiceRT_color,2021.2.3,Win32,21.45922747,,,,,,,,5,Slow,long,j,1,2.32,8,3,35,2,1,,,,,
,0.63,,,,,,,,,k,purple,6102c81e911700cf7ba5f6bd,2021-09-27_15h49.59.924,forced_choiceRT_color,2021.2.3,Win32,21.45922747,,,,,,,,5,Ontime,long,k,1,2.072,9,0,36,3,1,,,,,
,0.49,,,,,,,,,j,red,6102c81e911700cf7ba5f6bd,2021-09-27_15h49.59.924,forced_choiceRT_color,2021.2.3,Win32,21.45922747,,,,,,,,5,Slow,long,j,1,2.131,9,1,37,2,1,,,,,
,0.73,,,,,,,,,k,purple,6102c81e911700cf7ba5f6bd,2021-09-27_15h49.59.924,forced_choiceRT_color,2021.2.3,Win32,21.45922747,,,,,,,,5,Slow,long,k,1,2.125,9,2,38,3,1,,,,,
,0.71,,,,,,,,,k,purple,6102c81e911700cf7ba5f6bd,2021-09-27_15h49.59.924,forced_choiceRT_color,2021.2.3,Win32,21.45922747,,,,,,,,5,Fast,long,k,1,1.885,9,3,39,3,1,,,,,
,,,,,,,,,,,,6102c81e911700cf7ba5f6bd,2021-09-27_15h49.59.924,forced_choiceRT_color,2021.2.3,Win32,21.45922747,,,,,,,,,,,,,,,,,,,4,0,4,0,1
,0.44,,,,,,,,,j,red,6102c81e911700cf7ba5f6bd,2021-09-27_15h49.59.924,forced_choiceRT_color,2021.2.3,Win32,21.45922747,,,,,,,,6,Ontime,long,j,1,2.031,0,0,0,2,1,,,,,
,0.59,,,,,,,,,f,blue,6102c81e911700cf7ba5f6bd,2021-09-27_15h49.59.924,forced_choiceRT_color,2021.2.3,Win32,21.45922747,,,,,,,,6,Ontime,long,f,1,1.961,0,1,1,1,1,,,,,
,0.67,,,,,,,,,j,red,6102c81e911700cf7ba5f6bd,2021-09-27_15h49.59.924,forced_choiceRT_color,2021.2.3,Win32,21.45922747,,,,,,,,6,Ontime,long,j,1,1.938,0,2,2,2,1,,,,,
,1.26,,,,,,,,,j,red,6102c81e911700cf7ba5f6bd,2021-09-27_15h49.59.924,forced_choiceRT_color,2021.2.3,Win32,21.45922747,,,,,,,,6,Ontime,long,j,1,2.038,0,3,3,2,1,,,,,
,1.06,,,,,,,,,f,blue,6102c81e911700cf7ba5f6bd,2021-09-27_15h49.59.924,forced_choiceRT_color,2021.2.3,Win32,21.45922747,,,,,,,,6,Ontime,long,f,1,2.021,1,0,4,1,1,,,,,
,0.55,,,,,,,,,j,red,6102c81e911700cf7ba5f6bd,2021-09-27_15h49.59.924,forced_choiceRT_color,2021.2.3,Win32,21.45922747,,,,,,,,6,Ontime,long,j,1,1.939,1,1,5,2,1,,,,,
,0.73,,,,,,,,,j,red,6102c81e911700cf7ba5f6bd,2021-09-27_15h49.59.924,forced_choiceRT_color,2021.2.3,Win32,21.45922747,,,,,,,,6,Ontime,long,j,1,1.932,1,2,6,2,1,,,,,
,0.24,,,,,,,,,f,blue,6102c81e911700cf7ba5f6bd,2021-09-27_15h49.59.924,forced_choiceRT_color,2021.2.3,Win32,21.45922747,,,,,,,,6,Fast,long,f,1,1.832,1,3,7,1,1,,,,,
,0.02,,,,,,,,,j,red,6102c81e911700cf7ba5f6bd,2021-09-27_15h49.59.924,forced_choiceRT_color,2021.2.3,Win32,21.45922747,,,,,,,,6,Ontime,long,j,1,2.077,2,0,8,2,1,,,,,
,1.42,,,,,,,,,f,blue,6102c81e911700cf7ba5f6bd,2021-09-27_15h49.59.924,forced_choiceRT_color,2021.2.3,Win32,21.45922747,,,,,,,,6,Slow,long,f,1,2.115,2,1,9,1,1,,,,,
,0.52,,,,,,,,,d,orange,6102c81e911700cf7ba5f6bd,2021-09-27_15h49.59.924,forced_choiceRT_color,2021.2.3,Win32,21.45922747,,,,,,,,6,Ontime,long,d,1,2.026,2,2,10,0,1,,,,,
,1.57,,,,,,,,,d,orange,6102c81e911700cf7ba5f6bd,2021-09-27_15h49.59.924,forced_choiceRT_color,2021.2.3,Win32,21.45922747,,,,,,,,6,Slow,long,d,1,2.129,2,3,11,0,1,,,,,
,1.45,,,,,,,,,d,orange,6102c81e911700cf7ba5f6bd,2021-09-27_15h49.59.924,forced_choiceRT_color,2021.2.3,Win32,21.45922747,,,,,,,,6,Ontime,long,d,1,1.963,3,0,12,0,1,,,,,
,1.98,,,,,,,,,k,purple,6102c81e911700cf7ba5f6bd,2021-09-27_15h49.59.924,forced_choiceRT_color,2021.2.3,Win32,21.45922747,,,,,,,,6,Slow,long,k,1,2.625,3,1,13,3,1,,,,,
,1.1,,,,,,,,,d,orange,6102c81e911700cf7ba5f6bd,2021-09-27_15h49.59.924,forced_choiceRT_color,2021.2.3,Win32,21.45922747,,,,,,,,6,Fast,long,d,1,1.766,3,2,14,0,1,,,,,
,1.57,,,,,,,,,k,purple,6102c81e911700cf7ba5f6bd,2021-09-27_15h49.59.924,forced_choiceRT_color,2021.2.3,Win32,21.45922747,,,,,,,,6,Slow,long,k,1,2.218,3,3,15,3,1,,,,,
,0.12,,,,,,,,,k,purple,6102c81e911700cf7ba5f6bd,2021-09-27_15h49.59.924,forced_choiceRT_color,2021.2.3,Win32,21.45922747,,,,,,,,6,Ontime,long,k,1,1.933,4,0,16,3,1,,,,,
,1.14,,,,,,,,,f,blue,6102c81e911700cf7ba5f6bd,2021-09-27_15h49.59.924,forced_choiceRT_color,2021.2.3,Win32,21.45922747,,,,,,,,6,Slow,long,f,1,2.105,4,1,17,1,1,,,,,
,1.97,,,,,,,,,j,red,6102c81e911700cf7ba5f6bd,2021-09-27_15h49.59.924,forced_choiceRT_color,2021.2.3,Win32,21.45922747,,,,,,,,6,Slow,long,j,1,2.587,4,2,18,2,1,,,,,
,1.07,,,,,,,,,d,orange,6102c81e911700cf7ba5f6bd,2021-09-27_15h49.59.924,forced_choiceRT_color,2021.2.3,Win32,21.45922747,,,,,,,,6,Fast,long,d,1,1.737,4,3,19,0,1,,,,,
,0.28,,,,,,,,,d,orange,6102c81e911700cf7ba5f6bd,2021-09-27_15h49.59.924,forced_choiceRT_color,2021.2.3,Win32,21.45922747,,,,,,,,6,Ontime,long,d,1,1.944,5,0,20,0,1,,,,,
,0.01,,,,,,,,,d,orange,6102c81e911700cf7ba5f6bd,2021-09-27_15h49.59.924,forced_choiceRT_color,2021.2.3,Win32,21.45922747,,,,,,,,6,Ontime,long,d,1,2.038,5,1,21,0,1,,,,,
,1.13,,,,,,,,,k,purple,6102c81e911700cf7ba5f6bd,2021-09-27_15h49.59.924,forced_choiceRT_color,2021.2.3,Win32,21.45922747,,,,,,,,6,Ontime,long,k,1,2.004,5,2,22,3,1,,,,,
,1.57,,,,,,,,,j,red,6102c81e911700cf7ba5f6bd,2021-09-27_15h49.59.924,forced_choiceRT_color,2021.2.3,Win32,21.45922747,,,,,,,,6,Slow,long,j,1,2.438,5,3,23,2,1,,,,,
,0.12,,,,,,,,,f,blue,6102c81e911700cf7ba5f6bd,2021-09-27_15h49.59.924,forced_choiceRT_color,2021.2.3,Win32,21.45922747,,,,,,,,6,Ontime,long,f,1,1.987,6,0,24,1,1,,,,,
,1.88,,,,,,,,,k,purple,6102c81e911700cf7ba5f6bd,2021-09-27_15h49.59.924,forced_choiceRT_color,2021.2.3,Win32,21.45922747,,,,,,,,6,Slow,long,k,1,2.379,6,1,25,3,1,,,,,
,1.79,,,,,,,,,k,purple,6102c81e911700cf7ba5f6bd,2021-09-27_15h49.59.924,forced_choiceRT_color,2021.2.3,Win32,21.45922747,,,,,,,,6,Ontime,long,j,0,2.086,6,2,26,3,1,,,,,
,1.48,,,,,,,,,d,orange,6102c81e911700cf7ba5f6bd,2021-09-27_15h49.59.924,forced_choiceRT_color,2021.2.3,Win32,21.45922747,,,,,,,,6,Ontime,long,d,1,2.065,6,3,27,0,1,,,,,
,0.63,,,,,,,,,f,blue,6102c81e911700cf7ba5f6bd,2021-09-27_15h49.59.924,forced_choiceRT_color,2021.2.3,Win32,21.45922747,,,,,,,,6,Ontime,long,f,1,2.031,7,0,28,1,1,,,,,
,0.15,,,,,,,,,f,blue,6102c81e911700cf7ba5f6bd,2021-09-27_15h49.59.924,forced_choiceRT_color,2021.2.3,Win32,21.45922747,,,,,,,,6,Ontime,long,f,1,1.915,7,1,29,1,1,,,,,
,1.73,,,,,,,,,k,purple,6102c81e911700cf7ba5f6bd,2021-09-27_15h49.59.924,forced_choiceRT_color,2021.2.3,Win32,21.45922747,,,,,,,,6,Slow,long,f,0,2.243,7,2,30,3,1,,,,,
,0.96,,,,,,,,,d,orange,6102c81e911700cf7ba5f6bd,2021-09-27_15h49.59.924,forced_choiceRT_color,2021.2.3,Win32,21.45922747,,,,,,,,6,Fast,long,d,1,1.806,7,3,31,0,1,,,,,
,1.29,,,,,,,,,j,red,6102c81e911700cf7ba5f6bd,2021-09-27_15h49.59.924,forced_choiceRT_color,2021.2.3,Win32,21.45922747,,,,,,,,6,Ontime,long,j,1,2.022,8,0,32,2,1,,,,,
,1.81,,,,,,,,,k,purple,6102c81e911700cf7ba5f6bd,2021-09-27_15h49.59.924,forced_choiceRT_color,2021.2.3,Win32,21.45922747,,,,,,,,6,Slow,long,j,0,2.225,8,1,33,3,1,,,,,
,0.85,,,,,,,,,d,orange,6102c81e911700cf7ba5f6bd,2021-09-27_15h49.59.924,forced_choiceRT_color,2021.2.3,Win32,21.45922747,,,,,,,,6,Ontime,long,d,1,1.916,8,2,34,0,1,,,,,
,0.8,,,,,,,,,f,blue,6102c81e911700cf7ba5f6bd,2021-09-27_15h49.59.924,forced_choiceRT_color,2021.2.3,Win32,21.45922747,,,,,,,,6,Slow,long,f,1,2.106,8,3,35,1,1,,,,,
,0.4,,,,,,,,,k,purple,6102c81e911700cf7ba5f6bd,2021-09-27_15h49.59.924,forced_choiceRT_color,2021.2.3,Win32,21.45922747,,,,,,,,6,Ontime,long,k,1,1.996,9,0,36,3,1,,,,,
,1.19,,,,,,,,,k,purple,6102c81e911700cf7ba5f6bd,2021-09-27_15h49.59.924,forced_choiceRT_color,2021.2.3,Win32,21.45922747,,,,,,,,6,Ontime,long,k,1,2.086,9,1,37,3,1,,,,,
,1.59,,,,,,,,,j,red,6102c81e911700cf7ba5f6bd,2021-09-27_15h49.59.924,forced_choiceRT_color,2021.2.3,Win32,21.45922747,,,,,,,,6,Slow,long,d,0,2.312,9,2,38,2,1,,,,,
,1.11,,,,,,,,,f,blue,6102c81e911700cf7ba5f6bd,2021-09-27_15h49.59.924,forced_choiceRT_color,2021.2.3,Win32,21.45922747,,,,,,,,6,Fast,long,f,1,1.885,9,3,39,1,1,,,,,
,,,,,,,,,,,,6102c81e911700cf7ba5f6bd,2021-09-27_15h49.59.924,forced_choiceRT_color,2021.2.3,Win32,21.45922747,,,,,,,,,,,,,,,,,,,5,0,5,0,1
,0.1,,,,,,,,,f,blue,6102c81e911700cf7ba5f6bd,2021-09-27_15h49.59.924,forced_choiceRT_color,2021.2.3,Win32,21.45922747,,,,,,,,7,Ontime,long,f,1,2.006,0,0,0,1,1,,,,,
,0.97,,,,,,,,,d,orange,6102c81e911700cf7ba5f6bd,2021-09-27_15h49.59.924,forced_choiceRT_color,2021.2.3,Win32,21.45922747,,,,,,,,7,Fast,long,d,1,1.795,0,1,1,0,1,,,,,
,0,,,,,,,,,d,orange,6102c81e911700cf7ba5f6bd,2021-09-27_15h49.59.924,forced_choiceRT_color,2021.2.3,Win32,21.45922747,,,,,,,,7,Slow,long,d,1,2.102,0,2,2,0,1,,,,,
,1.36,,,,,,,,,j,red,6102c81e911700cf7ba5f6bd,2021-09-27_15h49.59.924,forced_choiceRT_color,2021.2.3,Win32,21.45922747,,,,,,,,7,Ontime,long,j,1,2.083,0,3,3,2,1,,,,,
,0.4,,,,,,,,,j,red,6102c81e911700cf7ba5f6bd,2021-09-27_15h49.59.924,forced_choiceRT_color,2021.2.3,Win32,21.45922747,,,,,,,,7,Slow,long,j,1,2.102,1,0,4,2,1,,,,,
,0.05,,,,,,,,,k,purple,6102c81e911700cf7ba5f6bd,2021-09-27_15h49.59.924,forced_choiceRT_color,2021.2.3,Win32,21.45922747,,,,,,,,7,Ontime,long,k,1,1.96,1,1,5,3,1,,,,,
,1.45,,,,,,,,,j,red,6102c81e911700cf7ba5f6bd,2021-09-27_15h49.59.924,forced_choiceRT_color,2021.2.3,Win32,21.45922747,,,,,,,,7,Slow,long,j,1,2.163,1,2,6,2,1,,,,,
,1.18,,,,,,,,,k,purple,6102c81e911700cf7ba5f6bd,2021-09-27_15h49.59.924,forced_choiceRT_color,2021.2.3,Win32,21.45922747,,,,,,,,7,Ontime,long,k,1,1.938,1,3,7,3,1,,,,,
,0.12,,,,,,,,,k,purple,6102c81e911700cf7ba5f6bd,2021-09-27_15h49.59.924,forced_choiceRT_color,2021.2.3,Win32,21.45922747,,,,,,,,7,Ontime,long,k,1,1.97,2,0,8,3,1,,,,,
,1.31,,,,,,,,,j,red,6102c81e911700cf7ba5f6bd,2021-09-27_15h49.59.924,forced_choiceRT_color,2021.2.3,Win32,21.45922747,,,,,,,,7,Slow,long,j,1,2.907,2,1,9,2,1,,,,,
,1.52,,,,,,,,,f,blue,6102c81e911700cf7ba5f6bd,2021-09-27_15h49.59.924,forced_choiceRT_color,2021.2.3,Win32,21.45922747,,,,,,,,7,Slow,long,f,1,2.308,2,2,10,1,1,,,,,
,0.7,,,,,,,,,k,purple,6102c81e911700cf7ba5f6bd,2021-09-27_15h49.59.924,forced_choiceRT_color,2021.2.3,Win32,21.45922747,,,,,,,,7,Slow,long,k,1,2.387,2,3,11,3,1,,,,,
,0.04,,,,,,,,,d,orange,6102c81e911700cf7ba5f6bd,2021-09-27_15h49.59.924,forced_choiceRT_color,2021.2.3,Win32,21.45922747,,,,,,,,7,Ontime,long,d,1,2.013,3,0,12,0,1,,,,,
,1.89,,,,,,,,,k,purple,6102c81e911700cf7ba5f6bd,2021-09-27_15h49.59.924,forced_choiceRT_color,2021.2.3,Win32,21.45922747,,,,,,,,7,Slow,long,d,0,2.193,3,1,13,3,1,,,,,
,1.03,,,,,,,,,k,purple,6102c81e911700cf7ba5f6bd,2021-09-27_15h49.59.924,forced_choiceRT_color,2021.2.3,Win32,21.45922747,,,,,,,,7,Slow,long,k,1,2.102,3,2,14,3,1,,,,,
,1.47,,,,,,,,,d,orange,6102c81e911700cf7ba5f6bd,2021-09-27_15h49.59.924,forced_choiceRT_color,2021.2.3,Win32,21.45922747,,,,,,,,7,Slow,long,d,1,2.38,3,3,15,0,1,,,,,
,0.78,,,,,,,,,f,blue,6102c81e911700cf7ba5f6bd,2021-09-27_15h49.59.924,forced_choiceRT_color,2021.2.3,Win32,21.45922747,,,,,,,,7,Fast,long,f,1,1.502,4,0,16,1,1,,,,,
,0.32,,,,,,,,,f,blue,6102c81e911700cf7ba5f6bd,2021-09-27_15h49.59.924,forced_choiceRT_color,2021.2.3,Win32,21.45922747,,,,,,,,7,Slow,long,f,1,2.134,4,1,17,1,1,,,,,
,1.83,,,,,,,,,j,red,6102c81e911700cf7ba5f6bd,2021-09-27_15h49.59.924,forced_choiceRT_color,2021.2.3,Win32,21.45922747,,,,,,,,7,Slow,long,j,1,2.608,4,2,18,2,1,,,,,
,1.03,,,,,,,,,d,orange,6102c81e911700cf7ba5f6bd,2021-09-27_15h49.59.924,forced_choiceRT_color,2021.2.3,Win32,21.45922747,,,,,,,,7,Fast,long,d,1,1.766,4,3,19,0,1,,,,,
,1.54,,,,,,,,,d,orange,6102c81e911700cf7ba5f6bd,2021-09-27_15h49.59.924,forced_choiceRT_color,2021.2.3,Win32,21.45922747,,,,,,,,7,Slow,long,d,1,2.303,5,0,20,0,1,,,,,
,0.09,,,,,,,,,f,blue,6102c81e911700cf7ba5f6bd,2021-09-27_15h49.59.924,forced_choiceRT_color,2021.2.3,Win32,21.45922747,,,,,,,,7,Ontime,long,f,1,2.059,5,1,21,1,1,,,,,
,0.25,,,,,,,,,f,blue,6102c81e911700cf7ba5f6bd,2021-09-27_15h49.59.924,forced_choiceRT_color,2021.2.3,Win32,21.45922747,,,,,,,,7,Ontime,long,f,1,2.078,5,2,22,1,1,,,,,
,1.15,,,,,,,,,f,blue,6102c81e911700cf7ba5f6bd,2021-09-27_15h49.59.924,forced_choiceRT_color,2021.2.3,Win32,21.45922747,,,,,,,,7,Slow,long,f,1,2.254,5,3,23,1,1,,,,,
,0.26,,,,,,,,,f,blue,6102c81e911700cf7ba5f6bd,2021-09-27_15h49.59.924,forced_choiceRT_color,2021.2.3,Win32,21.45922747,,,,,,,,7,Ontime,long,f,1,2.021,6,0,24,1,1,,,,,
,1.5,,,,,,,,,j,red,6102c81e911700cf7ba5f6bd,2021-09-27_15h49.59.924,forced_choiceRT_color,2021.2.3,Win32,21.45922747,,,,,,,,7,Slow,long,j,1,2.126,6,1,25,2,1,,,,,
,0.55,,,,,,,,,k,purple,6102c81e911700cf7ba5f6bd,2021-09-27_15h49.59.924,forced_choiceRT_color,2021.2.3,Win32,21.45922747,,,,,,,,7,Ontime,long,k,1,2.042,6,2,26,3,1,,,,,
,1.55,,,,,,,,,j,red,6102c81e911700cf7ba5f6bd,2021-09-27_15h49.59.924,forced_choiceRT_color,2021.2.3,Win32,21.45922747,,,,,,,,7,Ontime,long,f,0,1.973,6,3,27,2,1,,,,,
,1.92,,,,,,,,,f,blue,6102c81e911700cf7ba5f6bd,2021-09-27_15h49.59.924,forced_choiceRT_color,2021.2.3,Win32,21.45922747,,,,,,,,7,Slow,long,f,1,2.569,7,0,28,1,1,,,,,
,1.44,,,,,,,,,j,red,6102c81e911700cf7ba5f6bd,2021-09-27_15h49.59.924,forced_choiceRT_color,2021.2.3,Win32,21.45922747,,,,,,,,7,Slow,long,j,1,2.286,7,1,29,2,1,,,,,
,1.28,,,,,,,,,d,orange,6102c81e911700cf7ba5f6bd,2021-09-27_15h49.59.924,forced_choiceRT_color,2021.2.3,Win32,21.45922747,,,,,,,,7,Slow,long,d,1,2.29,7,2,30,0,1,,,,,
,0.83,,,,,,,,,f,blue,6102c81e911700cf7ba5f6bd,2021-09-27_15h49.59.924,forced_choiceRT_color,2021.2.3,Win32,21.45922747,,,,,,,,7,Fast,long,f,1,1.782,7,3,31,1,1,,,,,
,0.65,,,,,,,,,j,red,6102c81e911700cf7ba5f6bd,2021-09-27_15h49.59.924,forced_choiceRT_color,2021.2.3,Win32,21.45922747,,,,,,,,7,Ontime,long,j,1,1.968,8,0,32,2,1,,,,,
,1.01,,,,,,,,,d,orange,6102c81e911700cf7ba5f6bd,2021-09-27_15h49.59.924,forced_choiceRT_color,2021.2.3,Win32,21.45922747,,,,,,,,7,Ontime,long,d,1,2.037,8,1,33,0,1,,,,,
,0.03,,,,,,,,,k,purple,6102c81e911700cf7ba5f6bd,2021-09-27_15h49.59.924,forced_choiceRT_color,2021.2.3,Win32,21.45922747,,,,,,,,7,Fast,long,k,1,1.674,8,2,34,3,1,,,,,
,1.95,,,,,,,,,d,orange,6102c81e911700cf7ba5f6bd,2021-09-27_15h49.59.924,forced_choiceRT_color,2021.2.3,Win32,21.45922747,,,,,,,,7,Ontime,long,j,0,2.069,8,3,35,0,1,,,,,
,0.68,,,,,,,,,d,orange,6102c81e911700cf7ba5f6bd,2021-09-27_15h49.59.924,forced_choiceRT_color,2021.2.3,Win32,21.45922747,,,,,,,,7,Ontime,long,d,1,2.083,9,0,36,0,1,,,,,
,0.75,,,,,,,,,k,purple,6102c81e911700cf7ba5f6bd,2021-09-27_15h49.59.924,forced_choiceRT_color,2021.2.3,Win32,21.45922747,,,,,,,,7,Ontime,long,k,1,1.989,9,1,37,3,1,,,,,
,0.84,,,,,,,,,j,red,6102c81e911700cf7ba5f6bd,2021-09-27_15h49.59.924,forced_choiceRT_color,2021.2.3,Win32,21.45922747,,,,,,,,7,Ontime,long,j,1,1.947,9,2,38,2,1,,,,,
,0.22,,,,,,,,,k,purple,6102c81e911700cf7ba5f6bd,2021-09-27_15h49.59.924,forced_choiceRT_color,2021.2.3,Win32,21.45922747,,,,,,,,7,Ontime,long,k,1,1.944,9,3,39,3,1,,,,,
,,,,,,,,,,,,6102c81e911700cf7ba5f6bd,2021-09-27_15h49.59.924,forced_choiceRT_color,2021.2.3,Win32,21.45922747,,,,,,,,,,,,,,,,,,,6,0,6,0,1
,1.92,,,,,,,,,k,purple,6102c81e911700cf7ba5f6bd,2021-09-27_15h49.59.924,forced_choiceRT_color,2021.2.3,Win32,21.45922747,,,,,,,,8,Slow,long,k,1,2.757,0,0,0,3,1,,,,,
,0.02,,,,,,,,,f,blue,6102c81e911700cf7ba5f6bd,2021-09-27_15h49.59.924,forced_choiceRT_color,2021.2.3,Win32,21.45922747,,,,,,,,8,Ontime,long,f,1,2.035,0,1,1,1,1,,,,,
,0.93,,,,,,,,,f,blue,6102c81e911700cf7ba5f6bd,2021-09-27_15h49.59.924,forced_choiceRT_color,2021.2.3,Win32,21.45922747,,,,,,,,8,Ontime,long,f,1,2.069,0,2,2,1,1,,,,,
,0.8,,,,,,,,,f,blue,6102c81e911700cf7ba5f6bd,2021-09-27_15h49.59.924,forced_choiceRT_color,2021.2.3,Win32,21.45922747,,,,,,,,8,Ontime,long,f,1,2.026,0,3,3,1,1,,,,,
,1.93,,,,,,,,,j,red,6102c81e911700cf7ba5f6bd,2021-09-27_15h49.59.924,forced_choiceRT_color,2021.2.3,Win32,21.45922747,,,,,,,,8,Slow,long,f,0,2.125,1,0,4,2,1,,,,,
,0.69,,,,,,,,,j,red,6102c81e911700cf7ba5f6bd,2021-09-27_15h49.59.924,forced_choiceRT_color,2021.2.3,Win32,21.45922747,,,,,,,,8,Slow,long,j,1,2.453,1,1,5,2,1,,,,,
,1.46,,,,,,,,,d,orange,6102c81e911700cf7ba5f6bd,2021-09-27_15h49.59.924,forced_choiceRT_color,2021.2.3,Win32,21.45922747,,,,,,,,8,Slow,long,d,1,2.174,1,2,6,0,1,,,,,
,1.38,,,,,,,,,d,orange,6102c81e911700cf7ba5f6bd,2021-09-27_15h49.59.924,forced_choiceRT_color,2021.2.3,Win32,21.45922747,,,,,,,,8,Ontime,long,d,1,2.037,1,3,7,0,1,,,,,
,0.85,,,,,,,,,d,orange,6102c81e911700cf7ba5f6bd,2021-09-27_15h49.59.924,forced_choiceRT_color,2021.2.3,Win32,21.45922747,,,,,,,,8,Slow,long,d,1,2.105,2,0,8,0,1,,,,,
,0.37,,,,,,,,,d,orange,6102c81e911700cf7ba5f6bd,2021-09-27_15h49.59.924,forced_choiceRT_color,2021.2.3,Win32,21.45922747,,,,,,,,8,Slow,long,d,1,2.126,2,1,9,0,1,,,,,
,0.89,,,,,,,,,f,blue,6102c81e911700cf7ba5f6bd,2021-09-27_15h49.59.924,forced_choiceRT_color,2021.2.3,Win32,21.45922747,,,,,,,,8,Ontime,long,f,1,2.077,2,2,10,1,1,,,,,
,0.04,,,,,,,,,j,red,6102c81e911700cf7ba5f6bd,2021-09-27_15h49.59.924,forced_choiceRT_color,2021.2.3,Win32,21.45922747,,,,,,,,8,Ontime,long,j,1,2.022,2,3,11,2,1,,,,,
,0.58,,,,,,,,,k,purple,6102c81e911700cf7ba5f6bd,2021-09-27_15h49.59.924,forced_choiceRT_color,2021.2.3,Win32,21.45922747,,,,,,,,8,Ontime,long,k,1,2.038,3,0,12,3,1,,,,,
,1.89,,,,,,,,,f,blue,6102c81e911700cf7ba5f6bd,2021-09-27_15h49.59.924,forced_choiceRT_color,2021.2.3,Win32,21.45922747,,,,,,,,8,Slow,long,j,0,2.473,3,1,13,1,1,,,,,
,0.32,,,,,,,,,k,purple,6102c81e911700cf7ba5f6bd,2021-09-27_15h49.59.924,forced_choiceRT_color,2021.2.3,Win32,21.45922747,,,,,,,,8,Ontime,long,k,1,2.029,3,2,14,3,1,,,,,
,1.56,,,,,,,,,f,blue,6102c81e911700cf7ba5f6bd,2021-09-27_15h49.59.924,forced_choiceRT_color,2021.2.3,Win32,21.45922747,,,,,,,,8,Slow,long,f,1,2.259,3,3,15,1,1,,,,,
,0.04,,,,,,,,,j,red,6102c81e911700cf7ba5f6bd,2021-09-27_15h49.59.924,forced_choiceRT_color,2021.2.3,Win32,21.45922747,,,,,,,,8,Ontime,long,j,1,2.069,4,0,16,2,1,,,,,
,0.62,,,,,,,,,j,red,6102c81e911700cf7ba5f6bd,2021-09-27_15h49.59.924,forced_choiceRT_color,2021.2.3,Win32,21.45922747,,,,,,,,8,Ontime,long,j,1,2.054,4,1,17,2,1,,,,,
,0.88,,,,,,,,,j,red,6102c81e911700cf7ba5f6bd,2021-09-27_15h49.59.924,forced_choiceRT_color,2021.2.3,Win32,21.45922747,,,,,,,,8,Ontime,long,j,1,2.043,4,2,18,2,1,,,,,
,1.49,,,,,,,,,k,purple,6102c81e911700cf7ba5f6bd,2021-09-27_15h49.59.924,forced_choiceRT_color,2021.2.3,Win32,21.45922747,,,,,,,,8,Slow,long,k,1,2.191,4,3,19,3,1,,,,,
,1.62,,,,,,,,,k,purple,6102c81e911700cf7ba5f6bd,2021-09-27_15h49.59.924,forced_choiceRT_color,2021.2.3,Win32,21.45922747,,,,,,,,8,Slow,long,k,1,2.164,5,0,20,3,1,,,,,
,0.54,,,,,,,,,k,purple,6102c81e911700cf7ba5f6bd,2021-09-27_15h49.59.924,forced_choiceRT_color,2021.2.3,Win32,21.45922747,,,,,,,,8,Ontime,long,k,1,1.985,5,1,21,3,1,,,,,
,1,,,,,,,,,d,orange,6102c81e911700cf7ba5f6bd,2021-09-27_15h49.59.924,forced_choiceRT_color,2021.2.3,Win32,21.45922747,,,,,,,,8,Ontime,long,d,1,2.059,5,2,22,0,1,,,,,
,0.96,,,,,,,,,d,orange,6102c81e911700cf7ba5f6bd,2021-09-27_15h49.59.924,forced_choiceRT_color,2021.2.3,Win32,21.45922747,,,,,,,,8,Ontime,long,d,1,2.049,5,3,23,0,1,,,,,
,1.27,,,,,,,,,k,purple,6102c81e911700cf7ba5f6bd,2021-09-27_15h49.59.924,forced_choiceRT_color,2021.2.3,Win32,21.45922747,,,,,,,,8,Slow,long,k,1,2.2,6,0,24,3,1,,,,,
,0.61,,,,,,,,,d,orange,6102c81e911700cf7ba5f6bd,2021-09-27_15h49.59.924,forced_choiceRT_color,2021.2.3,Win32,21.45922747,,,,,,,,8,Ontime,long,d,1,2.079,6,1,25,0,1,,,,,
,1.88,,,,,,,,,j,red,6102c81e911700cf7ba5f6bd,2021-09-27_15h49.59.924,forced_choiceRT_color,2021.2.3,Win32,21.45922747,,,,,,,,8,Slow,long,d,0,2.113,6,2,26,2,1,,,,,
,0.21,,,,,,,,,j,red,6102c81e911700cf7ba5f6bd,2021-09-27_15h49.59.924,forced_choiceRT_color,2021.2.3,Win32,21.45922747,,,,,,,,8,Ontime,long,j,1,2.032,6,3,27,2,1,,,,,
,0.98,,,,,,,,,j,red,6102c81e911700cf7ba5f6bd,2021-09-27_15h49.59.924,forced_choiceRT_color,2021.2.3,Win32,21.45922747,,,,,,,,8,Slow,long,j,1,2.676,7,0,28,2,1,,,,,
,0.23,,,,,,,,,d,orange,6102c81e911700cf7ba5f6bd,2021-09-27_15h49.59.924,forced_choiceRT_color,2021.2.3,Win32,21.45922747,,,,,,,,8,Ontime,long,d,1,1.952,7,1,29,0,1,,,,,
,0.13,,,,,,,,,d,orange,6102c81e911700cf7ba5f6bd,2021-09-27_15h49.59.924,forced_choiceRT_color,2021.2.3,Win32,21.45922747,,,,,,,,8,Ontime,long,d,1,2.049,7,2,30,0,1,,,,,
,0.88,,,,,,,,,d,orange,6102c81e911700cf7ba5f6bd,2021-09-27_15h49.59.924,forced_choiceRT_color,2021.2.3,Win32,21.45922747,,,,,,,,8,Slow,long,d,1,2.265,7,3,31,0,1,,,,,
,0.77,,,,,,,,,k,purple,6102c81e911700cf7ba5f6bd,2021-09-27_15h49.59.924,forced_choiceRT_color,2021.2.3,Win32,21.45922747,,,,,,,,8,Ontime,long,k,1,2.099,8,0,32,3,1,,,,,
,0.86,,,,,,,,,k,purple,6102c81e911700cf7ba5f6bd,2021-09-27_15h49.59.924,forced_choiceRT_color,2021.2.3,Win32,21.45922747,,,,,,,,8,Ontime,long,k,1,2.077,8,1,33,3,1,,,,,
,0.86,,,,,,,,,f,blue,6102c81e911700cf7ba5f6bd,2021-09-27_15h49.59.924,forced_choiceRT_color,2021.2.3,Win32,21.45922747,,,,,,,,8,Slow,long,f,1,2.113,8,2,34,1,1,,,,,
,1.14,,,,,,,,,f,blue,6102c81e911700cf7ba5f6bd,2021-09-27_15h49.59.924,forced_choiceRT_color,2021.2.3,Win32,21.45922747,,,,,,,,8,Ontime,long,f,1,2.096,8,3,35,1,1,,,,,
,1.31,,,,,,,,,k,purple,6102c81e911700cf7ba5f6bd,2021-09-27_15h49.59.924,forced_choiceRT_color,2021.2.3,Win32,21.45922747,,,,,,,,8,Ontime,long,k,1,1.936,9,0,36,3,1,,,,,
,0.62,,,,,,,,,f,blue,6102c81e911700cf7ba5f6bd,2021-09-27_15h49.59.924,forced_choiceRT_color,2021.2.3,Win32,21.45922747,,,,,,,,8,Ontime,long,f,1,1.936,9,1,37,1,1,,,,,
,1.97,,,,,,,,,j,red,6102c81e911700cf7ba5f6bd,2021-09-27_15h49.59.924,forced_choiceRT_color,2021.2.3,Win32,21.45922747,,,,,,,,8,Slow,long,j,1,2.659,9,2,38,2,1,,,,,
,0.32,,,,,,,,,f,blue,6102c81e911700cf7ba5f6bd,2021-09-27_15h49.59.924,forced_choiceRT_color,2021.2.3,Win32,21.45922747,,,,,,,,8,Ontime,long,f,1,2.001,9,3,39,1,1,,,,,
,,,,,,,,,,,,6102c81e911700cf7ba5f6bd,2021-09-27_15h49.59.924,forced_choiceRT_color,2021.2.3,Win32,21.45922747,,,,,,,,,,,,,,,,,,,7,0,7,0,1
,0.01,,,,,,,,,d,orange,6102c81e911700cf7ba5f6bd,2021-09-27_15h49.59.924,forced_choiceRT_color,2021.2.3,Win32,21.45922747,,,,,,,,9,Ontime,long,d,1,2.038,0,0,0,0,1,,,,,
,1.86,,,,,,,,,d,orange,6102c81e911700cf7ba5f6bd,2021-09-27_15h49.59.924,forced_choiceRT_color,2021.2.3,Win32,21.45922747,,,,,,,,9,Slow,long,d,1,2.454,0,1,1,0,1,,,,,
,0.73,,,,,,,,,j,red,6102c81e911700cf7ba5f6bd,2021-09-27_15h49.59.924,forced_choiceRT_color,2021.2.3,Win32,21.45922747,,,,,,,,9,Ontime,long,j,1,1.989,0,2,2,2,1,,,,,
,0.15,,,,,,,,,d,orange,6102c81e911700cf7ba5f6bd,2021-09-27_15h49.59.924,forced_choiceRT_color,2021.2.3,Win32,21.45922747,,,,,,,,9,Ontime,long,d,1,1.949,0,3,3,0,1,,,,,
,1.47,,,,,,,,,j,red,6102c81e911700cf7ba5f6bd,2021-09-27_15h49.59.924,forced_choiceRT_color,2021.2.3,Win32,21.45922747,,,,,,,,9,Slow,long,j,1,2.131,1,0,4,2,1,,,,,
,1.03,,,,,,,,,j,red,6102c81e911700cf7ba5f6bd,2021-09-27_15h49.59.924,forced_choiceRT_color,2021.2.3,Win32,21.45922747,,,,,,,,9,Ontime,long,j,1,2.055,1,1,5,2,1,,,,,
,1.46,,,,,,,,,f,blue,6102c81e911700cf7ba5f6bd,2021-09-27_15h49.59.924,forced_choiceRT_color,2021.2.3,Win32,21.45922747,,,,,,,,9,Ontime,long,f,1,2.091,1,2,6,1,1,,,,,
,0.46,,,,,,,,,j,red,6102c81e911700cf7ba5f6bd,2021-09-27_15h49.59.924,forced_choiceRT_color,2021.2.3,Win32,21.45922747,,,,,,,,9,Fast,long,j,1,1.804,1,3,7,2,1,,,,,
,1.95,,,,,,,,,j,red,6102c81e911700cf7ba5f6bd,2021-09-27_15h49.59.924,forced_choiceRT_color,2021.2.3,Win32,21.45922747,,,,,,,,9,Slow,long,j,1,2.34,2,0,8,2,1,,,,,
,0.36,,,,,,,,,j,red,6102c81e911700cf7ba5f6bd,2021-09-27_15h49.59.924,forced_choiceRT_color,2021.2.3,Win32,21.45922747,,,,,,,,9,Ontime,long,j,1,1.996,2,1,9,2,1,,,,,
,0.68,,,,,,,,,f,blue,6102c81e911700cf7ba5f6bd,2021-09-27_15h49.59.924,forced_choiceRT_color,2021.2.3,Win32,21.45922747,,,,,,,,9,Ontime,long,f,1,2.056,2,2,10,1,1,,,,,
,1.47,,,,,,,,,f,blue,6102c81e911700cf7ba5f6bd,2021-09-27_15h49.59.924,forced_choiceRT_color,2021.2.3,Win32,21.45922747,,,,,,,,9,Ontime,long,f,1,2.099,2,3,11,1,1,,,,,
,1.23,,,,,,,,,k,purple,6102c81e911700cf7ba5f6bd,2021-09-27_15h49.59.924,forced_choiceRT_color,2021.2.3,Win32,21.45922747,,,,,,,,9,Ontime,long,k,1,2.055,3,0,12,3,1,,,,,
,0.51,,,,,,,,,d,orange,6102c81e911700cf7ba5f6bd,2021-09-27_15h49.59.924,forced_choiceRT_color,2021.2.3,Win32,21.45922747,,,,,,,,9,Ontime,long,d,1,1.981,3,1,13,0,1,,,,,
,1.99,,,,,,,,,k,purple,6102c81e911700cf7ba5f6bd,2021-09-27_15h49.59.924,forced_choiceRT_color,2021.2.3,Win32,21.45922747,,,,,,,,9,Slow,long,d,0,2.295,3,2,14,3,1,,,,,
,0.92,,,,,,,,,k,purple,6102c81e911700cf7ba5f6bd,2021-09-27_15h49.59.924,forced_choiceRT_color,2021.2.3,Win32,21.45922747,,,,,,,,9,Ontime,long,k,1,1.971,3,3,15,3,1,,,,,
,1.87,,,,,,,,,f,blue,6102c81e911700cf7ba5f6bd,2021-09-27_15h49.59.924,forced_choiceRT_color,2021.2.3,Win32,21.45922747,,,,,,,,9,Slow,long,f,1,2.563,4,0,16,1,1,,,,,
,0.92,,,,,,,,,d,orange,6102c81e911700cf7ba5f6bd,2021-09-27_15h49.59.924,forced_choiceRT_color,2021.2.3,Win32,21.45922747,,,,,,,,9,Ontime,long,d,1,2.038,4,1,17,0,1,,,,,
,1.92,,,,,,,,,f,blue,6102c81e911700cf7ba5f6bd,2021-09-27_15h49.59.924,forced_choiceRT_color,2021.2.3,Win32,21.45922747,,,,,,,,9,Slow,long,j,0,2.447,4,2,18,1,1,,,,,
,1.14,,,,,,,,,d,orange,6102c81e911700cf7ba5f6bd,2021-09-27_15h49.59.924,forced_choiceRT_color,2021.2.3,Win32,21.45922747,,,,,,,,9,Fast,long,d,1,1.865,4,3,19,0,1,,,,,
,1.69,,,,,,,,,k,purple,6102c81e911700cf7ba5f6bd,2021-09-27_15h49.59.924,forced_choiceRT_color,2021.2.3,Win32,21.45922747,,,,,,,,9,Slow,long,k,1,2.472,5,0,20,3,1,,,,,
,0.59,,,,,,,,,k,purple,6102c81e911700cf7ba5f6bd,2021-09-27_15h49.59.924,forced_choiceRT_color,2021.2.3,Win32,21.45922747,,,,,,,,9,Slow,long,k,1,2.134,5,1,21,3,1,,,,,
,1.97,,,,,,,,,j,red,6102c81e911700cf7ba5f6bd,2021-09-27_15h49.59.924,forced_choiceRT_color,2021.2.3,Win32,21.45922747,,,,,,,,9,Ontime,long,d,0,2.011,5,2,22,2,1,,,,,
,1.67,,,,,,,,,f,blue,6102c81e911700cf7ba5f6bd,2021-09-27_15h49.59.924,forced_choiceRT_color,2021.2.3,Win32,21.45922747,,,,,,,,9,Ontime,long,j,0,2.052,5,3,23,1,1,,,,,
,1.31,,,,,,,,,f,blue,6102c81e911700cf7ba5f6bd,2021-09-27_15h49.59.924,forced_choiceRT_color,2021.2.3,Win32,21.45922747,,,,,,,,9,Fast,long,f,1,1.871,6,0,24,1,1,,,,,
,1.23,,,,,,,,,d,orange,6102c81e911700cf7ba5f6bd,2021-09-27_15h49.59.924,forced_choiceRT_color,2021.2.3,Win32,21.45922747,,,,,,,,9,Ontime,long,d,1,1.953,6,1,25,0,1,,,,,
,1.59,,,,,,,,,j,red,6102c81e911700cf7ba5f6bd,2021-09-27_15h49.59.924,forced_choiceRT_color,2021.2.3,Win32,21.45922747,,,,,,,,9,Slow,long,f,0,2.136,6,2,26,2,1,,,,,
,1.11,,,,,,,,,d,orange,6102c81e911700cf7ba5f6bd,2021-09-27_15h49.59.924,forced_choiceRT_color,2021.2.3,Win32,21.45922747,,,,,,,,9,Slow,long,d,1,2.15,6,3,27,0,1,,,,,
,1.06,,,,,,,,,f,blue,6102c81e911700cf7ba5f6bd,2021-09-27_15h49.59.924,forced_choiceRT_color,2021.2.3,Win32,21.45922747,,,,,,,,9,Fast,long,f,1,1.853,7,0,28,1,1,,,,,
,0.26,,,,,,,,,d,orange,6102c81e911700cf7ba5f6bd,2021-09-27_15h49.59.924,forced_choiceRT_color,2021.2.3,Win32,21.45922747,,,,,,,,9,Ontime,long,d,1,1.908,7,1,29,0,1,,,,,
,0.29,,,,,,,,,k,purple,6102c81e911700cf7ba5f6bd,2021-09-27_15h49.59.924,forced_choiceRT_color,2021.2.3,Win32,21.45922747,,,,,,,,9,Ontime,long,k,1,1.915,7,2,30,3,1,,,,,
,0.21,,,,,,,,,j,red,6102c81e911700cf7ba5f6bd,2021-09-27_15h49.59.924,forced_choiceRT_color,2021.2.3,Win32,21.45922747,,,,,,,,9,Fast,long,j,1,1.893,7,3,31,2,1,,,,,
,1.06,,,,,,,,,j,red,6102c81e911700cf7ba5f6bd,2021-09-27_15h49.59.924,forced_choiceRT_color,2021.2.3,Win32,21.45922747,,,,,,,,9,Ontime,long,j,1,2.073,8,0,32,2,1,,,,,
,0.92,,,,,,,,,k,purple,6102c81e911700cf7ba5f6bd,2021-09-27_15h49.59.924,forced_choiceRT_color,2021.2.3,Win32,21.45922747,,,,,,,,9,Ontime,long,k,1,2.04,8,1,33,3,1,,,,,
,1.83,,,,,,,,,f,blue,6102c81e911700cf7ba5f6bd,2021-09-27_15h49.59.924,forced_choiceRT_color,2021.2.3,Win32,21.45922747,,,,,,,,9,Slow,long,d,0,2.504,8,2,34,1,1,,,,,
,1.24,,,,,,,,,k,purple,6102c81e911700cf7ba5f6bd,2021-09-27_15h49.59.924,forced_choiceRT_color,2021.2.3,Win32,21.45922747,,,,,,,,9,Slow,long,k,1,2.192,8,3,35,3,1,,,,,
,0.95,,,,,,,,,k,purple,6102c81e911700cf7ba5f6bd,2021-09-27_15h49.59.924,forced_choiceRT_color,2021.2.3,Win32,21.45922747,,,,,,,,9,Ontime,long,k,1,1.952,9,0,36,3,1,,,,,
,0.55,,,,,,,,,f,blue,6102c81e911700cf7ba5f6bd,2021-09-27_15h49.59.924,forced_choiceRT_color,2021.2.3,Win32,21.45922747,,,,,,,,9,Ontime,long,f,1,2.084,9,1,37,1,1,,,,,
,0.51,,,,,,,,,d,orange,6102c81e911700cf7ba5f6bd,2021-09-27_15h49.59.924,forced_choiceRT_color,2021.2.3,Win32,21.45922747,,,,,,,,9,Ontime,long,d,1,1.976,9,2,38,0,1,,,,,
,1.35,,,,,,,,,k,purple,6102c81e911700cf7ba5f6bd,2021-09-27_15h49.59.924,forced_choiceRT_color,2021.2.3,Win32,21.45922747,,,,,,,,9,Slow,long,k,1,2.169,9,3,39,3,1,,,,,
,,,,,,,,,,,,6102c81e911700cf7ba5f6bd,2021-09-27_15h49.59.924,forced_choiceRT_color,2021.2.3,Win32,21.45922747,,,,,,,,,,,,,,,,,,,8,0,8,0,1
,1.02,,,,,,,,,d,orange,6102c81e911700cf7ba5f6bd,2021-09-27_15h49.59.924,forced_choiceRT_color,2021.2.3,Win32,21.45922747,,,,,,,,10,Ontime,long,d,1,2.018,0,0,0,0,1,,,,,
,1.21,,,,,,,,,j,red,6102c81e911700cf7ba5f6bd,2021-09-27_15h49.59.924,forced_choiceRT_color,2021.2.3,Win32,21.45922747,,,,,,,,10,Fast,long,j,1,1.838,0,1,1,2,1,,,,,
,1.98,,,,,,,,,j,red,6102c81e911700cf7ba5f6bd,2021-09-27_15h49.59.924,forced_choiceRT_color,2021.2.3,Win32,21.45922747,,,,,,,,10,Slow,long,d,0,2.149,0,2,2,2,1,,,,,
,1.43,,,,,,,,,j,red,6102c81e911700cf7ba5f6bd,2021-09-27_15h49.59.924,forced_choiceRT_color,2021.2.3,Win32,21.45922747,,,,,,,,10,Ontime,long,j,1,1.903,0,3,3,2,1,,,,,
,0.46,,,,,,,,,k,purple,6102c81e911700cf7ba5f6bd,2021-09-27_15h49.59.924,forced_choiceRT_color,2021.2.3,Win32,21.45922747,,,,,,,,10,Ontime,long,k,1,1.956,1,0,4,3,1,,,,,
,0.44,,,,,,,,,j,red,6102c81e911700cf7ba5f6bd,2021-09-27_15h49.59.924,forced_choiceRT_color,2021.2.3,Win32,21.45922747,,,,,,,,10,Ontime,long,j,1,1.954,1,1,5,2,1,,,,,
,0.38,,,,,,,,,f,blue,6102c81e911700cf7ba5f6bd,2021-09-27_15h49.59.924,forced_choiceRT_color,2021.2.3,Win32,21.45922747,,,,,,,,10,Ontime,long,f,1,2.083,1,2,6,1,1,,,,,
,1.91,,,,,,,,,f,blue,6102c81e911700cf7ba5f6bd,2021-09-27_15h49.59.924,forced_choiceRT_color,2021.2.3,Win32,21.45922747,,,,,,,,10,Slow,long,f,1,2.374,1,3,7,1,1,,,,,
,1.54,,,,,,,,,d,orange,6102c81e911700cf7ba5f6bd,2021-09-27_15h49.59.924,forced_choiceRT_color,2021.2.3,Win32,21.45922747,,,,,,,,10,Slow,long,j,0,2.106,2,0,8,0,1,,,,,
,1.64,,,,,,,,,k,purple,6102c81e911700cf7ba5f6bd,2021-09-27_15h49.59.924,forced_choiceRT_color,2021.2.3,Win32,21.45922747,,,,,,,,10,Slow,long,k,1,2.246,2,1,9,3,1,,,,,
,1.53,,,,,,,,,d,orange,6102c81e911700cf7ba5f6bd,2021-09-27_15h49.59.924,forced_choiceRT_color,2021.2.3,Win32,21.45922747,,,,,,,,10,Slow,long,d,1,2.149,2,2,10,0,1,,,,,
,1.73,,,,,,,,,d,orange,6102c81e911700cf7ba5f6bd,2021-09-27_15h49.59.924,forced_choiceRT_color,2021.2.3,Win32,21.45922747,,,,,,,,10,Slow,long,d,1,2.42,2,3,11,0,1,,,,,
,1.85,,,,,,,,,d,orange,6102c81e911700cf7ba5f6bd,2021-09-27_15h49.59.924,forced_choiceRT_color,2021.2.3,Win32,21.45922747,,,,,,,,10,Slow,long,d,1,2.32,3,0,12,0,1,,,,,
,1.31,,,,,,,,,f,blue,6102c81e911700cf7ba5f6bd,2021-09-27_15h49.59.924,forced_choiceRT_color,2021.2.3,Win32,21.45922747,,,,,,,,10,Ontime,long,f,1,2.041,3,1,13,1,1,,,,,
,1.89,,,,,,,,,j,red,6102c81e911700cf7ba5f6bd,2021-09-27_15h49.59.924,forced_choiceRT_color,2021.2.3,Win32,21.45922747,,,,,,,,10,Slow,long,j,1,2.657,3,2,14,2,1,,,,,
,0.82,,,,,,,,,d,orange,6102c81e911700cf7ba5f6bd,2021-09-27_15h49.59.924,forced_choiceRT_color,2021.2.3,Win32,21.45922747,,,,,,,,10,Fast,long,d,1,1.544,3,3,15,0,1,,,,,
,1.31,,,,,,,,,f,blue,6102c81e911700cf7ba5f6bd,2021-09-27_15h49.59.924,forced_choiceRT_color,2021.2.3,Win32,21.45922747,,,,,,,,10,Slow,long,f,1,2.238,4,0,16,1,1,,,,,
,0.17,,,,,,,,,j,red,6102c81e911700cf7ba5f6bd,2021-09-27_15h49.59.924,forced_choiceRT_color,2021.2.3,Win32,21.45922747,,,,,,,,10,Slow,long,j,1,2.105,4,1,17,2,1,,,,,
,1.32,,,,,,,,,f,blue,6102c81e911700cf7ba5f6bd,2021-09-27_15h49.59.924,forced_choiceRT_color,2021.2.3,Win32,21.45922747,,,,,,,,10,Ontime,long,f,1,1.923,4,2,18,1,1,,,,,
,1.52,,,,,,,,,k,purple,6102c81e911700cf7ba5f6bd,2021-09-27_15h49.59.924,forced_choiceRT_color,2021.2.3,Win32,21.45922747,,,,,,,,10,Slow,long,k,1,2.111,4,3,19,3,1,,,,,
,0,,,,,,,,,k,purple,6102c81e911700cf7ba5f6bd,2021-09-27_15h49.59.924,forced_choiceRT_color,2021.2.3,Win32,21.45922747,,,,,,,,10,Slow,long,k,1,2.117,5,0,20,3,1,,,,,
,1.66,,,,,,,,,d,orange,6102c81e911700cf7ba5f6bd,2021-09-27_15h49.59.924,forced_choiceRT_color,2021.2.3,Win32,21.45922747,,,,,,,,10,Slow,long,f,0,2.259,5,1,21,0,1,,,,,
,1.57,,,,,,,,,d,orange,6102c81e911700cf7ba5f6bd,2021-09-27_15h49.59.924,forced_choiceRT_color,2021.2.3,Win32,21.45922747,,,,,,,,10,Ontime,long,d,1,2.087,5,2,22,0,1,,,,,
,1.6,,,,,,,,,k,purple,6102c81e911700cf7ba5f6bd,2021-09-27_15h49.59.924,forced_choiceRT_color,2021.2.3,Win32,21.45922747,,,,,,,,10,Slow,long,f,0,2.25,5,3,23,3,1,,,,,
,0.04,,,,,,,,,d,orange,6102c81e911700cf7ba5f6bd,2021-09-27_15h49.59.924,forced_choiceRT_color,2021.2.3,Win32,21.45922747,,,,,,,,10,Slow,long,d,1,2.696,6,0,24,0,1,,,,,
,1.34,,,,,,,,,j,red,6102c81e911700cf7ba5f6bd,2021-09-27_15h49.59.924,forced_choiceRT_color,2021.2.3,Win32,21.45922747,,,,,,,,10,Ontime,long,j,1,2.02,6,1,25,2,1,,,,,
,0.17,,,,,,,,,j,red,6102c81e911700cf7ba5f6bd,2021-09-27_15h49.59.924,forced_choiceRT_color,2021.2.3,Win32,21.45922747,,,,,,,,10,Ontime,long,j,1,1.986,6,2,26,2,1,,,,,
,0.26,,,,,,,,,j,red,6102c81e911700cf7ba5f6bd,2021-09-27_15h49.59.924,forced_choiceRT_color,2021.2.3,Win32,21.45922747,,,,,,,,10,Ontime,long,j,1,1.925,6,3,27,2,1,,,,,
,1.49,,,,,,,,,k,purple,6102c81e911700cf7ba5f6bd,2021-09-27_15h49.59.924,forced_choiceRT_color,2021.2.3,Win32,21.45922747,,,,,,,,10,Slow,long,k,1,2.56,7,0,28,3,1,,,,,
,1.01,,,,,,,,,k,purple,6102c81e911700cf7ba5f6bd,2021-09-27_15h49.59.924,forced_choiceRT_color,2021.2.3,Win32,21.45922747,,,,,,,,10,Ontime,long,k,1,2.039,7,1,29,3,1,,,,,
,0.11,,,,,,,,,d,orange,6102c81e911700cf7ba5f6bd,2021-09-27_15h49.59.924,forced_choiceRT_color,2021.2.3,Win32,21.45922747,,,,,,,,10,Ontime,long,d,1,1.954,7,2,30,0,1,,,,,
,1.17,,,,,,,,,f,blue,6102c81e911700cf7ba5f6bd,2021-09-27_15h49.59.924,forced_choiceRT_color,2021.2.3,Win32,21.45922747,,,,,,,,10,Ontime,long,f,1,2.016,7,3,31,1,1,,,,,
,1.29,,,,,,,,,f,blue,6102c81e911700cf7ba5f6bd,2021-09-27_15h49.59.924,forced_choiceRT_color,2021.2.3,Win32,21.45922747,,,,,,,,10,Ontime,long,f,1,1.973,8,0,32,1,1,,,,,
,1.36,,,,,,,,,f,blue,6102c81e911700cf7ba5f6bd,2021-09-27_15h49.59.924,forced_choiceRT_color,2021.2.3,Win32,21.45922747,,,,,,,,10,Ontime,long,f,1,1.962,8,1,33,1,1,,,,,
,0.88,,,,,,,,,k,purple,6102c81e911700cf7ba5f6bd,2021-09-27_15h49.59.924,forced_choiceRT_color,2021.2.3,Win32,21.45922747,,,,,,,,10,Fast,long,k,1,1.776,8,2,34,3,1,,,,,
,0.46,,,,,,,,,k,purple,6102c81e911700cf7ba5f6bd,2021-09-27_15h49.59.924,forced_choiceRT_color,2021.2.3,Win32,21.45922747,,,,,,,,10,Fast,long,k,1,1.898,8,3,35,3,1,,,,,
,0.72,,,,,,,,,k,purple,6102c81e911700cf7ba5f6bd,2021-09-27_15h49.59.924,forced_choiceRT_color,2021.2.3,Win32,21.45922747,,,,,,,,10,Ontime,long,k,1,2.042,9,0,36,3,1,,,,,
,1.91,,,,,,,,,f,blue,6102c81e911700cf7ba5f6bd,2021-09-27_15h49.59.924,forced_choiceRT_color,2021.2.3,Win32,21.45922747,,,,,,,,10,Slow,long,k,0,2.338,9,1,37,1,1,,,,,
,0.31,,,,,,,,,j,red,6102c81e911700cf7ba5f6bd,2021-09-27_15h49.59.924,forced_choiceRT_color,2021.2.3,Win32,21.45922747,,,,,,,,10,Ontime,long,d,0,2.033,9,2,38,2,1,,,,,
,1.36,,,,,,,,,f,blue,6102c81e911700cf7ba5f6bd,2021-09-27_15h49.59.924,forced_choiceRT_color,2021.2.3,Win32,21.45922747,,,,,,,,10,Slow,long,f,1,2.247,9,3,39,1,1,,,,,
,,,,,,,,,,,,6102c81e911700cf7ba5f6bd,2021-09-27_15h49.59.924,forced_choiceRT_color,2021.2.3,Win32,21.45922747,,,,,,,,,,,,,,,,,,,9,0,9,0,1
