target_onset,trial_resp_sp.keys,trial_resp_sp.corr,trial_resp_sp.rt,trials_train_loop.thisRepN,trials_train_loop.thisTrialN,trials_train_loop.thisN,trials_train_loop.thisIndex,trials_train_loop.ran,correct_key,color,participant,date,expName,psychopyVersion,OS,frameRate,trial_resp_timing.keys,trial_resp_timing.rt,trials_train_timing.thisRepN,trials_train_timing.thisTrialN,trials_train_timing.thisN,trials_train_timing.thisIndex,trials_train_timing.ran,block_id,ontime,feedback_cond,forcedRT_resp.keys,forcedRT_resp.corr,forcedRT_resp.rt,trials.thisRepN,trials.thisTrialN,trials.thisN,trials.thisIndex,trials.ran,blocks.thisRepN,blocks.thisTrialN,blocks.thisN,blocks.thisIndex,blocks.ran
0,d,1,3.275,0,0,0,0,1,d,orange,6103adf779d6468e50941433,2021-10-22_15h30.17.981,forced_choiceRT_color,2021.2.3,Win32,59.88023952,,,,,,,,,,,,,,,,,,,,,,,
0,d,1,0.771,0,1,1,0,1,d,orange,6103adf779d6468e50941433,2021-10-22_15h30.17.981,forced_choiceRT_color,2021.2.3,Win32,59.88023952,,,,,,,,,,,,,,,,,,,,,,,
0,f,1,1.121,0,2,2,1,1,f,blue,6103adf779d6468e50941433,2021-10-22_15h30.17.981,forced_choiceRT_color,2021.2.3,Win32,59.88023952,,,,,,,,,,,,,,,,,,,,,,,
0,d,1,0.67,0,3,3,0,1,d,orange,6103adf779d6468e50941433,2021-10-22_15h30.17.981,forced_choiceRT_color,2021.2.3,Win32,59.88023952,,,,,,,,,,,,,,,,,,,,,,,
0,k,1,0.683,1,0,4,3,1,k,purple,6103adf779d6468e50941433,2021-10-22_15h30.17.981,forced_choiceRT_color,2021.2.3,Win32,59.88023952,,,,,,,,,,,,,,,,,,,,,,,
0,j,1,0.653,1,1,5,2,1,j,red,6103adf779d6468e50941433,2021-10-22_15h30.17.981,forced_choiceRT_color,2021.2.3,Win32,59.88023952,,,,,,,,,,,,,,,,,,,,,,,
0,j,1,0.536,1,2,6,2,1,j,red,6103adf779d6468e50941433,2021-10-22_15h30.17.981,forced_choiceRT_color,2021.2.3,Win32,59.88023952,,,,,,,,,,,,,,,,,,,,,,,
0,f,1,0.61,1,3,7,1,1,f,blue,6103adf779d6468e50941433,2021-10-22_15h30.17.981,forced_choiceRT_color,2021.2.3,Win32,59.88023952,,,,,,,,,,,,,,,,,,,,,,,
0,k,1,0.577,2,0,8,3,1,k,purple,6103adf779d6468e50941433,2021-10-22_15h30.17.981,forced_choiceRT_color,2021.2.3,Win32,59.88023952,,,,,,,,,,,,,,,,,,,,,,,
0,j,1,0.787,2,1,9,2,1,j,red,6103adf779d6468e50941433,2021-10-22_15h30.17.981,forced_choiceRT_color,2021.2.3,Win32,59.88023952,,,,,,,,,,,,,,,,,,,,,,,
0,d,1,0.605,2,2,10,0,1,d,orange,6103adf779d6468e50941433,2021-10-22_15h30.17.981,forced_choiceRT_color,2021.2.3,Win32,59.88023952,,,,,,,,,,,,,,,,,,,,,,,
0,k,1,0.59,2,3,11,3,1,k,purple,6103adf779d6468e50941433,2021-10-22_15h30.17.981,forced_choiceRT_color,2021.2.3,Win32,59.88023952,,,,,,,,,,,,,,,,,,,,,,,
0,k,1,0.554,3,0,12,3,1,k,purple,6103adf779d6468e50941433,2021-10-22_15h30.17.981,forced_choiceRT_color,2021.2.3,Win32,59.88023952,,,,,,,,,,,,,,,,,,,,,,,
0,j,1,0.658,3,1,13,2,1,j,red,6103adf779d6468e50941433,2021-10-22_15h30.17.981,forced_choiceRT_color,2021.2.3,Win32,59.88023952,,,,,,,,,,,,,,,,,,,,,,,
0,j,1,0.603,3,2,14,2,1,j,red,6103adf779d6468e50941433,2021-10-22_15h30.17.981,forced_choiceRT_color,2021.2.3,Win32,59.88023952,,,,,,,,,,,,,,,,,,,,,,,
0,j,1,0.494,3,3,15,2,1,j,red,6103adf779d6468e50941433,2021-10-22_15h30.17.981,forced_choiceRT_color,2021.2.3,Win32,59.88023952,,,,,,,,,,,,,,,,,,,,,,,
0,f,1,0.706,4,0,16,1,1,f,blue,6103adf779d6468e50941433,2021-10-22_15h30.17.981,forced_choiceRT_color,2021.2.3,Win32,59.88023952,,,,,,,,,,,,,,,,,,,,,,,
0,j,1,0.709,4,1,17,2,1,j,red,6103adf779d6468e50941433,2021-10-22_15h30.17.981,forced_choiceRT_color,2021.2.3,Win32,59.88023952,,,,,,,,,,,,,,,,,,,,,,,
0,k,1,0.466,4,2,18,3,1,k,purple,6103adf779d6468e50941433,2021-10-22_15h30.17.981,forced_choiceRT_color,2021.2.3,Win32,59.88023952,,,,,,,,,,,,,,,,,,,,,,,
0,d,1,0.556,4,3,19,0,1,d,orange,6103adf779d6468e50941433,2021-10-22_15h30.17.981,forced_choiceRT_color,2021.2.3,Win32,59.88023952,,,,,,,,,,,,,,,,,,,,,,,
0,f,1,0.624,5,0,20,1,1,f,blue,6103adf779d6468e50941433,2021-10-22_15h30.17.981,forced_choiceRT_color,2021.2.3,Win32,59.88023952,,,,,,,,,,,,,,,,,,,,,,,
0,d,1,0.553,5,1,21,0,1,d,orange,6103adf779d6468e50941433,2021-10-22_15h30.17.981,forced_choiceRT_color,2021.2.3,Win32,59.88023952,,,,,,,,,,,,,,,,,,,,,,,
0,f,1,0.67,5,2,22,1,1,f,blue,6103adf779d6468e50941433,2021-10-22_15h30.17.981,forced_choiceRT_color,2021.2.3,Win32,59.88023952,,,,,,,,,,,,,,,,,,,,,,,
0,d,1,0.621,5,3,23,0,1,d,orange,6103adf779d6468e50941433,2021-10-22_15h30.17.981,forced_choiceRT_color,2021.2.3,Win32,59.88023952,,,,,,,,,,,,,,,,,,,,,,,
0,k,1,0.554,6,0,24,3,1,k,purple,6103adf779d6468e50941433,2021-10-22_15h30.17.981,forced_choiceRT_color,2021.2.3,Win32,59.88023952,,,,,,,,,,,,,,,,,,,,,,,
0,k,1,0.474,6,1,25,3,1,k,purple,6103adf779d6468e50941433,2021-10-22_15h30.17.981,forced_choiceRT_color,2021.2.3,Win32,59.88023952,,,,,,,,,,,,,,,,,,,,,,,
0,d,1,0.716,6,2,26,0,1,d,orange,6103adf779d6468e50941433,2021-10-22_15h30.17.981,forced_choiceRT_color,2021.2.3,Win32,59.88023952,,,,,,,,,,,,,,,,,,,,,,,
0,f,1,0.674,6,3,27,1,1,f,blue,6103adf779d6468e50941433,2021-10-22_15h30.17.981,forced_choiceRT_color,2021.2.3,Win32,59.88023952,,,,,,,,,,,,,,,,,,,,,,,
0,d,1,0.623,7,0,28,0,1,d,orange,6103adf779d6468e50941433,2021-10-22_15h30.17.981,forced_choiceRT_color,2021.2.3,Win32,59.88023952,,,,,,,,,,,,,,,,,,,,,,,
0,j,1,0.7,7,1,29,2,1,j,red,6103adf779d6468e50941433,2021-10-22_15h30.17.981,forced_choiceRT_color,2021.2.3,Win32,59.88023952,,,,,,,,,,,,,,,,,,,,,,,
0,f,1,0.638,7,2,30,1,1,f,blue,6103adf779d6468e50941433,2021-10-22_15h30.17.981,forced_choiceRT_color,2021.2.3,Win32,59.88023952,,,,,,,,,,,,,,,,,,,,,,,
0,d,1,0.511,7,3,31,0,1,d,orange,6103adf779d6468e50941433,2021-10-22_15h30.17.981,forced_choiceRT_color,2021.2.3,Win32,59.88023952,,,,,,,,,,,,,,,,,,,,,,,
0,j,1,0.684,8,0,32,2,1,j,red,6103adf779d6468e50941433,2021-10-22_15h30.17.981,forced_choiceRT_color,2021.2.3,Win32,59.88023952,,,,,,,,,,,,,,,,,,,,,,,
0,f,1,0.642,8,1,33,1,1,f,blue,6103adf779d6468e50941433,2021-10-22_15h30.17.981,forced_choiceRT_color,2021.2.3,Win32,59.88023952,,,,,,,,,,,,,,,,,,,,,,,
0,k,1,0.555,8,2,34,3,1,k,purple,6103adf779d6468e50941433,2021-10-22_15h30.17.981,forced_choiceRT_color,2021.2.3,Win32,59.88023952,,,,,,,,,,,,,,,,,,,,,,,
0,f,1,0.565,8,3,35,1,1,f,blue,6103adf779d6468e50941433,2021-10-22_15h30.17.981,forced_choiceRT_color,2021.2.3,Win32,59.88023952,,,,,,,,,,,,,,,,,,,,,,,
0,j,1,0.593,9,0,36,2,1,j,red,6103adf779d6468e50941433,2021-10-22_15h30.17.981,forced_choiceRT_color,2021.2.3,Win32,59.88023952,,,,,,,,,,,,,,,,,,,,,,,
0,k,1,0.55,9,1,37,3,1,k,purple,6103adf779d6468e50941433,2021-10-22_15h30.17.981,forced_choiceRT_color,2021.2.3,Win32,59.88023952,,,,,,,,,,,,,,,,,,,,,,,
0,f,1,0.634,9,2,38,1,1,f,blue,6103adf779d6468e50941433,2021-10-22_15h30.17.981,forced_choiceRT_color,2021.2.3,Win32,59.88023952,,,,,,,,,,,,,,,,,,,,,,,
0,f,1,0.587,9,3,39,1,1,f,blue,6103adf779d6468e50941433,2021-10-22_15h30.17.981,forced_choiceRT_color,2021.2.3,Win32,59.88023952,,,,,,,,,,,,,,,,,,,,,,,
0,j,1,0.759,10,0,40,2,1,j,red,6103adf779d6468e50941433,2021-10-22_15h30.17.981,forced_choiceRT_color,2021.2.3,Win32,59.88023952,,,,,,,,,,,,,,,,,,,,,,,
0,j,1,0.517,10,1,41,2,1,j,red,6103adf779d6468e50941433,2021-10-22_15h30.17.981,forced_choiceRT_color,2021.2.3,Win32,59.88023952,,,,,,,,,,,,,,,,,,,,,,,
0,k,1,0.575,10,2,42,3,1,k,purple,6103adf779d6468e50941433,2021-10-22_15h30.17.981,forced_choiceRT_color,2021.2.3,Win32,59.88023952,,,,,,,,,,,,,,,,,,,,,,,
0,d,1,0.744,10,3,43,0,1,d,orange,6103adf779d6468e50941433,2021-10-22_15h30.17.981,forced_choiceRT_color,2021.2.3,Win32,59.88023952,,,,,,,,,,,,,,,,,,,,,,,
0,k,1,0.551,11,0,44,3,1,k,purple,6103adf779d6468e50941433,2021-10-22_15h30.17.981,forced_choiceRT_color,2021.2.3,Win32,59.88023952,,,,,,,,,,,,,,,,,,,,,,,
0,d,1,0.612,11,1,45,0,1,d,orange,6103adf779d6468e50941433,2021-10-22_15h30.17.981,forced_choiceRT_color,2021.2.3,Win32,59.88023952,,,,,,,,,,,,,,,,,,,,,,,
0,k,1,0.516,11,2,46,3,1,k,purple,6103adf779d6468e50941433,2021-10-22_15h30.17.981,forced_choiceRT_color,2021.2.3,Win32,59.88023952,,,,,,,,,,,,,,,,,,,,,,,
0,k,1,0.47,11,3,47,3,1,k,purple,6103adf779d6468e50941433,2021-10-22_15h30.17.981,forced_choiceRT_color,2021.2.3,Win32,59.88023952,,,,,,,,,,,,,,,,,,,,,,,
0,j,1,0.627,12,0,48,2,1,j,red,6103adf779d6468e50941433,2021-10-22_15h30.17.981,forced_choiceRT_color,2021.2.3,Win32,59.88023952,,,,,,,,,,,,,,,,,,,,,,,
0,f,1,0.652,12,1,49,1,1,f,blue,6103adf779d6468e50941433,2021-10-22_15h30.17.981,forced_choiceRT_color,2021.2.3,Win32,59.88023952,,,,,,,,,,,,,,,,,,,,,,,
0,d,1,0.587,12,2,50,0,1,d,orange,6103adf779d6468e50941433,2021-10-22_15h30.17.981,forced_choiceRT_color,2021.2.3,Win32,59.88023952,,,,,,,,,,,,,,,,,,,,,,,
0,j,1,0.584,12,3,51,2,1,j,red,6103adf779d6468e50941433,2021-10-22_15h30.17.981,forced_choiceRT_color,2021.2.3,Win32,59.88023952,,,,,,,,,,,,,,,,,,,,,,,
0,k,1,0.52,13,0,52,3,1,k,purple,6103adf779d6468e50941433,2021-10-22_15h30.17.981,forced_choiceRT_color,2021.2.3,Win32,59.88023952,,,,,,,,,,,,,,,,,,,,,,,
0,f,1,0.604,13,1,53,1,1,f,blue,6103adf779d6468e50941433,2021-10-22_15h30.17.981,forced_choiceRT_color,2021.2.3,Win32,59.88023952,,,,,,,,,,,,,,,,,,,,,,,
0,f,1,0.857,13,2,54,1,1,f,blue,6103adf779d6468e50941433,2021-10-22_15h30.17.981,forced_choiceRT_color,2021.2.3,Win32,59.88023952,,,,,,,,,,,,,,,,,,,,,,,
0,d,1,0.573,13,3,55,0,1,d,orange,6103adf779d6468e50941433,2021-10-22_15h30.17.981,forced_choiceRT_color,2021.2.3,Win32,59.88023952,,,,,,,,,,,,,,,,,,,,,,,
0,d,1,0.601,14,0,56,0,1,d,orange,6103adf779d6468e50941433,2021-10-22_15h30.17.981,forced_choiceRT_color,2021.2.3,Win32,59.88023952,,,,,,,,,,,,,,,,,,,,,,,
0,f,1,0.887,14,1,57,1,1,f,blue,6103adf779d6468e50941433,2021-10-22_15h30.17.981,forced_choiceRT_color,2021.2.3,Win32,59.88023952,,,,,,,,,,,,,,,,,,,,,,,
0,k,1,0.569,14,2,58,3,1,k,purple,6103adf779d6468e50941433,2021-10-22_15h30.17.981,forced_choiceRT_color,2021.2.3,Win32,59.88023952,,,,,,,,,,,,,,,,,,,,,,,
0,j,1,0.69,14,3,59,2,1,j,red,6103adf779d6468e50941433,2021-10-22_15h30.17.981,forced_choiceRT_color,2021.2.3,Win32,59.88023952,,,,,,,,,,,,,,,,,,,,,,,
,,,,,,,,,,,6103adf779d6468e50941433,2021-10-22_15h30.17.981,forced_choiceRT_color,2021.2.3,Win32,59.88023952,k,2.256,0,0,0,0,1,,,,,,,,,,,,,,,,
,,,,,,,,,,,6103adf779d6468e50941433,2021-10-22_15h30.17.981,forced_choiceRT_color,2021.2.3,Win32,59.88023952,j,2.09,1,0,1,0,1,,,,,,,,,,,,,,,,
,,,,,,,,,,,6103adf779d6468e50941433,2021-10-22_15h30.17.981,forced_choiceRT_color,2021.2.3,Win32,59.88023952,j,2.157,2,0,2,0,1,,,,,,,,,,,,,,,,
,,,,,,,,,,,6103adf779d6468e50941433,2021-10-22_15h30.17.981,forced_choiceRT_color,2021.2.3,Win32,59.88023952,k,1.69,3,0,3,0,1,,,,,,,,,,,,,,,,
,,,,,,,,,,,6103adf779d6468e50941433,2021-10-22_15h30.17.981,forced_choiceRT_color,2021.2.3,Win32,59.88023952,d,2.102,4,0,4,0,1,,,,,,,,,,,,,,,,
,,,,,,,,,,,6103adf779d6468e50941433,2021-10-22_15h30.17.981,forced_choiceRT_color,2021.2.3,Win32,59.88023952,f,2.047,5,0,5,0,1,,,,,,,,,,,,,,,,
,,,,,,,,,,,6103adf779d6468e50941433,2021-10-22_15h30.17.981,forced_choiceRT_color,2021.2.3,Win32,59.88023952,d,1.992,6,0,6,0,1,,,,,,,,,,,,,,,,
,,,,,,,,,,,6103adf779d6468e50941433,2021-10-22_15h30.17.981,forced_choiceRT_color,2021.2.3,Win32,59.88023952,j,1.978,7,0,7,0,1,,,,,,,,,,,,,,,,
,,,,,,,,,,,6103adf779d6468e50941433,2021-10-22_15h30.17.981,forced_choiceRT_color,2021.2.3,Win32,59.88023952,k,2.043,8,0,8,0,1,,,,,,,,,,,,,,,,
,,,,,,,,,,,6103adf779d6468e50941433,2021-10-22_15h30.17.981,forced_choiceRT_color,2021.2.3,Win32,59.88023952,j,1.988,9,0,9,0,1,,,,,,,,,,,,,,,,
,,,,,,,,,,,6103adf779d6468e50941433,2021-10-22_15h30.17.981,forced_choiceRT_color,2021.2.3,Win32,59.88023952,j,1.978,10,0,10,0,1,,,,,,,,,,,,,,,,
,,,,,,,,,,,6103adf779d6468e50941433,2021-10-22_15h30.17.981,forced_choiceRT_color,2021.2.3,Win32,59.88023952,k,1.993,11,0,11,0,1,,,,,,,,,,,,,,,,
,,,,,,,,,,,6103adf779d6468e50941433,2021-10-22_15h30.17.981,forced_choiceRT_color,2021.2.3,Win32,59.88023952,f,1.955,12,0,12,0,1,,,,,,,,,,,,,,,,
,,,,,,,,,,,6103adf779d6468e50941433,2021-10-22_15h30.17.981,forced_choiceRT_color,2021.2.3,Win32,59.88023952,f,1.94,13,0,13,0,1,,,,,,,,,,,,,,,,
,,,,,,,,,,,6103adf779d6468e50941433,2021-10-22_15h30.17.981,forced_choiceRT_color,2021.2.3,Win32,59.88023952,d,1.973,14,0,14,0,1,,,,,,,,,,,,,,,,
,,,,,,,,,,,6103adf779d6468e50941433,2021-10-22_15h30.17.981,forced_choiceRT_color,2021.2.3,Win32,59.88023952,d,1.974,15,0,15,0,1,,,,,,,,,,,,,,,,
,,,,,,,,,,,6103adf779d6468e50941433,2021-10-22_15h30.17.981,forced_choiceRT_color,2021.2.3,Win32,59.88023952,d,1.473,16,0,16,0,1,,,,,,,,,,,,,,,,
,,,,,,,,,,,6103adf779d6468e50941433,2021-10-22_15h30.17.981,forced_choiceRT_color,2021.2.3,Win32,59.88023952,f,2.078,17,0,17,0,1,,,,,,,,,,,,,,,,
,,,,,,,,,,,6103adf779d6468e50941433,2021-10-22_15h30.17.981,forced_choiceRT_color,2021.2.3,Win32,59.88023952,j,2.018,18,0,18,0,1,,,,,,,,,,,,,,,,
,,,,,,,,,,,6103adf779d6468e50941433,2021-10-22_15h30.17.981,forced_choiceRT_color,2021.2.3,Win32,59.88023952,k,2.037,19,0,19,0,1,,,,,,,,,,,,,,,,
1.1,,,,,,,,,d,orange,6103adf779d6468e50941433,2021-10-22_15h30.17.981,forced_choiceRT_color,2021.2.3,Win32,59.88023952,,,,,,,,1,Slow,short,f,0,2.246,0,0,0,0,1,,,,,
0.43,,,,,,,,,d,orange,6103adf779d6468e50941433,2021-10-22_15h30.17.981,forced_choiceRT_color,2021.2.3,Win32,59.88023952,,,,,,,,1,Ontime,short,d,1,2.032,0,1,1,0,1,,,,,
1.15,,,,,,,,,k,purple,6103adf779d6468e50941433,2021-10-22_15h30.17.981,forced_choiceRT_color,2021.2.3,Win32,59.88023952,,,,,,,,1,Slow,short,f,0,2.113,0,2,2,3,1,,,,,
0.71,,,,,,,,,j,red,6103adf779d6468e50941433,2021-10-22_15h30.17.981,forced_choiceRT_color,2021.2.3,Win32,59.88023952,,,,,,,,1,Ontime,short,j,1,1.961,0,3,3,2,1,,,,,
1.76,,,,,,,,,f,blue,6103adf779d6468e50941433,2021-10-22_15h30.17.981,forced_choiceRT_color,2021.2.3,Win32,59.88023952,,,,,,,,1,Slow,short,f,1,2.204,1,0,4,1,1,,,,,
1.14,,,,,,,,,d,orange,6103adf779d6468e50941433,2021-10-22_15h30.17.981,forced_choiceRT_color,2021.2.3,Win32,59.88023952,,,,,,,,1,Ontime,short,d,1,2.026,1,1,5,0,1,,,,,
0.24,,,,,,,,,k,purple,6103adf779d6468e50941433,2021-10-22_15h30.17.981,forced_choiceRT_color,2021.2.3,Win32,59.88023952,,,,,,,,1,Ontime,short,k,1,1.983,1,2,6,3,1,,,,,
0.2,,,,,,,,,f,blue,6103adf779d6468e50941433,2021-10-22_15h30.17.981,forced_choiceRT_color,2021.2.3,Win32,59.88023952,,,,,,,,1,Ontime,short,j,0,2.024,1,3,7,1,1,,,,,
1.67,,,,,,,,,f,blue,6103adf779d6468e50941433,2021-10-22_15h30.17.981,forced_choiceRT_color,2021.2.3,Win32,59.88023952,,,,,,,,1,Ontime,short,f,1,1.971,2,0,8,1,1,,,,,
0.71,,,,,,,,,j,red,6103adf779d6468e50941433,2021-10-22_15h30.17.981,forced_choiceRT_color,2021.2.3,Win32,59.88023952,,,,,,,,1,Ontime,short,j,1,2.016,2,1,9,2,1,,,,,
1.74,,,,,,,,,j,red,6103adf779d6468e50941433,2021-10-22_15h30.17.981,forced_choiceRT_color,2021.2.3,Win32,59.88023952,,,,,,,,1,Slow,short,j,1,2.355,2,2,10,2,1,,,,,
1.35,,,,,,,,,f,blue,6103adf779d6468e50941433,2021-10-22_15h30.17.981,forced_choiceRT_color,2021.2.3,Win32,59.88023952,,,,,,,,1,Fast,short,f,1,1.889,2,3,11,1,1,,,,,
0.84,,,,,,,,,f,blue,6103adf779d6468e50941433,2021-10-22_15h30.17.981,forced_choiceRT_color,2021.2.3,Win32,59.88023952,,,,,,,,1,Fast,short,f,1,1.893,3,0,12,1,1,,,,,
0.19,,,,,,,,,k,purple,6103adf779d6468e50941433,2021-10-22_15h30.17.981,forced_choiceRT_color,2021.2.3,Win32,59.88023952,,,,,,,,1,Ontime,short,k,1,1.988,3,1,13,3,1,,,,,
0.86,,,,,,,,,f,blue,6103adf779d6468e50941433,2021-10-22_15h30.17.981,forced_choiceRT_color,2021.2.3,Win32,59.88023952,,,,,,,,1,Ontime,short,j,0,2.025,3,2,14,1,1,,,,,
1.82,,,,,,,,,k,purple,6103adf779d6468e50941433,2021-10-22_15h30.17.981,forced_choiceRT_color,2021.2.3,Win32,59.88023952,,,,,,,,1,Slow,short,f,0,2.311,3,3,15,3,1,,,,,
1.11,,,,,,,,,j,red,6103adf779d6468e50941433,2021-10-22_15h30.17.981,forced_choiceRT_color,2021.2.3,Win32,59.88023952,,,,,,,,1,Ontime,short,k,0,2.016,4,0,16,2,1,,,,,
1.37,,,,,,,,,d,orange,6103adf779d6468e50941433,2021-10-22_15h30.17.981,forced_choiceRT_color,2021.2.3,Win32,59.88023952,,,,,,,,1,Slow,short,d,1,2.154,4,1,17,0,1,,,,,
1.94,,,,,,,,,j,red,6103adf779d6468e50941433,2021-10-22_15h30.17.981,forced_choiceRT_color,2021.2.3,Win32,59.88023952,,,,,,,,1,Slow,short,j,1,2.125,4,2,18,2,1,,,,,
0.87,,,,,,,,,f,blue,6103adf779d6468e50941433,2021-10-22_15h30.17.981,forced_choiceRT_color,2021.2.3,Win32,59.88023952,,,,,,,,1,Fast,short,f,1,1.696,4,3,19,1,1,,,,,
0.63,,,,,,,,,j,red,6103adf779d6468e50941433,2021-10-22_15h30.17.981,forced_choiceRT_color,2021.2.3,Win32,59.88023952,,,,,,,,1,Fast,short,j,1,1.889,5,0,20,2,1,,,,,
1.87,,,,,,,,,k,purple,6103adf779d6468e50941433,2021-10-22_15h30.17.981,forced_choiceRT_color,2021.2.3,Win32,59.88023952,,,,,,,,1,Slow,short,j,0,2.259,5,1,21,3,1,,,,,
1.77,,,,,,,,,d,orange,6103adf779d6468e50941433,2021-10-22_15h30.17.981,forced_choiceRT_color,2021.2.3,Win32,59.88023952,,,,,,,,1,Fast,short,k,0,1.624,5,2,22,0,1,,,,,
1.71,,,,,,,,,d,orange,6103adf779d6468e50941433,2021-10-22_15h30.17.981,forced_choiceRT_color,2021.2.3,Win32,59.88023952,,,,,,,,1,Fast,short,j,0,1.674,5,3,23,0,1,,,,,
0.65,,,,,,,,,k,purple,6103adf779d6468e50941433,2021-10-22_15h30.17.981,forced_choiceRT_color,2021.2.3,Win32,59.88023952,,,,,,,,1,Ontime,short,k,1,2.08,6,0,24,3,1,,,,,
1.87,,,,,,,,,f,blue,6103adf779d6468e50941433,2021-10-22_15h30.17.981,forced_choiceRT_color,2021.2.3,Win32,59.88023952,,,,,,,,1,Slow,short,k,0,2.112,6,1,25,1,1,,,,,
0.05,,,,,,,,,j,red,6103adf779d6468e50941433,2021-10-22_15h30.17.981,forced_choiceRT_color,2021.2.3,Win32,59.88023952,,,,,,,,1,Ontime,short,j,1,1.939,6,2,26,2,1,,,,,
1.68,,,,,,,,,j,red,6103adf779d6468e50941433,2021-10-22_15h30.17.981,forced_choiceRT_color,2021.2.3,Win32,59.88023952,,,,,,,,1,Ontime,short,j,1,1.96,6,3,27,2,1,,,,,
1.52,,,,,,,,,k,purple,6103adf779d6468e50941433,2021-10-22_15h30.17.981,forced_choiceRT_color,2021.2.3,Win32,59.88023952,,,,,,,,1,Ontime,short,j,0,1.978,7,0,28,3,1,,,,,
1.61,,,,,,,,,k,purple,6103adf779d6468e50941433,2021-10-22_15h30.17.981,forced_choiceRT_color,2021.2.3,Win32,59.88023952,,,,,,,,1,Slow,short,j,0,2.188,7,1,29,3,1,,,,,
0.28,,,,,,,,,k,purple,6103adf779d6468e50941433,2021-10-22_15h30.17.981,forced_choiceRT_color,2021.2.3,Win32,59.88023952,,,,,,,,1,Ontime,short,f,0,2.04,7,2,30,3,1,,,,,
1.05,,,,,,,,,f,blue,6103adf779d6468e50941433,2021-10-22_15h30.17.981,forced_choiceRT_color,2021.2.3,Win32,59.88023952,,,,,,,,1,Ontime,short,d,0,2.057,7,3,31,1,1,,,,,
1.45,,,,,,,,,d,orange,6103adf779d6468e50941433,2021-10-22_15h30.17.981,forced_choiceRT_color,2021.2.3,Win32,59.88023952,,,,,,,,1,Ontime,short,j,0,2.028,8,0,32,0,1,,,,,
0.37,,,,,,,,,k,purple,6103adf779d6468e50941433,2021-10-22_15h30.17.981,forced_choiceRT_color,2021.2.3,Win32,59.88023952,,,,,,,,1,Ontime,short,f,0,1.955,8,1,33,3,1,,,,,
0.61,,,,,,,,,d,orange,6103adf779d6468e50941433,2021-10-22_15h30.17.981,forced_choiceRT_color,2021.2.3,Win32,59.88023952,,,,,,,,1,Ontime,short,f,0,1.979,8,2,34,0,1,,,,,
0.38,,,,,,,,,d,orange,6103adf779d6468e50941433,2021-10-22_15h30.17.981,forced_choiceRT_color,2021.2.3,Win32,59.88023952,,,,,,,,1,Fast,short,f,0,1.82,8,3,35,0,1,,,,,
0.47,,,,,,,,,f,blue,6103adf779d6468e50941433,2021-10-22_15h30.17.981,forced_choiceRT_color,2021.2.3,Win32,59.88023952,,,,,,,,1,Ontime,short,j,0,2.025,9,0,36,1,1,,,,,
0.01,,,,,,,,,d,orange,6103adf779d6468e50941433,2021-10-22_15h30.17.981,forced_choiceRT_color,2021.2.3,Win32,59.88023952,,,,,,,,1,Ontime,short,d,1,2.036,9,1,37,0,1,,,,,
1.39,,,,,,,,,j,red,6103adf779d6468e50941433,2021-10-22_15h30.17.981,forced_choiceRT_color,2021.2.3,Win32,59.88023952,,,,,,,,1,Ontime,short,j,1,2.073,9,2,38,2,1,,,,,
1.41,,,,,,,,,j,red,6103adf779d6468e50941433,2021-10-22_15h30.17.981,forced_choiceRT_color,2021.2.3,Win32,59.88023952,,,,,,,,1,Ontime,short,j,1,2.026,9,3,39,2,1,,,,,
,,,,,,,,,,,6103adf779d6468e50941433,2021-10-22_15h30.17.981,forced_choiceRT_color,2021.2.3,Win32,59.88023952,,,,,,,,,,,,,,,,,,,0,0,0,0,1
0.89,,,,,,,,,k,purple,6103adf779d6468e50941433,2021-10-22_15h30.17.981,forced_choiceRT_color,2021.2.3,Win32,59.88023952,,,,,,,,2,Ontime,short,j,0,2.097,0,0,0,3,1,,,,,
0.2,,,,,,,,,f,blue,6103adf779d6468e50941433,2021-10-22_15h30.17.981,forced_choiceRT_color,2021.2.3,Win32,59.88023952,,,,,,,,2,Slow,short,j,0,2.103,0,1,1,1,1,,,,,
1.96,,,,,,,,,d,orange,6103adf779d6468e50941433,2021-10-22_15h30.17.981,forced_choiceRT_color,2021.2.3,Win32,59.88023952,,,,,,,,2,Ontime,short,f,0,2.072,0,2,2,0,1,,,,,
1.33,,,,,,,,,f,blue,6103adf779d6468e50941433,2021-10-22_15h30.17.981,forced_choiceRT_color,2021.2.3,Win32,59.88023952,,,,,,,,2,Ontime,short,j,0,1.977,0,3,3,1,1,,,,,
0.94,,,,,,,,,f,blue,6103adf779d6468e50941433,2021-10-22_15h30.17.981,forced_choiceRT_color,2021.2.3,Win32,59.88023952,,,,,,,,2,Ontime,short,f,1,1.971,1,0,4,1,1,,,,,
1.96,,,,,,,,,f,blue,6103adf779d6468e50941433,2021-10-22_15h30.17.981,forced_choiceRT_color,2021.2.3,Win32,59.88023952,,,,,,,,2,Slow,short,f,1,2.226,1,1,5,1,1,,,,,
0.15,,,,,,,,,k,purple,6103adf779d6468e50941433,2021-10-22_15h30.17.981,forced_choiceRT_color,2021.2.3,Win32,59.88023952,,,,,,,,2,Fast,short,j,0,1.606,1,2,6,3,1,,,,,
1.96,,,,,,,,,d,orange,6103adf779d6468e50941433,2021-10-22_15h30.17.981,forced_choiceRT_color,2021.2.3,Win32,59.88023952,,,,,,,,2,Slow,short,k,0,2.127,1,3,7,0,1,,,,,
0.58,,,,,,,,,k,purple,6103adf779d6468e50941433,2021-10-22_15h30.17.981,forced_choiceRT_color,2021.2.3,Win32,59.88023952,,,,,,,,2,Fast,short,k,1,1.841,2,0,8,3,1,,,,,
1.08,,,,,,,,,k,purple,6103adf779d6468e50941433,2021-10-22_15h30.17.981,forced_choiceRT_color,2021.2.3,Win32,59.88023952,,,,,,,,2,Slow,short,j,0,2.104,2,1,9,3,1,,,,,
1.61,,,,,,,,,f,blue,6103adf779d6468e50941433,2021-10-22_15h30.17.981,forced_choiceRT_color,2021.2.3,Win32,59.88023952,,,,,,,,2,Slow,short,j,0,2.245,2,2,10,1,1,,,,,
1.54,,,,,,,,,f,blue,6103adf779d6468e50941433,2021-10-22_15h30.17.981,forced_choiceRT_color,2021.2.3,Win32,59.88023952,,,,,,,,2,Ontime,short,f,1,1.968,2,3,11,1,1,,,,,
0.33,,,,,,,,,d,orange,6103adf779d6468e50941433,2021-10-22_15h30.17.981,forced_choiceRT_color,2021.2.3,Win32,59.88023952,,,,,,,,2,Ontime,short,d,1,2.071,3,0,12,0,1,,,,,
0.52,,,,,,,,,f,blue,6103adf779d6468e50941433,2021-10-22_15h30.17.981,forced_choiceRT_color,2021.2.3,Win32,59.88023952,,,,,,,,2,Ontime,short,f,1,1.974,3,1,13,1,1,,,,,
0.59,,,,,,,,,k,purple,6103adf779d6468e50941433,2021-10-22_15h30.17.981,forced_choiceRT_color,2021.2.3,Win32,59.88023952,,,,,,,,2,Fast,short,k,1,1.796,3,2,14,3,1,,,,,
1.56,,,,,,,,,f,blue,6103adf779d6468e50941433,2021-10-22_15h30.17.981,forced_choiceRT_color,2021.2.3,Win32,59.88023952,,,,,,,,2,Slow,short,f,1,2.258,3,3,15,1,1,,,,,
0.12,,,,,,,,,j,red,6103adf779d6468e50941433,2021-10-22_15h30.17.981,forced_choiceRT_color,2021.2.3,Win32,59.88023952,,,,,,,,2,Ontime,short,j,1,2.051,4,0,16,2,1,,,,,
1.23,,,,,,,,,k,purple,6103adf779d6468e50941433,2021-10-22_15h30.17.981,forced_choiceRT_color,2021.2.3,Win32,59.88023952,,,,,,,,2,Slow,short,k,1,2.169,4,1,17,3,1,,,,,
0.2,,,,,,,,,f,blue,6103adf779d6468e50941433,2021-10-22_15h30.17.981,forced_choiceRT_color,2021.2.3,Win32,59.88023952,,,,,,,,2,Ontime,short,f,1,2.045,4,2,18,1,1,,,,,
0.58,,,,,,,,,j,red,6103adf779d6468e50941433,2021-10-22_15h30.17.981,forced_choiceRT_color,2021.2.3,Win32,59.88023952,,,,,,,,2,Ontime,short,j,1,2.096,4,3,19,2,1,,,,,
0.94,,,,,,,,,j,red,6103adf779d6468e50941433,2021-10-22_15h30.17.981,forced_choiceRT_color,2021.2.3,Win32,59.88023952,,,,,,,,2,Ontime,short,j,1,2.073,5,0,20,2,1,,,,,
1.13,,,,,,,,,j,red,6103adf779d6468e50941433,2021-10-22_15h30.17.981,forced_choiceRT_color,2021.2.3,Win32,59.88023952,,,,,,,,2,Ontime,short,j,1,2.074,5,1,21,2,1,,,,,
0.45,,,,,,,,,d,orange,6103adf779d6468e50941433,2021-10-22_15h30.17.981,forced_choiceRT_color,2021.2.3,Win32,59.88023952,,,,,,,,2,Ontime,short,d,1,2.09,5,2,22,0,1,,,,,
0.63,,,,,,,,,j,red,6103adf779d6468e50941433,2021-10-22_15h30.17.981,forced_choiceRT_color,2021.2.3,Win32,59.88023952,,,,,,,,2,Ontime,short,j,1,2.078,5,3,23,2,1,,,,,
0.4,,,,,,,,,d,orange,6103adf779d6468e50941433,2021-10-22_15h30.17.981,forced_choiceRT_color,2021.2.3,Win32,59.88023952,,,,,,,,2,Ontime,short,d,1,2.07,6,0,24,0,1,,,,,
0.74,,,,,,,,,k,purple,6103adf779d6468e50941433,2021-10-22_15h30.17.981,forced_choiceRT_color,2021.2.3,Win32,59.88023952,,,,,,,,2,Ontime,short,k,1,2.01,6,1,25,3,1,,,,,
1.9,,,,,,,,,j,red,6103adf779d6468e50941433,2021-10-22_15h30.17.981,forced_choiceRT_color,2021.2.3,Win32,59.88023952,,,,,,,,2,Slow,short,k,0,2.332,6,2,26,2,1,,,,,
0.57,,,,,,,,,k,purple,6103adf779d6468e50941433,2021-10-22_15h30.17.981,forced_choiceRT_color,2021.2.3,Win32,59.88023952,,,,,,,,2,Ontime,short,k,1,2.074,6,3,27,3,1,,,,,
0.9,,,,,,,,,k,purple,6103adf779d6468e50941433,2021-10-22_15h30.17.981,forced_choiceRT_color,2021.2.3,Win32,59.88023952,,,,,,,,2,Slow,short,k,1,2.127,7,0,28,3,1,,,,,
1.27,,,,,,,,,d,orange,6103adf779d6468e50941433,2021-10-22_15h30.17.981,forced_choiceRT_color,2021.2.3,Win32,59.88023952,,,,,,,,2,Ontime,short,j,0,2.076,7,1,29,0,1,,,,,
1.95,,,,,,,,,j,red,6103adf779d6468e50941433,2021-10-22_15h30.17.981,forced_choiceRT_color,2021.2.3,Win32,59.88023952,,,,,,,,2,Slow,short,j,1,2.124,7,2,30,2,1,,,,,
1.87,,,,,,,,,j,red,6103adf779d6468e50941433,2021-10-22_15h30.17.981,forced_choiceRT_color,2021.2.3,Win32,59.88023952,,,,,,,,2,Ontime,short,j,1,1.996,7,3,31,2,1,,,,,
1.04,,,,,,,,,j,red,6103adf779d6468e50941433,2021-10-22_15h30.17.981,forced_choiceRT_color,2021.2.3,Win32,59.88023952,,,,,,,,2,Slow,short,j,1,2.11,8,0,32,2,1,,,,,
0.87,,,,,,,,,d,orange,6103adf779d6468e50941433,2021-10-22_15h30.17.981,forced_choiceRT_color,2021.2.3,Win32,59.88023952,,,,,,,,2,Ontime,short,d,1,2.078,8,1,33,0,1,,,,,
1.93,,,,,,,,,j,red,6103adf779d6468e50941433,2021-10-22_15h30.17.981,forced_choiceRT_color,2021.2.3,Win32,59.88023952,,,,,,,,2,Slow,short,d,0,2.14,8,2,34,2,1,,,,,
1.52,,,,,,,,,d,orange,6103adf779d6468e50941433,2021-10-22_15h30.17.981,forced_choiceRT_color,2021.2.3,Win32,59.88023952,,,,,,,,2,Slow,short,d,1,2.198,8,3,35,0,1,,,,,
1.59,,,,,,,,,d,orange,6103adf779d6468e50941433,2021-10-22_15h30.17.981,forced_choiceRT_color,2021.2.3,Win32,59.88023952,,,,,,,,2,Slow,short,d,1,2.108,9,0,36,0,1,,,,,
1.93,,,,,,,,,d,orange,6103adf779d6468e50941433,2021-10-22_15h30.17.981,forced_choiceRT_color,2021.2.3,Win32,59.88023952,,,,,,,,2,Slow,short,d,1,2.17,9,1,37,0,1,,,,,
0.08,,,,,,,,,f,blue,6103adf779d6468e50941433,2021-10-22_15h30.17.981,forced_choiceRT_color,2021.2.3,Win32,59.88023952,,,,,,,,2,Ontime,short,j,0,2.011,9,2,38,1,1,,,,,
0.84,,,,,,,,,k,purple,6103adf779d6468e50941433,2021-10-22_15h30.17.981,forced_choiceRT_color,2021.2.3,Win32,59.88023952,,,,,,,,2,Ontime,short,k,1,2.097,9,3,39,3,1,,,,,
,,,,,,,,,,,6103adf779d6468e50941433,2021-10-22_15h30.17.981,forced_choiceRT_color,2021.2.3,Win32,59.88023952,,,,,,,,,,,,,,,,,,,1,0,1,0,1
1.32,,,,,,,,,k,purple,6103adf779d6468e50941433,2021-10-22_15h30.17.981,forced_choiceRT_color,2021.2.3,Win32,59.88023952,,,,,,,,3,Slow,short,k,1,2.13,0,0,0,3,1,,,,,
1.25,,,,,,,,,d,orange,6103adf779d6468e50941433,2021-10-22_15h30.17.981,forced_choiceRT_color,2021.2.3,Win32,59.88023952,,,,,,,,3,Ontime,short,j,0,2.01,0,1,1,0,1,,,,,
1.61,,,,,,,,,f,blue,6103adf779d6468e50941433,2021-10-22_15h30.17.981,forced_choiceRT_color,2021.2.3,Win32,59.88023952,,,,,,,,3,Slow,short,f,1,2.134,0,2,2,1,1,,,,,
0.31,,,,,,,,,j,red,6103adf779d6468e50941433,2021-10-22_15h30.17.981,forced_choiceRT_color,2021.2.3,Win32,59.88023952,,,,,,,,3,Fast,short,k,0,1.705,0,3,3,2,1,,,,,
1.47,,,,,,,,,d,orange,6103adf779d6468e50941433,2021-10-22_15h30.17.981,forced_choiceRT_color,2021.2.3,Win32,59.88023952,,,,,,,,3,Slow,short,k,0,2.213,1,0,4,0,1,,,,,
0.7,,,,,,,,,f,blue,6103adf779d6468e50941433,2021-10-22_15h30.17.981,forced_choiceRT_color,2021.2.3,Win32,59.88023952,,,,,,,,3,Ontime,short,d,0,2.073,1,1,5,1,1,,,,,
1.24,,,,,,,,,k,purple,6103adf779d6468e50941433,2021-10-22_15h30.17.981,forced_choiceRT_color,2021.2.3,Win32,59.88023952,,,,,,,,3,Slow,short,k,1,2.138,1,2,6,3,1,,,,,
1.91,,,,,,,,,j,red,6103adf779d6468e50941433,2021-10-22_15h30.17.981,forced_choiceRT_color,2021.2.3,Win32,59.88023952,,,,,,,,3,Ontime,short,j,1,2.031,1,3,7,2,1,,,,,
1.57,,,,,,,,,f,blue,6103adf779d6468e50941433,2021-10-22_15h30.17.981,forced_choiceRT_color,2021.2.3,Win32,59.88023952,,,,,,,,3,Slow,short,f,1,2.203,2,0,8,1,1,,,,,
0.31,,,,,,,,,d,orange,6103adf779d6468e50941433,2021-10-22_15h30.17.981,forced_choiceRT_color,2021.2.3,Win32,59.88023952,,,,,,,,3,Fast,short,d,1,1.872,2,1,9,0,1,,,,,
1.06,,,,,,,,,d,orange,6103adf779d6468e50941433,2021-10-22_15h30.17.981,forced_choiceRT_color,2021.2.3,Win32,59.88023952,,,,,,,,3,Slow,short,d,1,2.105,2,2,10,0,1,,,,,
1.65,,,,,,,,,d,orange,6103adf779d6468e50941433,2021-10-22_15h30.17.981,forced_choiceRT_color,2021.2.3,Win32,59.88023952,,,,,,,,3,Slow,short,d,1,2.305,2,3,11,0,1,,,,,
1.45,,,,,,,,,k,purple,6103adf779d6468e50941433,2021-10-22_15h30.17.981,forced_choiceRT_color,2021.2.3,Win32,59.88023952,,,,,,,,3,Slow,short,f,0,2.124,3,0,12,3,1,,,,,
0.42,,,,,,,,,d,orange,6103adf779d6468e50941433,2021-10-22_15h30.17.981,forced_choiceRT_color,2021.2.3,Win32,59.88023952,,,,,,,,3,Ontime,short,d,1,2.002,3,1,13,0,1,,,,,
0.78,,,,,,,,,f,blue,6103adf779d6468e50941433,2021-10-22_15h30.17.981,forced_choiceRT_color,2021.2.3,Win32,59.88023952,,,,,,,,3,Ontime,short,j,0,2.041,3,2,14,1,1,,,,,
0.61,,,,,,,,,j,red,6103adf779d6468e50941433,2021-10-22_15h30.17.981,forced_choiceRT_color,2021.2.3,Win32,59.88023952,,,,,,,,3,Ontime,short,j,1,2.073,3,3,15,2,1,,,,,
0.44,,,,,,,,,k,purple,6103adf779d6468e50941433,2021-10-22_15h30.17.981,forced_choiceRT_color,2021.2.3,Win32,59.88023952,,,,,,,,3,Ontime,short,k,1,2.012,4,0,16,3,1,,,,,
0.82,,,,,,,,,k,purple,6103adf779d6468e50941433,2021-10-22_15h30.17.981,forced_choiceRT_color,2021.2.3,Win32,59.88023952,,,,,,,,3,Ontime,short,k,1,2.075,4,1,17,3,1,,,,,
1.42,,,,,,,,,j,red,6103adf779d6468e50941433,2021-10-22_15h30.17.981,forced_choiceRT_color,2021.2.3,Win32,59.88023952,,,,,,,,3,Slow,short,j,1,2.119,4,2,18,2,1,,,,,
0.65,,,,,,,,,j,red,6103adf779d6468e50941433,2021-10-22_15h30.17.981,forced_choiceRT_color,2021.2.3,Win32,59.88023952,,,,,,,,3,Ontime,short,j,1,2.027,4,3,19,2,1,,,,,
1.69,,,,,,,,,d,orange,6103adf779d6468e50941433,2021-10-22_15h30.17.981,forced_choiceRT_color,2021.2.3,Win32,59.88023952,,,,,,,,3,Slow,short,d,1,2.285,5,0,20,0,1,,,,,
0.06,,,,,,,,,j,red,6103adf779d6468e50941433,2021-10-22_15h30.17.981,forced_choiceRT_color,2021.2.3,Win32,59.88023952,,,,,,,,3,Ontime,short,j,1,1.954,5,1,21,2,1,,,,,
1.69,,,,,,,,,j,red,6103adf779d6468e50941433,2021-10-22_15h30.17.981,forced_choiceRT_color,2021.2.3,Win32,59.88023952,,,,,,,,3,Slow,short,j,1,2.139,5,2,22,2,1,,,,,
1.82,,,,,,,,,f,blue,6103adf779d6468e50941433,2021-10-22_15h30.17.981,forced_choiceRT_color,2021.2.3,Win32,59.88023952,,,,,,,,3,Ontime,short,f,1,2.08,5,3,23,1,1,,,,,
1.57,,,,,,,,,k,purple,6103adf779d6468e50941433,2021-10-22_15h30.17.981,forced_choiceRT_color,2021.2.3,Win32,59.88023952,,,,,,,,3,Ontime,short,j,0,2.09,6,0,24,3,1,,,,,
1.58,,,,,,,,,f,blue,6103adf779d6468e50941433,2021-10-22_15h30.17.981,forced_choiceRT_color,2021.2.3,Win32,59.88023952,,,,,,,,3,Slow,short,f,1,2.107,6,1,25,1,1,,,,,
1.39,,,,,,,,,f,blue,6103adf779d6468e50941433,2021-10-22_15h30.17.981,forced_choiceRT_color,2021.2.3,Win32,59.88023952,,,,,,,,3,Ontime,short,f,1,1.969,6,2,26,1,1,,,,,
0.16,,,,,,,,,f,blue,6103adf779d6468e50941433,2021-10-22_15h30.17.981,forced_choiceRT_color,2021.2.3,Win32,59.88023952,,,,,,,,3,Ontime,short,f,1,2.061,6,3,27,1,1,,,,,
1.98,,,,,,,,,k,purple,6103adf779d6468e50941433,2021-10-22_15h30.17.981,forced_choiceRT_color,2021.2.3,Win32,59.88023952,,,,,,,,3,Slow,short,j,0,2.46,7,0,28,3,1,,,,,
0.31,,,,,,,,,d,orange,6103adf779d6468e50941433,2021-10-22_15h30.17.981,forced_choiceRT_color,2021.2.3,Win32,59.88023952,,,,,,,,3,Ontime,short,d,1,2.057,7,1,29,0,1,,,,,
1.16,,,,,,,,,f,blue,6103adf779d6468e50941433,2021-10-22_15h30.17.981,forced_choiceRT_color,2021.2.3,Win32,59.88023952,,,,,,,,3,Ontime,short,f,1,2.076,7,2,30,1,1,,,,,
0.55,,,,,,,,,d,orange,6103adf779d6468e50941433,2021-10-22_15h30.17.981,forced_choiceRT_color,2021.2.3,Win32,59.88023952,,,,,,,,3,Ontime,short,d,1,2.074,7,3,31,0,1,,,,,
1.37,,,,,,,,,f,blue,6103adf779d6468e50941433,2021-10-22_15h30.17.981,forced_choiceRT_color,2021.2.3,Win32,59.88023952,,,,,,,,3,Slow,short,f,1,2.112,8,0,32,1,1,,,,,
0.86,,,,,,,,,j,red,6103adf779d6468e50941433,2021-10-22_15h30.17.981,forced_choiceRT_color,2021.2.3,Win32,59.88023952,,,,,,,,3,Ontime,short,j,1,2,8,1,33,2,1,,,,,
0.21,,,,,,,,,j,red,6103adf779d6468e50941433,2021-10-22_15h30.17.981,forced_choiceRT_color,2021.2.3,Win32,59.88023952,,,,,,,,3,Ontime,short,j,1,2.035,8,2,34,2,1,,,,,
1.01,,,,,,,,,j,red,6103adf779d6468e50941433,2021-10-22_15h30.17.981,forced_choiceRT_color,2021.2.3,Win32,59.88023952,,,,,,,,3,Slow,short,j,1,2.108,8,3,35,2,1,,,,,
1.12,,,,,,,,,k,purple,6103adf779d6468e50941433,2021-10-22_15h30.17.981,forced_choiceRT_color,2021.2.3,Win32,59.88023952,,,,,,,,3,Ontime,short,k,1,2.096,9,0,36,3,1,,,,,
0.31,,,,,,,,,d,orange,6103adf779d6468e50941433,2021-10-22_15h30.17.981,forced_choiceRT_color,2021.2.3,Win32,59.88023952,,,,,,,,3,Slow,short,d,1,2.11,9,1,37,0,1,,,,,
0.12,,,,,,,,,k,purple,6103adf779d6468e50941433,2021-10-22_15h30.17.981,forced_choiceRT_color,2021.2.3,Win32,59.88023952,,,,,,,,3,Ontime,short,k,1,2.032,9,2,38,3,1,,,,,
0.07,,,,,,,,,k,purple,6103adf779d6468e50941433,2021-10-22_15h30.17.981,forced_choiceRT_color,2021.2.3,Win32,59.88023952,,,,,,,,3,Ontime,short,k,1,2.095,9,3,39,3,1,,,,,
,,,,,,,,,,,6103adf779d6468e50941433,2021-10-22_15h30.17.981,forced_choiceRT_color,2021.2.3,Win32,59.88023952,,,,,,,,,,,,,,,,,,,2,0,2,0,1
1.31,,,,,,,,,j,red,6103adf779d6468e50941433,2021-10-22_15h30.17.981,forced_choiceRT_color,2021.2.3,Win32,59.88023952,,,,,,,,4,Slow,short,j,1,2.12,0,0,0,2,1,,,,,
1.51,,,,,,,,,d,orange,6103adf779d6468e50941433,2021-10-22_15h30.17.981,forced_choiceRT_color,2021.2.3,Win32,59.88023952,,,,,,,,4,Ontime,short,d,1,2.04,0,1,1,0,1,,,,,
0.56,,,,,,,,,f,blue,6103adf779d6468e50941433,2021-10-22_15h30.17.981,forced_choiceRT_color,2021.2.3,Win32,59.88023952,,,,,,,,4,Ontime,short,f,1,2.084,0,2,2,1,1,,,,,
0.85,,,,,,,,,j,red,6103adf779d6468e50941433,2021-10-22_15h30.17.981,forced_choiceRT_color,2021.2.3,Win32,59.88023952,,,,,,,,4,Ontime,short,j,1,2.058,0,3,3,2,1,,,,,
1.95,,,,,,,,,j,red,6103adf779d6468e50941433,2021-10-22_15h30.17.981,forced_choiceRT_color,2021.2.3,Win32,59.88023952,,,,,,,,4,Slow,short,d,0,2.172,1,0,4,2,1,,,,,
0.7,,,,,,,,,k,purple,6103adf779d6468e50941433,2021-10-22_15h30.17.981,forced_choiceRT_color,2021.2.3,Win32,59.88023952,,,,,,,,4,Ontime,short,k,1,2.073,1,1,5,3,1,,,,,
0.82,,,,,,,,,d,orange,6103adf779d6468e50941433,2021-10-22_15h30.17.981,forced_choiceRT_color,2021.2.3,Win32,59.88023952,,,,,,,,4,Ontime,short,d,1,2.086,1,2,6,0,1,,,,,
0.37,,,,,,,,,k,purple,6103adf779d6468e50941433,2021-10-22_15h30.17.981,forced_choiceRT_color,2021.2.3,Win32,59.88023952,,,,,,,,4,Ontime,short,k,1,2.039,1,3,7,3,1,,,,,
0.86,,,,,,,,,f,blue,6103adf779d6468e50941433,2021-10-22_15h30.17.981,forced_choiceRT_color,2021.2.3,Win32,59.88023952,,,,,,,,4,Ontime,short,j,0,2.029,2,0,8,1,1,,,,,
1.17,,,,,,,,,f,blue,6103adf779d6468e50941433,2021-10-22_15h30.17.981,forced_choiceRT_color,2021.2.3,Win32,59.88023952,,,,,,,,4,Ontime,short,f,1,2.029,2,1,9,1,1,,,,,
0.74,,,,,,,,,k,purple,6103adf779d6468e50941433,2021-10-22_15h30.17.981,forced_choiceRT_color,2021.2.3,Win32,59.88023952,,,,,,,,4,Ontime,short,k,1,2.034,2,2,10,3,1,,,,,
1.18,,,,,,,,,k,purple,6103adf779d6468e50941433,2021-10-22_15h30.17.981,forced_choiceRT_color,2021.2.3,Win32,59.88023952,,,,,,,,4,Ontime,short,k,1,2.047,2,3,11,3,1,,,,,
0.88,,,,,,,,,k,purple,6103adf779d6468e50941433,2021-10-22_15h30.17.981,forced_choiceRT_color,2021.2.3,Win32,59.88023952,,,,,,,,4,Ontime,short,k,1,2.022,3,0,12,3,1,,,,,
1.36,,,,,,,,,f,blue,6103adf779d6468e50941433,2021-10-22_15h30.17.981,forced_choiceRT_color,2021.2.3,Win32,59.88023952,,,,,,,,4,Slow,short,j,0,2.164,3,1,13,1,1,,,,,
1.16,,,,,,,,,k,purple,6103adf779d6468e50941433,2021-10-22_15h30.17.981,forced_choiceRT_color,2021.2.3,Win32,59.88023952,,,,,,,,4,Ontime,short,k,1,2.005,3,2,14,3,1,,,,,
0.66,,,,,,,,,j,red,6103adf779d6468e50941433,2021-10-22_15h30.17.981,forced_choiceRT_color,2021.2.3,Win32,59.88023952,,,,,,,,4,Slow,short,j,1,2.135,3,3,15,2,1,,,,,
1.59,,,,,,,,,f,blue,6103adf779d6468e50941433,2021-10-22_15h30.17.981,forced_choiceRT_color,2021.2.3,Win32,59.88023952,,,,,,,,4,Slow,short,f,1,2.13,4,0,16,1,1,,,,,
1.96,,,,,,,,,d,orange,6103adf779d6468e50941433,2021-10-22_15h30.17.981,forced_choiceRT_color,2021.2.3,Win32,59.88023952,,,,,,,,4,Slow,short,j,0,2.111,4,1,17,0,1,,,,,
0.35,,,,,,,,,j,red,6103adf779d6468e50941433,2021-10-22_15h30.17.981,forced_choiceRT_color,2021.2.3,Win32,59.88023952,,,,,,,,4,Slow,short,j,1,2.16,4,2,18,2,1,,,,,
1.24,,,,,,,,,d,orange,6103adf779d6468e50941433,2021-10-22_15h30.17.981,forced_choiceRT_color,2021.2.3,Win32,59.88023952,,,,,,,,4,Ontime,short,f,0,2.059,4,3,19,0,1,,,,,
1.37,,,,,,,,,j,red,6103adf779d6468e50941433,2021-10-22_15h30.17.981,forced_choiceRT_color,2021.2.3,Win32,59.88023952,,,,,,,,4,Slow,short,j,1,2.111,5,0,20,2,1,,,,,
1.92,,,,,,,,,f,blue,6103adf779d6468e50941433,2021-10-22_15h30.17.981,forced_choiceRT_color,2021.2.3,Win32,59.88023952,,,,,,,,4,Slow,short,d,0,2.123,5,1,21,1,1,,,,,
0.53,,,,,,,,,j,red,6103adf779d6468e50941433,2021-10-22_15h30.17.981,forced_choiceRT_color,2021.2.3,Win32,59.88023952,,,,,,,,4,Ontime,short,j,1,2.048,5,2,22,2,1,,,,,
1.01,,,,,,,,,j,red,6103adf779d6468e50941433,2021-10-22_15h30.17.981,forced_choiceRT_color,2021.2.3,Win32,59.88023952,,,,,,,,4,Ontime,short,j,1,2.009,5,3,23,2,1,,,,,
1.22,,,,,,,,,d,orange,6103adf779d6468e50941433,2021-10-22_15h30.17.981,forced_choiceRT_color,2021.2.3,Win32,59.88023952,,,,,,,,4,Ontime,short,d,1,2.047,6,0,24,0,1,,,,,
1.92,,,,,,,,,f,blue,6103adf779d6468e50941433,2021-10-22_15h30.17.981,forced_choiceRT_color,2021.2.3,Win32,59.88023952,,,,,,,,4,Ontime,short,d,0,2.091,6,1,25,1,1,,,,,
1.33,,,,,,,,,f,blue,6103adf779d6468e50941433,2021-10-22_15h30.17.981,forced_choiceRT_color,2021.2.3,Win32,59.88023952,,,,,,,,4,Ontime,short,f,1,2.093,6,2,26,1,1,,,,,
0.58,,,,,,,,,d,orange,6103adf779d6468e50941433,2021-10-22_15h30.17.981,forced_choiceRT_color,2021.2.3,Win32,59.88023952,,,,,,,,4,Ontime,short,d,1,2.036,6,3,27,0,1,,,,,
0.48,,,,,,,,,k,purple,6103adf779d6468e50941433,2021-10-22_15h30.17.981,forced_choiceRT_color,2021.2.3,Win32,59.88023952,,,,,,,,4,Ontime,short,k,1,2.042,7,0,28,3,1,,,,,
1.7,,,,,,,,,d,orange,6103adf779d6468e50941433,2021-10-22_15h30.17.981,forced_choiceRT_color,2021.2.3,Win32,59.88023952,,,,,,,,4,Ontime,short,d,1,1.994,7,1,29,0,1,,,,,
1.39,,,,,,,,,j,red,6103adf779d6468e50941433,2021-10-22_15h30.17.981,forced_choiceRT_color,2021.2.3,Win32,59.88023952,,,,,,,,4,Slow,short,j,1,2.24,7,2,30,2,1,,,,,
0.15,,,,,,,,,f,blue,6103adf779d6468e50941433,2021-10-22_15h30.17.981,forced_choiceRT_color,2021.2.3,Win32,59.88023952,,,,,,,,4,Ontime,short,f,1,2.03,7,3,31,1,1,,,,,
0.34,,,,,,,,,j,red,6103adf779d6468e50941433,2021-10-22_15h30.17.981,forced_choiceRT_color,2021.2.3,Win32,59.88023952,,,,,,,,4,Ontime,short,j,1,2.075,8,0,32,2,1,,,,,
1.21,,,,,,,,,k,purple,6103adf779d6468e50941433,2021-10-22_15h30.17.981,forced_choiceRT_color,2021.2.3,Win32,59.88023952,,,,,,,,4,Ontime,short,k,1,2.072,8,1,33,3,1,,,,,
1.36,,,,,,,,,d,orange,6103adf779d6468e50941433,2021-10-22_15h30.17.981,forced_choiceRT_color,2021.2.3,Win32,59.88023952,,,,,,,,4,Slow,short,d,1,2.109,8,2,34,0,1,,,,,
1.97,,,,,,,,,k,purple,6103adf779d6468e50941433,2021-10-22_15h30.17.981,forced_choiceRT_color,2021.2.3,Win32,59.88023952,,,,,,,,4,Ontime,short,d,0,2.014,8,3,35,3,1,,,,,
1.92,,,,,,,,,d,orange,6103adf779d6468e50941433,2021-10-22_15h30.17.981,forced_choiceRT_color,2021.2.3,Win32,59.88023952,,,,,,,,4,Ontime,short,d,1,2.028,9,0,36,0,1,,,,,
1.75,,,,,,,,,k,purple,6103adf779d6468e50941433,2021-10-22_15h30.17.981,forced_choiceRT_color,2021.2.3,Win32,59.88023952,,,,,,,,4,Ontime,short,f,0,2.022,9,1,37,3,1,,,,,
0.02,,,,,,,,,d,orange,6103adf779d6468e50941433,2021-10-22_15h30.17.981,forced_choiceRT_color,2021.2.3,Win32,59.88023952,,,,,,,,4,Ontime,short,d,1,2.051,9,2,38,0,1,,,,,
1.83,,,,,,,,,f,blue,6103adf779d6468e50941433,2021-10-22_15h30.17.981,forced_choiceRT_color,2021.2.3,Win32,59.88023952,,,,,,,,4,Ontime,short,f,1,2.071,9,3,39,1,1,,,,,
,,,,,,,,,,,6103adf779d6468e50941433,2021-10-22_15h30.17.981,forced_choiceRT_color,2021.2.3,Win32,59.88023952,,,,,,,,,,,,,,,,,,,3,0,3,0,1
0.71,,,,,,,,,f,blue,6103adf779d6468e50941433,2021-10-22_15h30.17.981,forced_choiceRT_color,2021.2.3,Win32,59.88023952,,,,,,,,5,Ontime,short,f,1,2.054,0,0,0,1,1,,,,,
0.09,,,,,,,,,d,orange,6103adf779d6468e50941433,2021-10-22_15h30.17.981,forced_choiceRT_color,2021.2.3,Win32,59.88023952,,,,,,,,5,Ontime,short,d,1,1.973,0,1,1,0,1,,,,,
1.81,,,,,,,,,j,red,6103adf779d6468e50941433,2021-10-22_15h30.17.981,forced_choiceRT_color,2021.2.3,Win32,59.88023952,,,,,,,,5,Ontime,short,d,0,2.032,0,2,2,2,1,,,,,
1.17,,,,,,,,,d,orange,6103adf779d6468e50941433,2021-10-22_15h30.17.981,forced_choiceRT_color,2021.2.3,Win32,59.88023952,,,,,,,,5,Ontime,short,d,1,2.025,0,3,3,0,1,,,,,
1.1,,,,,,,,,j,red,6103adf779d6468e50941433,2021-10-22_15h30.17.981,forced_choiceRT_color,2021.2.3,Win32,59.88023952,,,,,,,,5,Ontime,short,j,1,2.051,1,0,4,2,1,,,,,
0.77,,,,,,,,,d,orange,6103adf779d6468e50941433,2021-10-22_15h30.17.981,forced_choiceRT_color,2021.2.3,Win32,59.88023952,,,,,,,,5,Ontime,short,d,1,2.095,1,1,5,0,1,,,,,
1.72,,,,,,,,,d,orange,6103adf779d6468e50941433,2021-10-22_15h30.17.981,forced_choiceRT_color,2021.2.3,Win32,59.88023952,,,,,,,,5,Slow,short,d,1,2.251,1,2,6,0,1,,,,,
1.16,,,,,,,,,k,purple,6103adf779d6468e50941433,2021-10-22_15h30.17.981,forced_choiceRT_color,2021.2.3,Win32,59.88023952,,,,,,,,5,Fast,short,k,1,1.898,1,3,7,3,1,,,,,
0.66,,,,,,,,,f,blue,6103adf779d6468e50941433,2021-10-22_15h30.17.981,forced_choiceRT_color,2021.2.3,Win32,59.88023952,,,,,,,,5,Ontime,short,j,0,2.099,2,0,8,1,1,,,,,
1.84,,,,,,,,,f,blue,6103adf779d6468e50941433,2021-10-22_15h30.17.981,forced_choiceRT_color,2021.2.3,Win32,59.88023952,,,,,,,,5,Ontime,short,j,0,2.042,2,1,9,1,1,,,,,
1.46,,,,,,,,,f,blue,6103adf779d6468e50941433,2021-10-22_15h30.17.981,forced_choiceRT_color,2021.2.3,Win32,59.88023952,,,,,,,,5,Ontime,short,f,1,2.042,2,2,10,1,1,,,,,
1.1,,,,,,,,,k,purple,6103adf779d6468e50941433,2021-10-22_15h30.17.981,forced_choiceRT_color,2021.2.3,Win32,59.88023952,,,,,,,,5,Slow,short,f,0,2.157,2,3,11,3,1,,,,,
0.37,,,,,,,,,j,red,6103adf779d6468e50941433,2021-10-22_15h30.17.981,forced_choiceRT_color,2021.2.3,Win32,59.88023952,,,,,,,,5,Ontime,short,j,1,2.059,3,0,12,2,1,,,,,
1.49,,,,,,,,,j,red,6103adf779d6468e50941433,2021-10-22_15h30.17.981,forced_choiceRT_color,2021.2.3,Win32,59.88023952,,,,,,,,5,Slow,short,j,1,2.189,3,1,13,2,1,,,,,
0.19,,,,,,,,,d,orange,6103adf779d6468e50941433,2021-10-22_15h30.17.981,forced_choiceRT_color,2021.2.3,Win32,59.88023952,,,,,,,,5,Ontime,short,d,1,1.993,3,2,14,0,1,,,,,
1.81,,,,,,,,,f,blue,6103adf779d6468e50941433,2021-10-22_15h30.17.981,forced_choiceRT_color,2021.2.3,Win32,59.88023952,,,,,,,,5,Ontime,short,d,0,2.079,3,3,15,1,1,,,,,
1.71,,,,,,,,,k,purple,6103adf779d6468e50941433,2021-10-22_15h30.17.981,forced_choiceRT_color,2021.2.3,Win32,59.88023952,,,,,,,,5,Slow,short,k,1,2.43,4,0,16,3,1,,,,,
0.55,,,,,,,,,j,red,6103adf779d6468e50941433,2021-10-22_15h30.17.981,forced_choiceRT_color,2021.2.3,Win32,59.88023952,,,,,,,,5,Ontime,short,j,1,2.044,4,1,17,2,1,,,,,
1.98,,,,,,,,,k,purple,6103adf779d6468e50941433,2021-10-22_15h30.17.981,forced_choiceRT_color,2021.2.3,Win32,59.88023952,,,,,,,,5,Slow,short,j,0,2.17,4,2,18,3,1,,,,,
0.76,,,,,,,,,j,red,6103adf779d6468e50941433,2021-10-22_15h30.17.981,forced_choiceRT_color,2021.2.3,Win32,59.88023952,,,,,,,,5,Ontime,short,j,1,2.006,4,3,19,2,1,,,,,
1.79,,,,,,,,,j,red,6103adf779d6468e50941433,2021-10-22_15h30.17.981,forced_choiceRT_color,2021.2.3,Win32,59.88023952,,,,,,,,5,Ontime,short,j,1,2.042,5,0,20,2,1,,,,,
1.57,,,,,,,,,f,blue,6103adf779d6468e50941433,2021-10-22_15h30.17.981,forced_choiceRT_color,2021.2.3,Win32,59.88023952,,,,,,,,5,Slow,short,f,1,2.173,5,1,21,1,1,,,,,
0.56,,,,,,,,,j,red,6103adf779d6468e50941433,2021-10-22_15h30.17.981,forced_choiceRT_color,2021.2.3,Win32,59.88023952,,,,,,,,5,Ontime,short,j,1,2.072,5,2,22,2,1,,,,,
1.76,,,,,,,,,j,red,6103adf779d6468e50941433,2021-10-22_15h30.17.981,forced_choiceRT_color,2021.2.3,Win32,59.88023952,,,,,,,,5,Ontime,short,j,1,2.004,5,3,23,2,1,,,,,
0.53,,,,,,,,,k,purple,6103adf779d6468e50941433,2021-10-22_15h30.17.981,forced_choiceRT_color,2021.2.3,Win32,59.88023952,,,,,,,,5,Ontime,short,k,1,2.052,6,0,24,3,1,,,,,
1.34,,,,,,,,,d,orange,6103adf779d6468e50941433,2021-10-22_15h30.17.981,forced_choiceRT_color,2021.2.3,Win32,59.88023952,,,,,,,,5,Slow,short,d,1,2.137,6,1,25,0,1,,,,,
0.66,,,,,,,,,d,orange,6103adf779d6468e50941433,2021-10-22_15h30.17.981,forced_choiceRT_color,2021.2.3,Win32,59.88023952,,,,,,,,5,Ontime,short,d,1,2.037,6,2,26,0,1,,,,,
0.76,,,,,,,,,d,orange,6103adf779d6468e50941433,2021-10-22_15h30.17.981,forced_choiceRT_color,2021.2.3,Win32,59.88023952,,,,,,,,5,Ontime,short,d,1,2.023,6,3,27,0,1,,,,,
0.14,,,,,,,,,k,purple,6103adf779d6468e50941433,2021-10-22_15h30.17.981,forced_choiceRT_color,2021.2.3,Win32,59.88023952,,,,,,,,5,Ontime,short,f,0,1.996,7,0,28,3,1,,,,,
1.36,,,,,,,,,d,orange,6103adf779d6468e50941433,2021-10-22_15h30.17.981,forced_choiceRT_color,2021.2.3,Win32,59.88023952,,,,,,,,5,Ontime,short,j,0,2.053,7,1,29,0,1,,,,,
0.46,,,,,,,,,k,purple,6103adf779d6468e50941433,2021-10-22_15h30.17.981,forced_choiceRT_color,2021.2.3,Win32,59.88023952,,,,,,,,5,Ontime,short,f,0,2.041,7,2,30,3,1,,,,,
0.26,,,,,,,,,d,orange,6103adf779d6468e50941433,2021-10-22_15h30.17.981,forced_choiceRT_color,2021.2.3,Win32,59.88023952,,,,,,,,5,Ontime,short,d,1,2.023,7,3,31,0,1,,,,,
1.04,,,,,,,,,k,purple,6103adf779d6468e50941433,2021-10-22_15h30.17.981,forced_choiceRT_color,2021.2.3,Win32,59.88023952,,,,,,,,5,Ontime,short,k,1,2.014,8,0,32,3,1,,,,,
1.13,,,,,,,,,k,purple,6103adf779d6468e50941433,2021-10-22_15h30.17.981,forced_choiceRT_color,2021.2.3,Win32,59.88023952,,,,,,,,5,Slow,short,k,1,2.108,8,1,33,3,1,,,,,
0.64,,,,,,,,,k,purple,6103adf779d6468e50941433,2021-10-22_15h30.17.981,forced_choiceRT_color,2021.2.3,Win32,59.88023952,,,,,,,,5,Ontime,short,k,1,2.09,8,2,34,3,1,,,,,
1.51,,,,,,,,,f,blue,6103adf779d6468e50941433,2021-10-22_15h30.17.981,forced_choiceRT_color,2021.2.3,Win32,59.88023952,,,,,,,,5,Slow,short,j,0,2.222,8,3,35,1,1,,,,,
0.56,,,,,,,,,j,red,6103adf779d6468e50941433,2021-10-22_15h30.17.981,forced_choiceRT_color,2021.2.3,Win32,59.88023952,,,,,,,,5,Ontime,short,j,1,2.006,9,0,36,2,1,,,,,
0.58,,,,,,,,,f,blue,6103adf779d6468e50941433,2021-10-22_15h30.17.981,forced_choiceRT_color,2021.2.3,Win32,59.88023952,,,,,,,,5,Ontime,short,f,1,2.076,9,1,37,1,1,,,,,
1.23,,,,,,,,,f,blue,6103adf779d6468e50941433,2021-10-22_15h30.17.981,forced_choiceRT_color,2021.2.3,Win32,59.88023952,,,,,,,,5,Slow,short,j,0,2.113,9,2,38,1,1,,,,,
1.72,,,,,,,,,f,blue,6103adf779d6468e50941433,2021-10-22_15h30.17.981,forced_choiceRT_color,2021.2.3,Win32,59.88023952,,,,,,,,5,Slow,short,f,1,2.195,9,3,39,1,1,,,,,
,,,,,,,,,,,6103adf779d6468e50941433,2021-10-22_15h30.17.981,forced_choiceRT_color,2021.2.3,Win32,59.88023952,,,,,,,,,,,,,,,,,,,4,0,4,0,1
0.85,,,,,,,,,j,red,6103adf779d6468e50941433,2021-10-22_15h30.17.981,forced_choiceRT_color,2021.2.3,Win32,59.88023952,,,,,,,,6,Ontime,short,j,1,2.086,0,0,0,2,1,,,,,
0.63,,,,,,,,,f,blue,6103adf779d6468e50941433,2021-10-22_15h30.17.981,forced_choiceRT_color,2021.2.3,Win32,59.88023952,,,,,,,,6,Ontime,short,f,1,2.059,0,1,1,1,1,,,,,
0.37,,,,,,,,,j,red,6103adf779d6468e50941433,2021-10-22_15h30.17.981,forced_choiceRT_color,2021.2.3,Win32,59.88023952,,,,,,,,6,Ontime,short,j,1,1.957,0,2,2,2,1,,,,,
1.29,,,,,,,,,d,orange,6103adf779d6468e50941433,2021-10-22_15h30.17.981,forced_choiceRT_color,2021.2.3,Win32,59.88023952,,,,,,,,6,Ontime,short,d,1,2.041,0,3,3,0,1,,,,,
1.71,,,,,,,,,j,red,6103adf779d6468e50941433,2021-10-22_15h30.17.981,forced_choiceRT_color,2021.2.3,Win32,59.88023952,,,,,,,,6,Slow,short,j,1,2.203,1,0,4,2,1,,,,,
1.74,,,,,,,,,k,purple,6103adf779d6468e50941433,2021-10-22_15h30.17.981,forced_choiceRT_color,2021.2.3,Win32,59.88023952,,,,,,,,6,Ontime,short,j,0,2.009,1,1,5,3,1,,,,,
0.81,,,,,,,,,k,purple,6103adf779d6468e50941433,2021-10-22_15h30.17.981,forced_choiceRT_color,2021.2.3,Win32,59.88023952,,,,,,,,6,Slow,short,k,1,2.12,1,2,6,3,1,,,,,
1,,,,,,,,,f,blue,6103adf779d6468e50941433,2021-10-22_15h30.17.981,forced_choiceRT_color,2021.2.3,Win32,59.88023952,,,,,,,,6,Slow,short,f,1,2.106,1,3,7,1,1,,,,,
1.1,,,,,,,,,d,orange,6103adf779d6468e50941433,2021-10-22_15h30.17.981,forced_choiceRT_color,2021.2.3,Win32,59.88023952,,,,,,,,6,Slow,short,d,1,3.108,2,0,8,0,1,,,,,
1.49,,,,,,,,,k,purple,6103adf779d6468e50941433,2021-10-22_15h30.17.981,forced_choiceRT_color,2021.2.3,Win32,59.88023952,,,,,,,,6,Ontime,short,k,1,2.095,2,1,9,3,1,,,,,
0.71,,,,,,,,,f,blue,6103adf779d6468e50941433,2021-10-22_15h30.17.981,forced_choiceRT_color,2021.2.3,Win32,59.88023952,,,,,,,,6,Ontime,short,f,1,2.077,2,2,10,1,1,,,,,
0.9,,,,,,,,,k,purple,6103adf779d6468e50941433,2021-10-22_15h30.17.981,forced_choiceRT_color,2021.2.3,Win32,59.88023952,,,,,,,,6,Ontime,short,k,1,2.053,2,3,11,3,1,,,,,
1.29,,,,,,,,,f,blue,6103adf779d6468e50941433,2021-10-22_15h30.17.981,forced_choiceRT_color,2021.2.3,Win32,59.88023952,,,,,,,,6,Ontime,short,f,1,1.953,3,0,12,1,1,,,,,
0.68,,,,,,,,,d,orange,6103adf779d6468e50941433,2021-10-22_15h30.17.981,forced_choiceRT_color,2021.2.3,Win32,59.88023952,,,,,,,,6,Ontime,short,d,1,2.039,3,1,13,0,1,,,,,
0.7,,,,,,,,,d,orange,6103adf779d6468e50941433,2021-10-22_15h30.17.981,forced_choiceRT_color,2021.2.3,Win32,59.88023952,,,,,,,,6,Ontime,short,d,1,2.004,3,2,14,0,1,,,,,
0.88,,,,,,,,,f,blue,6103adf779d6468e50941433,2021-10-22_15h30.17.981,forced_choiceRT_color,2021.2.3,Win32,59.88023952,,,,,,,,6,Ontime,short,j,0,2.056,3,3,15,1,1,,,,,
1.14,,,,,,,,,k,purple,6103adf779d6468e50941433,2021-10-22_15h30.17.981,forced_choiceRT_color,2021.2.3,Win32,59.88023952,,,,,,,,6,Ontime,short,f,0,2.094,4,0,16,3,1,,,,,
0.58,,,,,,,,,k,purple,6103adf779d6468e50941433,2021-10-22_15h30.17.981,forced_choiceRT_color,2021.2.3,Win32,59.88023952,,,,,,,,6,Ontime,short,k,1,2.027,4,1,17,3,1,,,,,
0.43,,,,,,,,,k,purple,6103adf779d6468e50941433,2021-10-22_15h30.17.981,forced_choiceRT_color,2021.2.3,Win32,59.88023952,,,,,,,,6,Ontime,short,k,1,1.944,4,2,18,3,1,,,,,
0.49,,,,,,,,,j,red,6103adf779d6468e50941433,2021-10-22_15h30.17.981,forced_choiceRT_color,2021.2.3,Win32,59.88023952,,,,,,,,6,Ontime,short,j,1,2.006,4,3,19,2,1,,,,,
0.08,,,,,,,,,f,blue,6103adf779d6468e50941433,2021-10-22_15h30.17.981,forced_choiceRT_color,2021.2.3,Win32,59.88023952,,,,,,,,6,Ontime,short,f,1,1.985,5,0,20,1,1,,,,,
1.04,,,,,,,,,j,red,6103adf779d6468e50941433,2021-10-22_15h30.17.981,forced_choiceRT_color,2021.2.3,Win32,59.88023952,,,,,,,,6,Ontime,short,j,1,2.077,5,1,21,2,1,,,,,
1.98,,,,,,,,,j,red,6103adf779d6468e50941433,2021-10-22_15h30.17.981,forced_choiceRT_color,2021.2.3,Win32,59.88023952,,,,,,,,6,Slow,short,d,0,2.145,5,2,22,2,1,,,,,
1.43,,,,,,,,,j,red,6103adf779d6468e50941433,2021-10-22_15h30.17.981,forced_choiceRT_color,2021.2.3,Win32,59.88023952,,,,,,,,6,Ontime,short,j,1,2.082,5,3,23,2,1,,,,,
1.34,,,,,,,,,d,orange,6103adf779d6468e50941433,2021-10-22_15h30.17.981,forced_choiceRT_color,2021.2.3,Win32,59.88023952,,,,,,,,6,Ontime,short,f,0,2.06,6,0,24,0,1,,,,,
0.24,,,,,,,,,f,blue,6103adf779d6468e50941433,2021-10-22_15h30.17.981,forced_choiceRT_color,2021.2.3,Win32,59.88023952,,,,,,,,6,Ontime,short,f,1,2.041,6,1,25,1,1,,,,,
1.46,,,,,,,,,f,blue,6103adf779d6468e50941433,2021-10-22_15h30.17.981,forced_choiceRT_color,2021.2.3,Win32,59.88023952,,,,,,,,6,Slow,short,f,1,2.136,6,2,26,1,1,,,,,
1.42,,,,,,,,,f,blue,6103adf779d6468e50941433,2021-10-22_15h30.17.981,forced_choiceRT_color,2021.2.3,Win32,59.88023952,,,,,,,,6,Ontime,short,f,1,2.042,6,3,27,1,1,,,,,
0.9,,,,,,,,,k,purple,6103adf779d6468e50941433,2021-10-22_15h30.17.981,forced_choiceRT_color,2021.2.3,Win32,59.88023952,,,,,,,,6,Ontime,short,d,0,2.053,7,0,28,3,1,,,,,
0.06,,,,,,,,,k,purple,6103adf779d6468e50941433,2021-10-22_15h30.17.981,forced_choiceRT_color,2021.2.3,Win32,59.88023952,,,,,,,,6,Ontime,short,k,1,1.971,7,1,29,3,1,,,,,
1.49,,,,,,,,,d,orange,6103adf779d6468e50941433,2021-10-22_15h30.17.981,forced_choiceRT_color,2021.2.3,Win32,59.88023952,,,,,,,,6,Slow,short,k,0,2.572,7,2,30,0,1,,,,,
1.63,,,,,,,,,d,orange,6103adf779d6468e50941433,2021-10-22_15h30.17.981,forced_choiceRT_color,2021.2.3,Win32,59.88023952,,,,,,,,6,Slow,short,f,0,2.187,7,3,31,0,1,,,,,
0.44,,,,,,,,,d,orange,6103adf779d6468e50941433,2021-10-22_15h30.17.981,forced_choiceRT_color,2021.2.3,Win32,59.88023952,,,,,,,,6,Ontime,short,d,1,2.039,8,0,32,0,1,,,,,
0.29,,,,,,,,,f,blue,6103adf779d6468e50941433,2021-10-22_15h30.17.981,forced_choiceRT_color,2021.2.3,Win32,59.88023952,,,,,,,,6,Ontime,short,f,1,1.989,8,1,33,1,1,,,,,
0.91,,,,,,,,,d,orange,6103adf779d6468e50941433,2021-10-22_15h30.17.981,forced_choiceRT_color,2021.2.3,Win32,59.88023952,,,,,,,,6,Ontime,short,d,1,2.088,8,2,34,0,1,,,,,
0.61,,,,,,,,,k,purple,6103adf779d6468e50941433,2021-10-22_15h30.17.981,forced_choiceRT_color,2021.2.3,Win32,59.88023952,,,,,,,,6,Ontime,short,k,1,2.022,8,3,35,3,1,,,,,
0.19,,,,,,,,,j,red,6103adf779d6468e50941433,2021-10-22_15h30.17.981,forced_choiceRT_color,2021.2.3,Win32,59.88023952,,,,,,,,6,Ontime,short,j,1,1.96,9,0,36,2,1,,,,,
1.78,,,,,,,,,j,red,6103adf779d6468e50941433,2021-10-22_15h30.17.981,forced_choiceRT_color,2021.2.3,Win32,59.88023952,,,,,,,,6,Ontime,short,j,1,2.045,9,1,37,2,1,,,,,
0.64,,,,,,,,,d,orange,6103adf779d6468e50941433,2021-10-22_15h30.17.981,forced_choiceRT_color,2021.2.3,Win32,59.88023952,,,,,,,,6,Ontime,short,k,0,2.021,9,2,38,0,1,,,,,
0.2,,,,,,,,,j,red,6103adf779d6468e50941433,2021-10-22_15h30.17.981,forced_choiceRT_color,2021.2.3,Win32,59.88023952,,,,,,,,6,Ontime,short,j,1,1.979,9,3,39,2,1,,,,,
,,,,,,,,,,,6103adf779d6468e50941433,2021-10-22_15h30.17.981,forced_choiceRT_color,2021.2.3,Win32,59.88023952,,,,,,,,,,,,,,,,,,,5,0,5,0,1
1.68,,,,,,,,,d,orange,6103adf779d6468e50941433,2021-10-22_15h30.17.981,forced_choiceRT_color,2021.2.3,Win32,59.88023952,,,,,,,,7,Slow,short,f,0,2.265,0,0,0,0,1,,,,,
0.04,,,,,,,,,k,purple,6103adf779d6468e50941433,2021-10-22_15h30.17.981,forced_choiceRT_color,2021.2.3,Win32,59.88023952,,,,,,,,7,Ontime,short,k,1,2.029,0,1,1,3,1,,,,,
0.39,,,,,,,,,d,orange,6103adf779d6468e50941433,2021-10-22_15h30.17.981,forced_choiceRT_color,2021.2.3,Win32,59.88023952,,,,,,,,7,Ontime,short,d,1,2.022,0,2,2,0,1,,,,,
0.85,,,,,,,,,f,blue,6103adf779d6468e50941433,2021-10-22_15h30.17.981,forced_choiceRT_color,2021.2.3,Win32,59.88023952,,,,,,,,7,Ontime,short,f,1,2.053,0,3,3,1,1,,,,,
0.4,,,,,,,,,d,orange,6103adf779d6468e50941433,2021-10-22_15h30.17.981,forced_choiceRT_color,2021.2.3,Win32,59.88023952,,,,,,,,7,Ontime,short,d,1,2.072,1,0,4,0,1,,,,,
1.85,,,,,,,,,f,blue,6103adf779d6468e50941433,2021-10-22_15h30.17.981,forced_choiceRT_color,2021.2.3,Win32,59.88023952,,,,,,,,7,Ontime,short,d,0,2.086,1,1,5,1,1,,,,,
1.34,,,,,,,,,k,purple,6103adf779d6468e50941433,2021-10-22_15h30.17.981,forced_choiceRT_color,2021.2.3,Win32,59.88023952,,,,,,,,7,Slow,short,k,1,2.119,1,2,6,3,1,,,,,
0.8,,,,,,,,,j,red,6103adf779d6468e50941433,2021-10-22_15h30.17.981,forced_choiceRT_color,2021.2.3,Win32,59.88023952,,,,,,,,7,Ontime,short,j,1,2.063,1,3,7,2,1,,,,,
0.19,,,,,,,,,k,purple,6103adf779d6468e50941433,2021-10-22_15h30.17.981,forced_choiceRT_color,2021.2.3,Win32,59.88023952,,,,,,,,7,Ontime,short,k,1,2.07,2,0,8,3,1,,,,,
0.79,,,,,,,,,d,orange,6103adf779d6468e50941433,2021-10-22_15h30.17.981,forced_choiceRT_color,2021.2.3,Win32,59.88023952,,,,,,,,7,Slow,short,d,1,2.114,2,1,9,0,1,,,,,
0.57,,,,,,,,,k,purple,6103adf779d6468e50941433,2021-10-22_15h30.17.981,forced_choiceRT_color,2021.2.3,Win32,59.88023952,,,,,,,,7,Ontime,short,k,1,2.073,2,2,10,3,1,,,,,
0.68,,,,,,,,,k,purple,6103adf779d6468e50941433,2021-10-22_15h30.17.981,forced_choiceRT_color,2021.2.3,Win32,59.88023952,,,,,,,,7,Ontime,short,k,1,2.044,2,3,11,3,1,,,,,
1.32,,,,,,,,,j,red,6103adf779d6468e50941433,2021-10-22_15h30.17.981,forced_choiceRT_color,2021.2.3,Win32,59.88023952,,,,,,,,7,Slow,short,j,1,2.138,3,0,12,2,1,,,,,
0.75,,,,,,,,,k,purple,6103adf779d6468e50941433,2021-10-22_15h30.17.981,forced_choiceRT_color,2021.2.3,Win32,59.88023952,,,,,,,,7,Ontime,short,k,1,2.007,3,1,13,3,1,,,,,
0.98,,,,,,,,,k,purple,6103adf779d6468e50941433,2021-10-22_15h30.17.981,forced_choiceRT_color,2021.2.3,Win32,59.88023952,,,,,,,,7,Ontime,short,k,1,2.011,3,2,14,3,1,,,,,
0.03,,,,,,,,,d,orange,6103adf779d6468e50941433,2021-10-22_15h30.17.981,forced_choiceRT_color,2021.2.3,Win32,59.88023952,,,,,,,,7,Ontime,short,d,1,2.019,3,3,15,0,1,,,,,
1,,,,,,,,,f,blue,6103adf779d6468e50941433,2021-10-22_15h30.17.981,forced_choiceRT_color,2021.2.3,Win32,59.88023952,,,,,,,,7,Ontime,short,f,1,2.044,4,0,16,1,1,,,,,
0.66,,,,,,,,,j,red,6103adf779d6468e50941433,2021-10-22_15h30.17.981,forced_choiceRT_color,2021.2.3,Win32,59.88023952,,,,,,,,7,Ontime,short,j,1,2.025,4,1,17,2,1,,,,,
0.52,,,,,,,,,j,red,6103adf779d6468e50941433,2021-10-22_15h30.17.981,forced_choiceRT_color,2021.2.3,Win32,59.88023952,,,,,,,,7,Ontime,short,j,1,2.041,4,2,18,2,1,,,,,
1.84,,,,,,,,,k,purple,6103adf779d6468e50941433,2021-10-22_15h30.17.981,forced_choiceRT_color,2021.2.3,Win32,59.88023952,,,,,,,,7,Slow,short,k,1,2.305,4,3,19,3,1,,,,,
1.87,,,,,,,,,j,red,6103adf779d6468e50941433,2021-10-22_15h30.17.981,forced_choiceRT_color,2021.2.3,Win32,59.88023952,,,,,,,,7,Slow,short,j,1,2.428,5,0,20,2,1,,,,,
0.39,,,,,,,,,f,blue,6103adf779d6468e50941433,2021-10-22_15h30.17.981,forced_choiceRT_color,2021.2.3,Win32,59.88023952,,,,,,,,7,Ontime,short,f,1,2.086,5,1,21,1,1,,,,,
0.6,,,,,,,,,d,orange,6103adf779d6468e50941433,2021-10-22_15h30.17.981,forced_choiceRT_color,2021.2.3,Win32,59.88023952,,,,,,,,7,Ontime,short,d,1,2.022,5,2,22,0,1,,,,,
1.82,,,,,,,,,f,blue,6103adf779d6468e50941433,2021-10-22_15h30.17.981,forced_choiceRT_color,2021.2.3,Win32,59.88023952,,,,,,,,7,Slow,short,j,0,2.558,5,3,23,1,1,,,,,
0.43,,,,,,,,,j,red,6103adf779d6468e50941433,2021-10-22_15h30.17.981,forced_choiceRT_color,2021.2.3,Win32,59.88023952,,,,,,,,7,Ontime,short,j,1,2.029,6,0,24,2,1,,,,,
1.26,,,,,,,,,d,orange,6103adf779d6468e50941433,2021-10-22_15h30.17.981,forced_choiceRT_color,2021.2.3,Win32,59.88023952,,,,,,,,7,Slow,short,d,1,2.211,6,1,25,0,1,,,,,
0.77,,,,,,,,,f,blue,6103adf779d6468e50941433,2021-10-22_15h30.17.981,forced_choiceRT_color,2021.2.3,Win32,59.88023952,,,,,,,,7,Ontime,short,f,1,2.089,6,2,26,1,1,,,,,
1.93,,,,,,,,,f,blue,6103adf779d6468e50941433,2021-10-22_15h30.17.981,forced_choiceRT_color,2021.2.3,Win32,59.88023952,,,,,,,,7,Slow,short,f,1,2.533,6,3,27,1,1,,,,,
1.45,,,,,,,,,d,orange,6103adf779d6468e50941433,2021-10-22_15h30.17.981,forced_choiceRT_color,2021.2.3,Win32,59.88023952,,,,,,,,7,Slow,short,d,1,2.136,7,0,28,0,1,,,,,
0.53,,,,,,,,,f,blue,6103adf779d6468e50941433,2021-10-22_15h30.17.981,forced_choiceRT_color,2021.2.3,Win32,59.88023952,,,,,,,,7,Ontime,short,f,1,1.971,7,1,29,1,1,,,,,
1.38,,,,,,,,,k,purple,6103adf779d6468e50941433,2021-10-22_15h30.17.981,forced_choiceRT_color,2021.2.3,Win32,59.88023952,,,,,,,,7,Slow,short,k,1,2.133,7,2,30,3,1,,,,,
0.73,,,,,,,,,j,red,6103adf779d6468e50941433,2021-10-22_15h30.17.981,forced_choiceRT_color,2021.2.3,Win32,59.88023952,,,,,,,,7,Ontime,short,j,1,2.028,7,3,31,2,1,,,,,
1.18,,,,,,,,,k,purple,6103adf779d6468e50941433,2021-10-22_15h30.17.981,forced_choiceRT_color,2021.2.3,Win32,59.88023952,,,,,,,,7,Slow,short,k,1,2.49,8,0,32,3,1,,,,,
0.74,,,,,,,,,j,red,6103adf779d6468e50941433,2021-10-22_15h30.17.981,forced_choiceRT_color,2021.2.3,Win32,59.88023952,,,,,,,,7,Ontime,short,j,1,2.038,8,1,33,2,1,,,,,
1.44,,,,,,,,,j,red,6103adf779d6468e50941433,2021-10-22_15h30.17.981,forced_choiceRT_color,2021.2.3,Win32,59.88023952,,,,,,,,7,Slow,short,j,1,2.12,8,2,34,2,1,,,,,
1.89,,,,,,,,,j,red,6103adf779d6468e50941433,2021-10-22_15h30.17.981,forced_choiceRT_color,2021.2.3,Win32,59.88023952,,,,,,,,7,Slow,short,j,1,2.297,8,3,35,2,1,,,,,
1.49,,,,,,,,,d,orange,6103adf779d6468e50941433,2021-10-22_15h30.17.981,forced_choiceRT_color,2021.2.3,Win32,59.88023952,,,,,,,,7,Slow,short,d,1,2.137,9,0,36,0,1,,,,,
0.28,,,,,,,,,f,blue,6103adf779d6468e50941433,2021-10-22_15h30.17.981,forced_choiceRT_color,2021.2.3,Win32,59.88023952,,,,,,,,7,Ontime,short,f,1,1.928,9,1,37,1,1,,,,,
0.28,,,,,,,,,d,orange,6103adf779d6468e50941433,2021-10-22_15h30.17.981,forced_choiceRT_color,2021.2.3,Win32,59.88023952,,,,,,,,7,Ontime,short,d,1,2.008,9,2,38,0,1,,,,,
1.67,,,,,,,,,f,blue,6103adf779d6468e50941433,2021-10-22_15h30.17.981,forced_choiceRT_color,2021.2.3,Win32,59.88023952,,,,,,,,7,Slow,short,f,1,2.291,9,3,39,1,1,,,,,
,,,,,,,,,,,6103adf779d6468e50941433,2021-10-22_15h30.17.981,forced_choiceRT_color,2021.2.3,Win32,59.88023952,,,,,,,,,,,,,,,,,,,6,0,6,0,1
1.63,,,,,,,,,j,red,6103adf779d6468e50941433,2021-10-22_15h30.17.981,forced_choiceRT_color,2021.2.3,Win32,59.88023952,,,,,,,,8,Slow,short,j,1,2.367,0,0,0,2,1,,,,,
1.32,,,,,,,,,j,red,6103adf779d6468e50941433,2021-10-22_15h30.17.981,forced_choiceRT_color,2021.2.3,Win32,59.88023952,,,,,,,,8,Ontime,short,j,1,2.011,0,1,1,2,1,,,,,
0.62,,,,,,,,,d,orange,6103adf779d6468e50941433,2021-10-22_15h30.17.981,forced_choiceRT_color,2021.2.3,Win32,59.88023952,,,,,,,,8,Ontime,short,d,1,2.002,0,2,2,0,1,,,,,
0.17,,,,,,,,,k,purple,6103adf779d6468e50941433,2021-10-22_15h30.17.981,forced_choiceRT_color,2021.2.3,Win32,59.88023952,,,,,,,,8,Ontime,short,k,1,1.988,0,3,3,3,1,,,,,
0.11,,,,,,,,,j,red,6103adf779d6468e50941433,2021-10-22_15h30.17.981,forced_choiceRT_color,2021.2.3,Win32,59.88023952,,,,,,,,8,Ontime,short,j,1,1.978,1,0,4,2,1,,,,,
1.78,,,,,,,,,d,orange,6103adf779d6468e50941433,2021-10-22_15h30.17.981,forced_choiceRT_color,2021.2.3,Win32,59.88023952,,,,,,,,8,Slow,short,d,1,2.337,1,1,5,0,1,,,,,
1.38,,,,,,,,,k,purple,6103adf779d6468e50941433,2021-10-22_15h30.17.981,forced_choiceRT_color,2021.2.3,Win32,59.88023952,,,,,,,,8,Slow,short,k,1,2.223,1,2,6,3,1,,,,,
0.48,,,,,,,,,k,purple,6103adf779d6468e50941433,2021-10-22_15h30.17.981,forced_choiceRT_color,2021.2.3,Win32,59.88023952,,,,,,,,8,Fast,short,k,1,1.886,1,3,7,3,1,,,,,
1.61,,,,,,,,,d,orange,6103adf779d6468e50941433,2021-10-22_15h30.17.981,forced_choiceRT_color,2021.2.3,Win32,59.88023952,,,,,,,,8,Slow,short,d,1,2.295,2,0,8,0,1,,,,,
0.31,,,,,,,,,f,blue,6103adf779d6468e50941433,2021-10-22_15h30.17.981,forced_choiceRT_color,2021.2.3,Win32,59.88023952,,,,,,,,8,Ontime,short,f,1,1.953,2,1,9,1,1,,,,,
0.84,,,,,,,,,j,red,6103adf779d6468e50941433,2021-10-22_15h30.17.981,forced_choiceRT_color,2021.2.3,Win32,59.88023952,,,,,,,,8,Ontime,short,j,1,2.071,2,2,10,2,1,,,,,
1.93,,,,,,,,,k,purple,6103adf779d6468e50941433,2021-10-22_15h30.17.981,forced_choiceRT_color,2021.2.3,Win32,59.88023952,,,,,,,,8,Slow,short,k,1,2.506,2,3,11,3,1,,,,,
0.81,,,,,,,,,d,orange,6103adf779d6468e50941433,2021-10-22_15h30.17.981,forced_choiceRT_color,2021.2.3,Win32,59.88023952,,,,,,,,8,Ontime,short,d,1,2.005,3,0,12,0,1,,,,,
1.61,,,,,,,,,j,red,6103adf779d6468e50941433,2021-10-22_15h30.17.981,forced_choiceRT_color,2021.2.3,Win32,59.88023952,,,,,,,,8,Slow,short,j,1,2.458,3,1,13,2,1,,,,,
0.03,,,,,,,,,j,red,6103adf779d6468e50941433,2021-10-22_15h30.17.981,forced_choiceRT_color,2021.2.3,Win32,59.88023952,,,,,,,,8,Ontime,short,j,1,1.973,3,2,14,2,1,,,,,
1.85,,,,,,,,,k,purple,6103adf779d6468e50941433,2021-10-22_15h30.17.981,forced_choiceRT_color,2021.2.3,Win32,59.88023952,,,,,,,,8,Slow,short,k,1,2.468,3,3,15,3,1,,,,,
1.24,,,,,,,,,f,blue,6103adf779d6468e50941433,2021-10-22_15h30.17.981,forced_choiceRT_color,2021.2.3,Win32,59.88023952,,,,,,,,8,Ontime,short,d,0,2.021,4,0,16,1,1,,,,,
1.28,,,,,,,,,j,red,6103adf779d6468e50941433,2021-10-22_15h30.17.981,forced_choiceRT_color,2021.2.3,Win32,59.88023952,,,,,,,,8,Ontime,short,j,1,2.085,4,1,17,2,1,,,,,
0.02,,,,,,,,,k,purple,6103adf779d6468e50941433,2021-10-22_15h30.17.981,forced_choiceRT_color,2021.2.3,Win32,59.88023952,,,,,,,,8,Ontime,short,k,1,2.008,4,2,18,3,1,,,,,
0.14,,,,,,,,,f,blue,6103adf779d6468e50941433,2021-10-22_15h30.17.981,forced_choiceRT_color,2021.2.3,Win32,59.88023952,,,,,,,,8,Ontime,short,f,1,1.962,4,3,19,1,1,,,,,
0.38,,,,,,,,,d,orange,6103adf779d6468e50941433,2021-10-22_15h30.17.981,forced_choiceRT_color,2021.2.3,Win32,59.88023952,,,,,,,,8,Ontime,short,d,1,1.954,5,0,20,0,1,,,,,
0.27,,,,,,,,,d,orange,6103adf779d6468e50941433,2021-10-22_15h30.17.981,forced_choiceRT_color,2021.2.3,Win32,59.88023952,,,,,,,,8,Ontime,short,d,1,1.986,5,1,21,0,1,,,,,
1.86,,,,,,,,,d,orange,6103adf779d6468e50941433,2021-10-22_15h30.17.981,forced_choiceRT_color,2021.2.3,Win32,59.88023952,,,,,,,,8,Slow,short,d,1,2.251,5,2,22,0,1,,,,,
0.51,,,,,,,,,f,blue,6103adf779d6468e50941433,2021-10-22_15h30.17.981,forced_choiceRT_color,2021.2.3,Win32,59.88023952,,,,,,,,8,Ontime,short,f,1,2.063,5,3,23,1,1,,,,,
0.73,,,,,,,,,d,orange,6103adf779d6468e50941433,2021-10-22_15h30.17.981,forced_choiceRT_color,2021.2.3,Win32,59.88023952,,,,,,,,8,Ontime,short,d,1,1.988,6,0,24,0,1,,,,,
1.42,,,,,,,,,f,blue,6103adf779d6468e50941433,2021-10-22_15h30.17.981,forced_choiceRT_color,2021.2.3,Win32,59.88023952,,,,,,,,8,Slow,short,f,1,2.105,6,1,25,1,1,,,,,
0.18,,,,,,,,,f,blue,6103adf779d6468e50941433,2021-10-22_15h30.17.981,forced_choiceRT_color,2021.2.3,Win32,59.88023952,,,,,,,,8,Ontime,short,f,1,1.994,6,2,26,1,1,,,,,
0.23,,,,,,,,,k,purple,6103adf779d6468e50941433,2021-10-22_15h30.17.981,forced_choiceRT_color,2021.2.3,Win32,59.88023952,,,,,,,,8,Ontime,short,k,1,1.955,6,3,27,3,1,,,,,
1.93,,,,,,,,,k,purple,6103adf779d6468e50941433,2021-10-22_15h30.17.981,forced_choiceRT_color,2021.2.3,Win32,59.88023952,,,,,,,,8,Slow,short,k,1,2.344,7,0,28,3,1,,,,,
0.82,,,,,,,,,j,red,6103adf779d6468e50941433,2021-10-22_15h30.17.981,forced_choiceRT_color,2021.2.3,Win32,59.88023952,,,,,,,,8,Ontime,short,j,1,1.956,7,1,29,2,1,,,,,
0.05,,,,,,,,,d,orange,6103adf779d6468e50941433,2021-10-22_15h30.17.981,forced_choiceRT_color,2021.2.3,Win32,59.88023952,,,,,,,,8,Ontime,short,d,1,1.927,7,2,30,0,1,,,,,
0.38,,,,,,,,,j,red,6103adf779d6468e50941433,2021-10-22_15h30.17.981,forced_choiceRT_color,2021.2.3,Win32,59.88023952,,,,,,,,8,Ontime,short,j,1,1.959,7,3,31,2,1,,,,,
0.98,,,,,,,,,d,orange,6103adf779d6468e50941433,2021-10-22_15h30.17.981,forced_choiceRT_color,2021.2.3,Win32,59.88023952,,,,,,,,8,Ontime,short,d,1,1.954,8,0,32,0,1,,,,,
0.13,,,,,,,,,k,purple,6103adf779d6468e50941433,2021-10-22_15h30.17.981,forced_choiceRT_color,2021.2.3,Win32,59.88023952,,,,,,,,8,Fast,short,k,1,1.88,8,1,33,3,1,,,,,
0.35,,,,,,,,,f,blue,6103adf779d6468e50941433,2021-10-22_15h30.17.981,forced_choiceRT_color,2021.2.3,Win32,59.88023952,,,,,,,,8,Ontime,short,j,0,1.959,8,2,34,1,1,,,,,
1.02,,,,,,,,,k,purple,6103adf779d6468e50941433,2021-10-22_15h30.17.981,forced_choiceRT_color,2021.2.3,Win32,59.88023952,,,,,,,,8,Ontime,short,f,0,1.955,8,3,35,3,1,,,,,
1.03,,,,,,,,,f,blue,6103adf779d6468e50941433,2021-10-22_15h30.17.981,forced_choiceRT_color,2021.2.3,Win32,59.88023952,,,,,,,,8,Ontime,short,f,1,1.946,9,0,36,1,1,,,,,
1.95,,,,,,,,,j,red,6103adf779d6468e50941433,2021-10-22_15h30.17.981,forced_choiceRT_color,2021.2.3,Win32,59.88023952,,,,,,,,8,Ontime,short,f,0,1.994,9,1,37,2,1,,,,,
1.11,,,,,,,,,f,blue,6103adf779d6468e50941433,2021-10-22_15h30.17.981,forced_choiceRT_color,2021.2.3,Win32,59.88023952,,,,,,,,8,Ontime,short,f,1,2.008,9,2,38,1,1,,,,,
1.19,,,,,,,,,f,blue,6103adf779d6468e50941433,2021-10-22_15h30.17.981,forced_choiceRT_color,2021.2.3,Win32,59.88023952,,,,,,,,8,Ontime,short,k,0,2.073,9,3,39,1,1,,,,,
,,,,,,,,,,,6103adf779d6468e50941433,2021-10-22_15h30.17.981,forced_choiceRT_color,2021.2.3,Win32,59.88023952,,,,,,,,,,,,,,,,,,,7,0,7,0,1
1.01,,,,,,,,,j,red,6103adf779d6468e50941433,2021-10-22_15h30.17.981,forced_choiceRT_color,2021.2.3,Win32,59.88023952,,,,,,,,9,Slow,short,f,0,2.166,0,0,0,2,1,,,,,
0.22,,,,,,,,,d,orange,6103adf779d6468e50941433,2021-10-22_15h30.17.981,forced_choiceRT_color,2021.2.3,Win32,59.88023952,,,,,,,,9,Ontime,short,d,1,1.937,0,1,1,0,1,,,,,
0.43,,,,,,,,,j,red,6103adf779d6468e50941433,2021-10-22_15h30.17.981,forced_choiceRT_color,2021.2.3,Win32,59.88023952,,,,,,,,9,Ontime,short,j,1,1.938,0,2,2,2,1,,,,,
0.87,,,,,,,,,j,red,6103adf779d6468e50941433,2021-10-22_15h30.17.981,forced_choiceRT_color,2021.2.3,Win32,59.88023952,,,,,,,,9,Ontime,short,j,1,2.073,0,3,3,2,1,,,,,
0.83,,,,,,,,,j,red,6103adf779d6468e50941433,2021-10-22_15h30.17.981,forced_choiceRT_color,2021.2.3,Win32,59.88023952,,,,,,,,9,Ontime,short,j,1,2.052,1,0,4,2,1,,,,,
1.25,,,,,,,,,k,purple,6103adf779d6468e50941433,2021-10-22_15h30.17.981,forced_choiceRT_color,2021.2.3,Win32,59.88023952,,,,,,,,9,Ontime,short,k,1,1.979,1,1,5,3,1,,,,,
0.87,,,,,,,,,d,orange,6103adf779d6468e50941433,2021-10-22_15h30.17.981,forced_choiceRT_color,2021.2.3,Win32,59.88023952,,,,,,,,9,Ontime,short,d,1,1.921,1,2,6,0,1,,,,,
0.9,,,,,,,,,k,purple,6103adf779d6468e50941433,2021-10-22_15h30.17.981,forced_choiceRT_color,2021.2.3,Win32,59.88023952,,,,,,,,9,Ontime,short,k,1,2.037,1,3,7,3,1,,,,,
1.45,,,,,,,,,j,red,6103adf779d6468e50941433,2021-10-22_15h30.17.981,forced_choiceRT_color,2021.2.3,Win32,59.88023952,,,,,,,,9,Ontime,short,j,1,2.072,2,0,8,2,1,,,,,
1.39,,,,,,,,,j,red,6103adf779d6468e50941433,2021-10-22_15h30.17.981,forced_choiceRT_color,2021.2.3,Win32,59.88023952,,,,,,,,9,Ontime,short,j,1,2.007,2,1,9,2,1,,,,,
0.95,,,,,,,,,f,blue,6103adf779d6468e50941433,2021-10-22_15h30.17.981,forced_choiceRT_color,2021.2.3,Win32,59.88023952,,,,,,,,9,Ontime,short,f,1,1.974,2,2,10,1,1,,,,,
1.16,,,,,,,,,d,orange,6103adf779d6468e50941433,2021-10-22_15h30.17.981,forced_choiceRT_color,2021.2.3,Win32,59.88023952,,,,,,,,9,Ontime,short,d,1,1.936,2,3,11,0,1,,,,,
0.36,,,,,,,,,j,red,6103adf779d6468e50941433,2021-10-22_15h30.17.981,forced_choiceRT_color,2021.2.3,Win32,59.88023952,,,,,,,,9,Fast,short,j,1,1.8,3,0,12,2,1,,,,,
1.61,,,,,,,,,d,orange,6103adf779d6468e50941433,2021-10-22_15h30.17.981,forced_choiceRT_color,2021.2.3,Win32,59.88023952,,,,,,,,9,Slow,short,f,0,2.129,3,1,13,0,1,,,,,
1.58,,,,,,,,,f,blue,6103adf779d6468e50941433,2021-10-22_15h30.17.981,forced_choiceRT_color,2021.2.3,Win32,59.88023952,,,,,,,,9,Slow,short,f,1,2.29,3,2,14,1,1,,,,,
1.28,,,,,,,,,f,blue,6103adf779d6468e50941433,2021-10-22_15h30.17.981,forced_choiceRT_color,2021.2.3,Win32,59.88023952,,,,,,,,9,Ontime,short,f,1,1.984,3,3,15,1,1,,,,,
1.48,,,,,,,,,d,orange,6103adf779d6468e50941433,2021-10-22_15h30.17.981,forced_choiceRT_color,2021.2.3,Win32,59.88023952,,,,,,,,9,Slow,short,d,1,2.174,4,0,16,0,1,,,,,
1.18,,,,,,,,,j,red,6103adf779d6468e50941433,2021-10-22_15h30.17.981,forced_choiceRT_color,2021.2.3,Win32,59.88023952,,,,,,,,9,Ontime,short,k,0,1.973,4,1,17,2,1,,,,,
0.74,,,,,,,,,j,red,6103adf779d6468e50941433,2021-10-22_15h30.17.981,forced_choiceRT_color,2021.2.3,Win32,59.88023952,,,,,,,,9,Ontime,short,j,1,2.034,4,2,18,2,1,,,,,
0.83,,,,,,,,,k,purple,6103adf779d6468e50941433,2021-10-22_15h30.17.981,forced_choiceRT_color,2021.2.3,Win32,59.88023952,,,,,,,,9,Ontime,short,k,1,1.954,4,3,19,3,1,,,,,
0.08,,,,,,,,,k,purple,6103adf779d6468e50941433,2021-10-22_15h30.17.981,forced_choiceRT_color,2021.2.3,Win32,59.88023952,,,,,,,,9,Fast,short,k,1,1.891,5,0,20,3,1,,,,,
0.06,,,,,,,,,d,orange,6103adf779d6468e50941433,2021-10-22_15h30.17.981,forced_choiceRT_color,2021.2.3,Win32,59.88023952,,,,,,,,9,Ontime,short,d,1,1.987,5,1,21,0,1,,,,,
1.44,,,,,,,,,k,purple,6103adf779d6468e50941433,2021-10-22_15h30.17.981,forced_choiceRT_color,2021.2.3,Win32,59.88023952,,,,,,,,9,Slow,short,k,1,2.178,5,2,22,3,1,,,,,
0.68,,,,,,,,,d,orange,6103adf779d6468e50941433,2021-10-22_15h30.17.981,forced_choiceRT_color,2021.2.3,Win32,59.88023952,,,,,,,,9,Fast,short,d,1,1.806,5,3,23,0,1,,,,,
0.29,,,,,,,,,d,orange,6103adf779d6468e50941433,2021-10-22_15h30.17.981,forced_choiceRT_color,2021.2.3,Win32,59.88023952,,,,,,,,9,Ontime,short,d,1,1.982,6,0,24,0,1,,,,,
1.79,,,,,,,,,f,blue,6103adf779d6468e50941433,2021-10-22_15h30.17.981,forced_choiceRT_color,2021.2.3,Win32,59.88023952,,,,,,,,9,Slow,short,f,1,2.231,6,1,25,1,1,,,,,
1.4,,,,,,,,,d,orange,6103adf779d6468e50941433,2021-10-22_15h30.17.981,forced_choiceRT_color,2021.2.3,Win32,59.88023952,,,,,,,,9,Ontime,short,d,1,1.976,6,2,26,0,1,,,,,
0.71,,,,,,,,,d,orange,6103adf779d6468e50941433,2021-10-22_15h30.17.981,forced_choiceRT_color,2021.2.3,Win32,59.88023952,,,,,,,,9,Ontime,short,d,1,1.944,6,3,27,0,1,,,,,
0.93,,,,,,,,,k,purple,6103adf779d6468e50941433,2021-10-22_15h30.17.981,forced_choiceRT_color,2021.2.3,Win32,59.88023952,,,,,,,,9,Ontime,short,k,1,1.972,7,0,28,3,1,,,,,
0.44,,,,,,,,,k,purple,6103adf779d6468e50941433,2021-10-22_15h30.17.981,forced_choiceRT_color,2021.2.3,Win32,59.88023952,,,,,,,,9,Ontime,short,k,1,1.982,7,1,29,3,1,,,,,
0.28,,,,,,,,,f,blue,6103adf779d6468e50941433,2021-10-22_15h30.17.981,forced_choiceRT_color,2021.2.3,Win32,59.88023952,,,,,,,,9,Ontime,short,f,1,1.989,7,2,30,1,1,,,,,
0.9,,,,,,,,,j,red,6103adf779d6468e50941433,2021-10-22_15h30.17.981,forced_choiceRT_color,2021.2.3,Win32,59.88023952,,,,,,,,9,Ontime,short,j,1,1.938,7,3,31,2,1,,,,,
0,,,,,,,,,f,blue,6103adf779d6468e50941433,2021-10-22_15h30.17.981,forced_choiceRT_color,2021.2.3,Win32,59.88023952,,,,,,,,9,Ontime,short,f,1,1.991,8,0,32,1,1,,,,,
1.17,,,,,,,,,k,purple,6103adf779d6468e50941433,2021-10-22_15h30.17.981,forced_choiceRT_color,2021.2.3,Win32,59.88023952,,,,,,,,9,Ontime,short,k,1,1.933,8,1,33,3,1,,,,,
1.81,,,,,,,,,f,blue,6103adf779d6468e50941433,2021-10-22_15h30.17.981,forced_choiceRT_color,2021.2.3,Win32,59.88023952,,,,,,,,9,Slow,short,j,0,2.487,8,2,34,1,1,,,,,
0.69,,,,,,,,,k,purple,6103adf779d6468e50941433,2021-10-22_15h30.17.981,forced_choiceRT_color,2021.2.3,Win32,59.88023952,,,,,,,,9,Ontime,short,k,1,1.945,8,3,35,3,1,,,,,
1.8,,,,,,,,,f,blue,6103adf779d6468e50941433,2021-10-22_15h30.17.981,forced_choiceRT_color,2021.2.3,Win32,59.88023952,,,,,,,,9,Ontime,short,k,0,2.076,9,0,36,1,1,,,,,
0.56,,,,,,,,,k,purple,6103adf779d6468e50941433,2021-10-22_15h30.17.981,forced_choiceRT_color,2021.2.3,Win32,59.88023952,,,,,,,,9,Ontime,short,k,1,1.965,9,1,37,3,1,,,,,
0.84,,,,,,,,,f,blue,6103adf779d6468e50941433,2021-10-22_15h30.17.981,forced_choiceRT_color,2021.2.3,Win32,59.88023952,,,,,,,,9,Ontime,short,f,1,1.945,9,2,38,1,1,,,,,
0.29,,,,,,,,,f,blue,6103adf779d6468e50941433,2021-10-22_15h30.17.981,forced_choiceRT_color,2021.2.3,Win32,59.88023952,,,,,,,,9,Ontime,short,f,1,1.931,9,3,39,1,1,,,,,
,,,,,,,,,,,6103adf779d6468e50941433,2021-10-22_15h30.17.981,forced_choiceRT_color,2021.2.3,Win32,59.88023952,,,,,,,,,,,,,,,,,,,8,0,8,0,1
1.59,,,,,,,,,j,red,6103adf779d6468e50941433,2021-10-22_15h30.17.981,forced_choiceRT_color,2021.2.3,Win32,59.88023952,,,,,,,,10,Ontime,short,d,0,2.059,0,0,0,2,1,,,,,
1.45,,,,,,,,,f,blue,6103adf779d6468e50941433,2021-10-22_15h30.17.981,forced_choiceRT_color,2021.2.3,Win32,59.88023952,,,,,,,,10,Ontime,short,f,1,1.961,0,1,1,1,1,,,,,
1,,,,,,,,,d,orange,6103adf779d6468e50941433,2021-10-22_15h30.17.981,forced_choiceRT_color,2021.2.3,Win32,59.88023952,,,,,,,,10,Ontime,short,d,1,1.985,0,2,2,0,1,,,,,
1.4,,,,,,,,,d,orange,6103adf779d6468e50941433,2021-10-22_15h30.17.981,forced_choiceRT_color,2021.2.3,Win32,59.88023952,,,,,,,,10,Ontime,short,d,1,1.974,0,3,3,0,1,,,,,
1.75,,,,,,,,,d,orange,6103adf779d6468e50941433,2021-10-22_15h30.17.981,forced_choiceRT_color,2021.2.3,Win32,59.88023952,,,,,,,,10,Ontime,short,d,1,1.964,1,0,4,0,1,,,,,
1.98,,,,,,,,,j,red,6103adf779d6468e50941433,2021-10-22_15h30.17.981,forced_choiceRT_color,2021.2.3,Win32,59.88023952,,,,,,,,10,Ontime,short,f,0,1.941,1,1,5,2,1,,,,,
1.95,,,,,,,,,k,purple,6103adf779d6468e50941433,2021-10-22_15h30.17.981,forced_choiceRT_color,2021.2.3,Win32,59.88023952,,,,,,,,10,Fast,short,f,0,1.706,1,2,6,3,1,,,,,
0.64,,,,,,,,,j,red,6103adf779d6468e50941433,2021-10-22_15h30.17.981,forced_choiceRT_color,2021.2.3,Win32,59.88023952,,,,,,,,10,Ontime,short,j,1,1.976,1,3,7,2,1,,,,,
0,,,,,,,,,j,red,6103adf779d6468e50941433,2021-10-22_15h30.17.981,forced_choiceRT_color,2021.2.3,Win32,59.88023952,,,,,,,,10,Ontime,short,j,1,1.983,2,0,8,2,1,,,,,
1.7,,,,,,,,,k,purple,6103adf779d6468e50941433,2021-10-22_15h30.17.981,forced_choiceRT_color,2021.2.3,Win32,59.88023952,,,,,,,,10,Slow,short,k,1,2.304,2,1,9,3,1,,,,,
1.07,,,,,,,,,j,red,6103adf779d6468e50941433,2021-10-22_15h30.17.981,forced_choiceRT_color,2021.2.3,Win32,59.88023952,,,,,,,,10,Ontime,short,j,1,2.001,2,2,10,2,1,,,,,
0.15,,,,,,,,,k,purple,6103adf779d6468e50941433,2021-10-22_15h30.17.981,forced_choiceRT_color,2021.2.3,Win32,59.88023952,,,,,,,,10,Ontime,short,k,1,1.936,2,3,11,3,1,,,,,
1.1,,,,,,,,,d,orange,6103adf779d6468e50941433,2021-10-22_15h30.17.981,forced_choiceRT_color,2021.2.3,Win32,59.88023952,,,,,,,,10,Ontime,short,d,1,1.938,3,0,12,0,1,,,,,
1.56,,,,,,,,,k,purple,6103adf779d6468e50941433,2021-10-22_15h30.17.981,forced_choiceRT_color,2021.2.3,Win32,59.88023952,,,,,,,,10,Slow,short,k,1,2.359,3,1,13,3,1,,,,,
1.8,,,,,,,,,f,blue,6103adf779d6468e50941433,2021-10-22_15h30.17.981,forced_choiceRT_color,2021.2.3,Win32,59.88023952,,,,,,,,10,Slow,short,f,1,2.539,3,2,14,1,1,,,,,
1.54,,,,,,,,,f,blue,6103adf779d6468e50941433,2021-10-22_15h30.17.981,forced_choiceRT_color,2021.2.3,Win32,59.88023952,,,,,,,,10,Slow,short,f,1,2.14,3,3,15,1,1,,,,,
0.49,,,,,,,,,d,orange,6103adf779d6468e50941433,2021-10-22_15h30.17.981,forced_choiceRT_color,2021.2.3,Win32,59.88023952,,,,,,,,10,Ontime,short,d,1,1.993,4,0,16,0,1,,,,,
1.72,,,,,,,,,d,orange,6103adf779d6468e50941433,2021-10-22_15h30.17.981,forced_choiceRT_color,2021.2.3,Win32,59.88023952,,,,,,,,10,Slow,short,d,1,2.179,4,1,17,0,1,,,,,
1.97,,,,,,,,,f,blue,6103adf779d6468e50941433,2021-10-22_15h30.17.981,forced_choiceRT_color,2021.2.3,Win32,59.88023952,,,,,,,,10,Slow,short,f,1,2.73,4,2,18,1,1,,,,,
0.87,,,,,,,,,f,blue,6103adf779d6468e50941433,2021-10-22_15h30.17.981,forced_choiceRT_color,2021.2.3,Win32,59.88023952,,,,,,,,10,Ontime,short,f,1,1.922,4,3,19,1,1,,,,,
1.91,,,,,,,,,k,purple,6103adf779d6468e50941433,2021-10-22_15h30.17.981,forced_choiceRT_color,2021.2.3,Win32,59.88023952,,,,,,,,10,Slow,short,d,0,2.414,5,0,20,3,1,,,,,
0.48,,,,,,,,,f,blue,6103adf779d6468e50941433,2021-10-22_15h30.17.981,forced_choiceRT_color,2021.2.3,Win32,59.88023952,,,,,,,,10,Ontime,short,j,0,2.089,5,1,21,1,1,,,,,
1.87,,,,,,,,,k,purple,6103adf779d6468e50941433,2021-10-22_15h30.17.981,forced_choiceRT_color,2021.2.3,Win32,59.88023952,,,,,,,,10,Slow,short,k,1,2.584,5,2,22,3,1,,,,,
0.84,,,,,,,,,k,purple,6103adf779d6468e50941433,2021-10-22_15h30.17.981,forced_choiceRT_color,2021.2.3,Win32,59.88023952,,,,,,,,10,Ontime,short,k,1,1.928,5,3,23,3,1,,,,,
0.22,,,,,,,,,d,orange,6103adf779d6468e50941433,2021-10-22_15h30.17.981,forced_choiceRT_color,2021.2.3,Win32,59.88023952,,,,,,,,10,Ontime,short,d,1,1.96,6,0,24,0,1,,,,,
0.2,,,,,,,,,f,blue,6103adf779d6468e50941433,2021-10-22_15h30.17.981,forced_choiceRT_color,2021.2.3,Win32,59.88023952,,,,,,,,10,Ontime,short,f,1,2.009,6,1,25,1,1,,,,,
0.82,,,,,,,,,j,red,6103adf779d6468e50941433,2021-10-22_15h30.17.981,forced_choiceRT_color,2021.2.3,Win32,59.88023952,,,,,,,,10,Ontime,short,j,1,1.955,6,2,26,2,1,,,,,
0.39,,,,,,,,,k,purple,6103adf779d6468e50941433,2021-10-22_15h30.17.981,forced_choiceRT_color,2021.2.3,Win32,59.88023952,,,,,,,,10,Ontime,short,k,1,2.003,6,3,27,3,1,,,,,
0.68,,,,,,,,,d,orange,6103adf779d6468e50941433,2021-10-22_15h30.17.981,forced_choiceRT_color,2021.2.3,Win32,59.88023952,,,,,,,,10,Ontime,short,f,0,2.004,7,0,28,0,1,,,,,
0.33,,,,,,,,,d,orange,6103adf779d6468e50941433,2021-10-22_15h30.17.981,forced_choiceRT_color,2021.2.3,Win32,59.88023952,,,,,,,,10,Ontime,short,d,1,1.987,7,1,29,0,1,,,,,
0.07,,,,,,,,,f,blue,6103adf779d6468e50941433,2021-10-22_15h30.17.981,forced_choiceRT_color,2021.2.3,Win32,59.88023952,,,,,,,,10,Ontime,short,f,1,1.976,7,2,30,1,1,,,,,
1.71,,,,,,,,,j,red,6103adf779d6468e50941433,2021-10-22_15h30.17.981,forced_choiceRT_color,2021.2.3,Win32,59.88023952,,,,,,,,10,Slow,short,j,1,2.439,7,3,31,2,1,,,,,
0.88,,,,,,,,,k,purple,6103adf779d6468e50941433,2021-10-22_15h30.17.981,forced_choiceRT_color,2021.2.3,Win32,59.88023952,,,,,,,,10,Ontime,short,k,1,1.928,8,0,32,3,1,,,,,
1.02,,,,,,,,,j,red,6103adf779d6468e50941433,2021-10-22_15h30.17.981,forced_choiceRT_color,2021.2.3,Win32,59.88023952,,,,,,,,10,Ontime,short,j,1,2.004,8,1,33,2,1,,,,,
1.17,,,,,,,,,f,blue,6103adf779d6468e50941433,2021-10-22_15h30.17.981,forced_choiceRT_color,2021.2.3,Win32,59.88023952,,,,,,,,10,Ontime,short,f,1,2.045,8,2,34,1,1,,,,,
0.27,,,,,,,,,k,purple,6103adf779d6468e50941433,2021-10-22_15h30.17.981,forced_choiceRT_color,2021.2.3,Win32,59.88023952,,,,,,,,10,Fast,short,f,0,1.855,8,3,35,3,1,,,,,
0.45,,,,,,,,,f,blue,6103adf779d6468e50941433,2021-10-22_15h30.17.981,forced_choiceRT_color,2021.2.3,Win32,59.88023952,,,,,,,,10,Ontime,short,f,1,2.045,9,0,36,1,1,,,,,
0.49,,,,,,,,,j,red,6103adf779d6468e50941433,2021-10-22_15h30.17.981,forced_choiceRT_color,2021.2.3,Win32,59.88023952,,,,,,,,10,Ontime,short,j,1,2.064,9,1,37,2,1,,,,,
0.61,,,,,,,,,d,orange,6103adf779d6468e50941433,2021-10-22_15h30.17.981,forced_choiceRT_color,2021.2.3,Win32,59.88023952,,,,,,,,10,Ontime,short,d,1,1.965,9,2,38,0,1,,,,,
1.02,,,,,,,,,j,red,6103adf779d6468e50941433,2021-10-22_15h30.17.981,forced_choiceRT_color,2021.2.3,Win32,59.88023952,,,,,,,,10,Ontime,short,j,1,2.073,9,3,39,2,1,,,,,
,,,,,,,,,,,6103adf779d6468e50941433,2021-10-22_15h30.17.981,forced_choiceRT_color,2021.2.3,Win32,59.88023952,,,,,,,,,,,,,,,,,,,9,0,9,0,1
