IP_Addresss,target_onset,trial_resp_sp.keys,trial_resp_sp.corr,trial_resp_sp.rt,trials_train_loop.thisRepN,trials_train_loop.thisTrialN,trials_train_loop.thisN,trials_train_loop.thisIndex,trials_train_loop.ran,correct_key,color,participant,date,expName,psychopyVersion,OS,frameRate,trial_resp_timing.keys,trial_resp_timing.rt,trials_train_timing.thisRepN,trials_train_timing.thisTrialN,trials_train_timing.thisN,trials_train_timing.thisIndex,trials_train_timing.ran,block_id,ontime,feedback_cond,forcedRT_resp.keys,forcedRT_resp.corr,forcedRT_resp.rt,trials.thisRepN,trials.thisTrialN,trials.thisN,trials.thisIndex,trials.ran,blocks.thisRepN,blocks.thisTrialN,blocks.thisN,blocks.thisIndex,blocks.ran
104.157.106.249,0,f,1,2.0179,0,0,0,1,1,f,blue,610814d52974ad90f90174f7,2021-11-01_12h14.04.839,forced_choiceRT_color,2021.2.3,Win32,60.28090904,,,,,,,,,,,,,,,,,,,,,,,
,0,d,1,1.241,0,1,1,0,1,d,orange,610814d52974ad90f90174f7,2021-11-01_12h14.04.839,forced_choiceRT_color,2021.2.3,Win32,60.28090904,,,,,,,,,,,,,,,,,,,,,,,
,0,d,1,1.7241,0,2,2,0,1,d,orange,610814d52974ad90f90174f7,2021-11-01_12h14.04.839,forced_choiceRT_color,2021.2.3,Win32,60.28090904,,,,,,,,,,,,,,,,,,,,,,,
,0,k,1,1.2446,0,3,3,3,1,k,purple,610814d52974ad90f90174f7,2021-11-01_12h14.04.839,forced_choiceRT_color,2021.2.3,Win32,60.28090904,,,,,,,,,,,,,,,,,,,,,,,
,0,j,1,1.1661,1,0,4,2,1,j,red,610814d52974ad90f90174f7,2021-11-01_12h14.04.839,forced_choiceRT_color,2021.2.3,Win32,60.28090904,,,,,,,,,,,,,,,,,,,,,,,
,0,f,1,1.1491,1,1,5,1,1,f,blue,610814d52974ad90f90174f7,2021-11-01_12h14.04.839,forced_choiceRT_color,2021.2.3,Win32,60.28090904,,,,,,,,,,,,,,,,,,,,,,,
,0,f,1,1.1641,1,2,6,1,1,f,blue,610814d52974ad90f90174f7,2021-11-01_12h14.04.839,forced_choiceRT_color,2021.2.3,Win32,60.28090904,,,,,,,,,,,,,,,,,,,,,,,
,0,d,1,0.8921,1,3,7,0,1,d,orange,610814d52974ad90f90174f7,2021-11-01_12h14.04.839,forced_choiceRT_color,2021.2.3,Win32,60.28090904,,,,,,,,,,,,,,,,,,,,,,,
,0,d,1,1.0803,2,0,8,0,1,d,orange,610814d52974ad90f90174f7,2021-11-01_12h14.04.839,forced_choiceRT_color,2021.2.3,Win32,60.28090904,,,,,,,,,,,,,,,,,,,,,,,
,0,k,1,1.0015,2,1,9,3,1,k,purple,610814d52974ad90f90174f7,2021-11-01_12h14.04.839,forced_choiceRT_color,2021.2.3,Win32,60.28090904,,,,,,,,,,,,,,,,,,,,,,,
,0,j,1,0.9267,2,2,10,2,1,j,red,610814d52974ad90f90174f7,2021-11-01_12h14.04.839,forced_choiceRT_color,2021.2.3,Win32,60.28090904,,,,,,,,,,,,,,,,,,,,,,,
,0,f,1,1.03,2,3,11,1,1,f,blue,610814d52974ad90f90174f7,2021-11-01_12h14.04.839,forced_choiceRT_color,2021.2.3,Win32,60.28090904,,,,,,,,,,,,,,,,,,,,,,,
,0,j,1,1.3819,3,0,12,2,1,j,red,610814d52974ad90f90174f7,2021-11-01_12h14.04.839,forced_choiceRT_color,2021.2.3,Win32,60.28090904,,,,,,,,,,,,,,,,,,,,,,,
,0,f,1,1.5698,3,1,13,1,1,f,blue,610814d52974ad90f90174f7,2021-11-01_12h14.04.839,forced_choiceRT_color,2021.2.3,Win32,60.28090904,,,,,,,,,,,,,,,,,,,,,,,
,0,f,1,0.9669,3,2,14,1,1,f,blue,610814d52974ad90f90174f7,2021-11-01_12h14.04.839,forced_choiceRT_color,2021.2.3,Win32,60.28090904,,,,,,,,,,,,,,,,,,,,,,,
,0,d,1,0.6412,3,3,15,0,1,d,orange,610814d52974ad90f90174f7,2021-11-01_12h14.04.839,forced_choiceRT_color,2021.2.3,Win32,60.28090904,,,,,,,,,,,,,,,,,,,,,,,
,0,j,1,1.0657,4,0,16,2,1,j,red,610814d52974ad90f90174f7,2021-11-01_12h14.04.839,forced_choiceRT_color,2021.2.3,Win32,60.28090904,,,,,,,,,,,,,,,,,,,,,,,
,0,d,1,1.4067,4,1,17,0,1,d,orange,610814d52974ad90f90174f7,2021-11-01_12h14.04.839,forced_choiceRT_color,2021.2.3,Win32,60.28090904,,,,,,,,,,,,,,,,,,,,,,,
,0,d,1,0.7674,4,2,18,0,1,d,orange,610814d52974ad90f90174f7,2021-11-01_12h14.04.839,forced_choiceRT_color,2021.2.3,Win32,60.28090904,,,,,,,,,,,,,,,,,,,,,,,
,0,j,1,1.3922,4,3,19,2,1,j,red,610814d52974ad90f90174f7,2021-11-01_12h14.04.839,forced_choiceRT_color,2021.2.3,Win32,60.28090904,,,,,,,,,,,,,,,,,,,,,,,
,0,d,1,0.8858,5,0,20,0,1,d,orange,610814d52974ad90f90174f7,2021-11-01_12h14.04.839,forced_choiceRT_color,2021.2.3,Win32,60.28090904,,,,,,,,,,,,,,,,,,,,,,,
,0,k,1,1.1691,5,1,21,3,1,k,purple,610814d52974ad90f90174f7,2021-11-01_12h14.04.839,forced_choiceRT_color,2021.2.3,Win32,60.28090904,,,,,,,,,,,,,,,,,,,,,,,
,0,j,1,0.9297,5,2,22,2,1,j,red,610814d52974ad90f90174f7,2021-11-01_12h14.04.839,forced_choiceRT_color,2021.2.3,Win32,60.28090904,,,,,,,,,,,,,,,,,,,,,,,
,0,f,1,0.9338,5,3,23,1,1,f,blue,610814d52974ad90f90174f7,2021-11-01_12h14.04.839,forced_choiceRT_color,2021.2.3,Win32,60.28090904,,,,,,,,,,,,,,,,,,,,,,,
,0,k,1,0.6076,6,0,24,3,1,k,purple,610814d52974ad90f90174f7,2021-11-01_12h14.04.839,forced_choiceRT_color,2021.2.3,Win32,60.28090904,,,,,,,,,,,,,,,,,,,,,,,
,0,d,1,0.8866,6,1,25,0,1,d,orange,610814d52974ad90f90174f7,2021-11-01_12h14.04.839,forced_choiceRT_color,2021.2.3,Win32,60.28090904,,,,,,,,,,,,,,,,,,,,,,,
,0,j,1,0.88,6,2,26,2,1,j,red,610814d52974ad90f90174f7,2021-11-01_12h14.04.839,forced_choiceRT_color,2021.2.3,Win32,60.28090904,,,,,,,,,,,,,,,,,,,,,,,
,0,j,1,0.6904,6,3,27,2,1,j,red,610814d52974ad90f90174f7,2021-11-01_12h14.04.839,forced_choiceRT_color,2021.2.3,Win32,60.28090904,,,,,,,,,,,,,,,,,,,,,,,
,0,j,1,0.6035,7,0,28,2,1,j,red,610814d52974ad90f90174f7,2021-11-01_12h14.04.839,forced_choiceRT_color,2021.2.3,Win32,60.28090904,,,,,,,,,,,,,,,,,,,,,,,
,0,k,1,0.7135,7,1,29,3,1,k,purple,610814d52974ad90f90174f7,2021-11-01_12h14.04.839,forced_choiceRT_color,2021.2.3,Win32,60.28090904,,,,,,,,,,,,,,,,,,,,,,,
,0,f,1,1.0142,7,2,30,1,1,f,blue,610814d52974ad90f90174f7,2021-11-01_12h14.04.839,forced_choiceRT_color,2021.2.3,Win32,60.28090904,,,,,,,,,,,,,,,,,,,,,,,
,0,d,1,0.9174,7,3,31,0,1,d,orange,610814d52974ad90f90174f7,2021-11-01_12h14.04.839,forced_choiceRT_color,2021.2.3,Win32,60.28090904,,,,,,,,,,,,,,,,,,,,,,,
,0,j,1,1.2504,8,0,32,2,1,j,red,610814d52974ad90f90174f7,2021-11-01_12h14.04.839,forced_choiceRT_color,2021.2.3,Win32,60.28090904,,,,,,,,,,,,,,,,,,,,,,,
,0,j,1,0.8642,8,1,33,2,1,j,red,610814d52974ad90f90174f7,2021-11-01_12h14.04.839,forced_choiceRT_color,2021.2.3,Win32,60.28090904,,,,,,,,,,,,,,,,,,,,,,,
,0,d,1,0.7141,8,2,34,0,1,d,orange,610814d52974ad90f90174f7,2021-11-01_12h14.04.839,forced_choiceRT_color,2021.2.3,Win32,60.28090904,,,,,,,,,,,,,,,,,,,,,,,
,0,f,1,1.1162,8,3,35,1,1,f,blue,610814d52974ad90f90174f7,2021-11-01_12h14.04.839,forced_choiceRT_color,2021.2.3,Win32,60.28090904,,,,,,,,,,,,,,,,,,,,,,,
,0,k,1,0.7142,9,0,36,3,1,k,purple,610814d52974ad90f90174f7,2021-11-01_12h14.04.839,forced_choiceRT_color,2021.2.3,Win32,60.28090904,,,,,,,,,,,,,,,,,,,,,,,
,0,j,1,0.8535,9,1,37,2,1,j,red,610814d52974ad90f90174f7,2021-11-01_12h14.04.839,forced_choiceRT_color,2021.2.3,Win32,60.28090904,,,,,,,,,,,,,,,,,,,,,,,
,0,k,1,0.6279,9,2,38,3,1,k,purple,610814d52974ad90f90174f7,2021-11-01_12h14.04.839,forced_choiceRT_color,2021.2.3,Win32,60.28090904,,,,,,,,,,,,,,,,,,,,,,,
,0,d,1,0.9,9,3,39,0,1,d,orange,610814d52974ad90f90174f7,2021-11-01_12h14.04.839,forced_choiceRT_color,2021.2.3,Win32,60.28090904,,,,,,,,,,,,,,,,,,,,,,,
,0,j,1,0.8501,10,0,40,2,1,j,red,610814d52974ad90f90174f7,2021-11-01_12h14.04.839,forced_choiceRT_color,2021.2.3,Win32,60.28090904,,,,,,,,,,,,,,,,,,,,,,,
,0,j,1,0.8475,10,1,41,2,1,j,red,610814d52974ad90f90174f7,2021-11-01_12h14.04.839,forced_choiceRT_color,2021.2.3,Win32,60.28090904,,,,,,,,,,,,,,,,,,,,,,,
,0,k,1,0.5651,10,2,42,3,1,k,purple,610814d52974ad90f90174f7,2021-11-01_12h14.04.839,forced_choiceRT_color,2021.2.3,Win32,60.28090904,,,,,,,,,,,,,,,,,,,,,,,
,0,k,1,0.6304,10,3,43,3,1,k,purple,610814d52974ad90f90174f7,2021-11-01_12h14.04.839,forced_choiceRT_color,2021.2.3,Win32,60.28090904,,,,,,,,,,,,,,,,,,,,,,,
,0,f,1,1.2067,11,0,44,1,1,f,blue,610814d52974ad90f90174f7,2021-11-01_12h14.04.839,forced_choiceRT_color,2021.2.3,Win32,60.28090904,,,,,,,,,,,,,,,,,,,,,,,
,0,k,1,0.7241,11,1,45,3,1,k,purple,610814d52974ad90f90174f7,2021-11-01_12h14.04.839,forced_choiceRT_color,2021.2.3,Win32,60.28090904,,,,,,,,,,,,,,,,,,,,,,,
,0,k,1,0.5413,11,2,46,3,1,k,purple,610814d52974ad90f90174f7,2021-11-01_12h14.04.839,forced_choiceRT_color,2021.2.3,Win32,60.28090904,,,,,,,,,,,,,,,,,,,,,,,
,0,f,1,0.9015,11,3,47,1,1,f,blue,610814d52974ad90f90174f7,2021-11-01_12h14.04.839,forced_choiceRT_color,2021.2.3,Win32,60.28090904,,,,,,,,,,,,,,,,,,,,,,,
,0,f,1,0.6685,12,0,48,1,1,f,blue,610814d52974ad90f90174f7,2021-11-01_12h14.04.839,forced_choiceRT_color,2021.2.3,Win32,60.28090904,,,,,,,,,,,,,,,,,,,,,,,
,0,f,1,0.5601,12,1,49,1,1,f,blue,610814d52974ad90f90174f7,2021-11-01_12h14.04.839,forced_choiceRT_color,2021.2.3,Win32,60.28090904,,,,,,,,,,,,,,,,,,,,,,,
,0,d,1,0.6518,12,2,50,0,1,d,orange,610814d52974ad90f90174f7,2021-11-01_12h14.04.839,forced_choiceRT_color,2021.2.3,Win32,60.28090904,,,,,,,,,,,,,,,,,,,,,,,
,0,k,1,0.654,12,3,51,3,1,k,purple,610814d52974ad90f90174f7,2021-11-01_12h14.04.839,forced_choiceRT_color,2021.2.3,Win32,60.28090904,,,,,,,,,,,,,,,,,,,,,,,
,0,k,1,0.7373,13,0,52,3,1,k,purple,610814d52974ad90f90174f7,2021-11-01_12h14.04.839,forced_choiceRT_color,2021.2.3,Win32,60.28090904,,,,,,,,,,,,,,,,,,,,,,,
,0,k,1,0.4392,13,1,53,3,1,k,purple,610814d52974ad90f90174f7,2021-11-01_12h14.04.839,forced_choiceRT_color,2021.2.3,Win32,60.28090904,,,,,,,,,,,,,,,,,,,,,,,
,0,k,1,0.4125,13,2,54,3,1,k,purple,610814d52974ad90f90174f7,2021-11-01_12h14.04.839,forced_choiceRT_color,2021.2.3,Win32,60.28090904,,,,,,,,,,,,,,,,,,,,,,,
,0,d,1,0.6118,13,3,55,0,1,d,orange,610814d52974ad90f90174f7,2021-11-01_12h14.04.839,forced_choiceRT_color,2021.2.3,Win32,60.28090904,,,,,,,,,,,,,,,,,,,,,,,
,0,j,1,0.8227,14,0,56,2,1,j,red,610814d52974ad90f90174f7,2021-11-01_12h14.04.839,forced_choiceRT_color,2021.2.3,Win32,60.28090904,,,,,,,,,,,,,,,,,,,,,,,
,0,f,1,0.9066,14,1,57,1,1,f,blue,610814d52974ad90f90174f7,2021-11-01_12h14.04.839,forced_choiceRT_color,2021.2.3,Win32,60.28090904,,,,,,,,,,,,,,,,,,,,,,,
,0,f,1,0.788,14,2,58,1,1,f,blue,610814d52974ad90f90174f7,2021-11-01_12h14.04.839,forced_choiceRT_color,2021.2.3,Win32,60.28090904,,,,,,,,,,,,,,,,,,,,,,,
,0,d,1,0.7551,14,3,59,0,1,d,orange,610814d52974ad90f90174f7,2021-11-01_12h14.04.839,forced_choiceRT_color,2021.2.3,Win32,60.28090904,,,,,,,,,,,,,,,,,,,,,,,
,,,,,,,,,,,,610814d52974ad90f90174f7,2021-11-01_12h14.04.839,forced_choiceRT_color,2021.2.3,Win32,60.28090904,f,2.3586,0,0,0,0,1,,,,,,,,,,,,,,,,
,,,,,,,,,,,,610814d52974ad90f90174f7,2021-11-01_12h14.04.839,forced_choiceRT_color,2021.2.3,Win32,60.28090904,f,1.7018,1,0,1,0,1,,,,,,,,,,,,,,,,
,,,,,,,,,,,,610814d52974ad90f90174f7,2021-11-01_12h14.04.839,forced_choiceRT_color,2021.2.3,Win32,60.28090904,f,2.1149,2,0,2,0,1,,,,,,,,,,,,,,,,
,,,,,,,,,,,,610814d52974ad90f90174f7,2021-11-01_12h14.04.839,forced_choiceRT_color,2021.2.3,Win32,60.28090904,f,1.9751,3,0,3,0,1,,,,,,,,,,,,,,,,
,,,,,,,,,,,,610814d52974ad90f90174f7,2021-11-01_12h14.04.839,forced_choiceRT_color,2021.2.3,Win32,60.28090904,f,1.766,4,0,4,0,1,,,,,,,,,,,,,,,,
,,,,,,,,,,,,610814d52974ad90f90174f7,2021-11-01_12h14.04.839,forced_choiceRT_color,2021.2.3,Win32,60.28090904,f,2.1596,5,0,5,0,1,,,,,,,,,,,,,,,,
,,,,,,,,,,,,610814d52974ad90f90174f7,2021-11-01_12h14.04.839,forced_choiceRT_color,2021.2.3,Win32,60.28090904,f,2.1345,6,0,6,0,1,,,,,,,,,,,,,,,,
,,,,,,,,,,,,610814d52974ad90f90174f7,2021-11-01_12h14.04.839,forced_choiceRT_color,2021.2.3,Win32,60.28090904,f,2.0769,7,0,7,0,1,,,,,,,,,,,,,,,,
,,,,,,,,,,,,610814d52974ad90f90174f7,2021-11-01_12h14.04.839,forced_choiceRT_color,2021.2.3,Win32,60.28090904,f,2.1595,8,0,8,0,1,,,,,,,,,,,,,,,,
,,,,,,,,,,,,610814d52974ad90f90174f7,2021-11-01_12h14.04.839,forced_choiceRT_color,2021.2.3,Win32,60.28090904,f,1.9361,9,0,9,0,1,,,,,,,,,,,,,,,,
,,,,,,,,,,,,610814d52974ad90f90174f7,2021-11-01_12h14.04.839,forced_choiceRT_color,2021.2.3,Win32,60.28090904,f,1.5514,10,0,10,0,1,,,,,,,,,,,,,,,,
,,,,,,,,,,,,610814d52974ad90f90174f7,2021-11-01_12h14.04.839,forced_choiceRT_color,2021.2.3,Win32,60.28090904,f,1.8227,11,0,11,0,1,,,,,,,,,,,,,,,,
,,,,,,,,,,,,610814d52974ad90f90174f7,2021-11-01_12h14.04.839,forced_choiceRT_color,2021.2.3,Win32,60.28090904,f,2.1186,12,0,12,0,1,,,,,,,,,,,,,,,,
,,,,,,,,,,,,610814d52974ad90f90174f7,2021-11-01_12h14.04.839,forced_choiceRT_color,2021.2.3,Win32,60.28090904,f,2.0918,13,0,13,0,1,,,,,,,,,,,,,,,,
,,,,,,,,,,,,610814d52974ad90f90174f7,2021-11-01_12h14.04.839,forced_choiceRT_color,2021.2.3,Win32,60.28090904,f,2.089,14,0,14,0,1,,,,,,,,,,,,,,,,
,,,,,,,,,,,,610814d52974ad90f90174f7,2021-11-01_12h14.04.839,forced_choiceRT_color,2021.2.3,Win32,60.28090904,f,2.091,15,0,15,0,1,,,,,,,,,,,,,,,,
,,,,,,,,,,,,610814d52974ad90f90174f7,2021-11-01_12h14.04.839,forced_choiceRT_color,2021.2.3,Win32,60.28090904,f,1.9369,16,0,16,0,1,,,,,,,,,,,,,,,,
,,,,,,,,,,,,610814d52974ad90f90174f7,2021-11-01_12h14.04.839,forced_choiceRT_color,2021.2.3,Win32,60.28090904,f,1.7758,17,0,17,0,1,,,,,,,,,,,,,,,,
,,,,,,,,,,,,610814d52974ad90f90174f7,2021-11-01_12h14.04.839,forced_choiceRT_color,2021.2.3,Win32,60.28090904,f,2.0338,18,0,18,0,1,,,,,,,,,,,,,,,,
,,,,,,,,,,,,610814d52974ad90f90174f7,2021-11-01_12h14.04.839,forced_choiceRT_color,2021.2.3,Win32,60.28090904,f,2.1141,19,0,19,0,1,,,,,,,,,,,,,,,,
,1.9,,,,,,,,,d,orange,610814d52974ad90f90174f7,2021-11-01_12h14.04.839,forced_choiceRT_color,2021.2.3,Win32,60.28090904,,,,,,,,1,Slow,long,d,1,3.6569,0,0,0,0,1,,,,,
,1.86,,,,,,,,,f,blue,610814d52974ad90f90174f7,2021-11-01_12h14.04.839,forced_choiceRT_color,2021.2.3,Win32,60.28090904,,,,,,,,1,Ontime,long,f,1,2.0046,0,1,1,1,1,,,,,
,1.78,,,,,,,,,k,purple,610814d52974ad90f90174f7,2021-11-01_12h14.04.839,forced_choiceRT_color,2021.2.3,Win32,60.28090904,,,,,,,,1,Ontime,long,f,0,1.9908,0,2,2,3,1,,,,,
,1.05,,,,,,,,,j,red,610814d52974ad90f90174f7,2021-11-01_12h14.04.839,forced_choiceRT_color,2021.2.3,Win32,60.28090904,,,,,,,,1,Fast,long,f,0,1.8664,0,3,3,2,1,,,,,
,0.37,,,,,,,,,d,orange,610814d52974ad90f90174f7,2021-11-01_12h14.04.839,forced_choiceRT_color,2021.2.3,Win32,60.28090904,,,,,,,,1,Ontime,long,k,0,2.0365,1,0,4,0,1,,,,,
,0.96,,,,,,,,,f,blue,610814d52974ad90f90174f7,2021-11-01_12h14.04.839,forced_choiceRT_color,2021.2.3,Win32,60.28090904,,,,,,,,1,Ontime,long,f,1,2.0431,1,1,5,1,1,,,,,
,1.29,,,,,,,,,j,red,610814d52974ad90f90174f7,2021-11-01_12h14.04.839,forced_choiceRT_color,2021.2.3,Win32,60.28090904,,,,,,,,1,Slow,long,f,0,2.1844,1,2,6,2,1,,,,,
,1.91,,,,,,,,,j,red,610814d52974ad90f90174f7,2021-11-01_12h14.04.839,forced_choiceRT_color,2021.2.3,Win32,60.28090904,,,,,,,,1,Ontime,long,k,0,2.0211,1,3,7,2,1,,,,,
,0.56,,,,,,,,,j,red,610814d52974ad90f90174f7,2021-11-01_12h14.04.839,forced_choiceRT_color,2021.2.3,Win32,60.28090904,,,,,,,,1,Ontime,long,k,0,1.9802,2,0,8,2,1,,,,,
,1.07,,,,,,,,,f,blue,610814d52974ad90f90174f7,2021-11-01_12h14.04.839,forced_choiceRT_color,2021.2.3,Win32,60.28090904,,,,,,,,1,Slow,long,d,0,2.5447,2,1,9,1,1,,,,,
,0.59,,,,,,,,,k,purple,610814d52974ad90f90174f7,2021-11-01_12h14.04.839,forced_choiceRT_color,2021.2.3,Win32,60.28090904,,,,,,,,1,Slow,long,f,0,2.1205,2,2,10,3,1,,,,,
,1.59,,,,,,,,,d,orange,610814d52974ad90f90174f7,2021-11-01_12h14.04.839,forced_choiceRT_color,2021.2.3,Win32,60.28090904,,,,,,,,1,Slow,long,f,0,2.1442,2,3,11,0,1,,,,,
,0.62,,,,,,,,,d,orange,610814d52974ad90f90174f7,2021-11-01_12h14.04.839,forced_choiceRT_color,2021.2.3,Win32,60.28090904,,,,,,,,1,Slow,long,k,0,2.2216,3,0,12,0,1,,,,,
,1.21,,,,,,,,,k,purple,610814d52974ad90f90174f7,2021-11-01_12h14.04.839,forced_choiceRT_color,2021.2.3,Win32,60.28090904,,,,,,,,1,Slow,long,k,1,2.2599,3,1,13,3,1,,,,,
,1.88,,,,,,,,,f,blue,610814d52974ad90f90174f7,2021-11-01_12h14.04.839,forced_choiceRT_color,2021.2.3,Win32,60.28090904,,,,,,,,1,Ontime,long,k,0,1.9458,3,2,14,1,1,,,,,
,1.91,,,,,,,,,k,purple,610814d52974ad90f90174f7,2021-11-01_12h14.04.839,forced_choiceRT_color,2021.2.3,Win32,60.28090904,,,,,,,,1,Slow,long,k,1,2.3411,3,3,15,3,1,,,,,
,0.82,,,,,,,,,j,red,610814d52974ad90f90174f7,2021-11-01_12h14.04.839,forced_choiceRT_color,2021.2.3,Win32,60.28090904,,,,,,,,1,Fast,long,k,0,1.7762,4,0,16,2,1,,,,,
,0.02,,,,,,,,,k,purple,610814d52974ad90f90174f7,2021-11-01_12h14.04.839,forced_choiceRT_color,2021.2.3,Win32,60.28090904,,,,,,,,1,Slow,long,d,0,16.7234,4,1,17,3,1,,,,,
,1.35,,,,,,,,,d,orange,610814d52974ad90f90174f7,2021-11-01_12h14.04.839,forced_choiceRT_color,2021.2.3,Win32,60.28090904,,,,,,,,1,Slow,long,f,0,2.7787,4,2,18,0,1,,,,,
,1.55,,,,,,,,,f,blue,610814d52974ad90f90174f7,2021-11-01_12h14.04.839,forced_choiceRT_color,2021.2.3,Win32,60.28090904,,,,,,,,1,Slow,long,k,0,3.1869,4,3,19,1,1,,,,,
,1.53,,,,,,,,,k,purple,610814d52974ad90f90174f7,2021-11-01_12h14.04.839,forced_choiceRT_color,2021.2.3,Win32,60.28090904,,,,,,,,1,Slow,long,f,0,2.2872,5,0,20,3,1,,,,,
,0.43,,,,,,,,,j,red,610814d52974ad90f90174f7,2021-11-01_12h14.04.839,forced_choiceRT_color,2021.2.3,Win32,60.28090904,,,,,,,,1,Slow,long,d,0,2.7598,5,1,21,2,1,,,,,
,1.22,,,,,,,,,f,blue,610814d52974ad90f90174f7,2021-11-01_12h14.04.839,forced_choiceRT_color,2021.2.3,Win32,60.28090904,,,,,,,,1,Slow,long,d,0,2.669,5,2,22,1,1,,,,,
,1.23,,,,,,,,,d,orange,610814d52974ad90f90174f7,2021-11-01_12h14.04.839,forced_choiceRT_color,2021.2.3,Win32,60.28090904,,,,,,,,1,Slow,long,d,1,3.0049,5,3,23,0,1,,,,,
,0.96,,,,,,,,,j,red,610814d52974ad90f90174f7,2021-11-01_12h14.04.839,forced_choiceRT_color,2021.2.3,Win32,60.28090904,,,,,,,,1,Slow,long,k,0,2.2739,6,0,24,2,1,,,,,
,0.63,,,,,,,,,d,orange,610814d52974ad90f90174f7,2021-11-01_12h14.04.839,forced_choiceRT_color,2021.2.3,Win32,60.28090904,,,,,,,,1,Slow,long,k,0,2.2944,6,1,25,0,1,,,,,
,0.76,,,,,,,,,d,orange,610814d52974ad90f90174f7,2021-11-01_12h14.04.839,forced_choiceRT_color,2021.2.3,Win32,60.28090904,,,,,,,,1,Slow,long,d,1,3.1447,6,2,26,0,1,,,,,
,1.56,,,,,,,,,j,red,610814d52974ad90f90174f7,2021-11-01_12h14.04.839,forced_choiceRT_color,2021.2.3,Win32,60.28090904,,,,,,,,1,Slow,long,k,0,7.1893,6,3,27,2,1,,,,,
,0.37,,,,,,,,,k,purple,610814d52974ad90f90174f7,2021-11-01_12h14.04.839,forced_choiceRT_color,2021.2.3,Win32,60.28090904,,,,,,,,1,Fast,long,d,0,1.8649,7,0,28,3,1,,,,,
,1.57,,,,,,,,,f,blue,610814d52974ad90f90174f7,2021-11-01_12h14.04.839,forced_choiceRT_color,2021.2.3,Win32,60.28090904,,,,,,,,1,Slow,long,k,0,2.3537,7,1,29,1,1,,,,,
,0.01,,,,,,,,,k,purple,610814d52974ad90f90174f7,2021-11-01_12h14.04.839,forced_choiceRT_color,2021.2.3,Win32,60.28090904,,,,,,,,1,Fast,long,f,0,1.8982,7,2,30,3,1,,,,,
,0.51,,,,,,,,,d,orange,610814d52974ad90f90174f7,2021-11-01_12h14.04.839,forced_choiceRT_color,2021.2.3,Win32,60.28090904,,,,,,,,1,Slow,long,d,1,3.0251,7,3,31,0,1,,,,,
,1.18,,,,,,,,,k,purple,610814d52974ad90f90174f7,2021-11-01_12h14.04.839,forced_choiceRT_color,2021.2.3,Win32,60.28090904,,,,,,,,1,Slow,long,k,1,16.725,8,0,32,3,1,,,,,
,0.8,,,,,,,,,f,blue,610814d52974ad90f90174f7,2021-11-01_12h14.04.839,forced_choiceRT_color,2021.2.3,Win32,60.28090904,,,,,,,,1,Slow,long,f,1,2.1208,8,1,33,1,1,,,,,
,1.63,,,,,,,,,f,blue,610814d52974ad90f90174f7,2021-11-01_12h14.04.839,forced_choiceRT_color,2021.2.3,Win32,60.28090904,,,,,,,,1,Slow,long,k,0,2.3121,8,2,34,1,1,,,,,
,1.89,,,,,,,,,k,purple,610814d52974ad90f90174f7,2021-11-01_12h14.04.839,forced_choiceRT_color,2021.2.3,Win32,60.28090904,,,,,,,,1,Ontime,long,f,0,2.0542,8,3,35,3,1,,,,,
,0.33,,,,,,,,,j,red,610814d52974ad90f90174f7,2021-11-01_12h14.04.839,forced_choiceRT_color,2021.2.3,Win32,60.28090904,,,,,,,,1,Ontime,long,k,0,2.0118,9,0,36,2,1,,,,,
,0.72,,,,,,,,,j,red,610814d52974ad90f90174f7,2021-11-01_12h14.04.839,forced_choiceRT_color,2021.2.3,Win32,60.28090904,,,,,,,,1,Fast,long,k,0,1.8025,9,1,37,2,1,,,,,
,1.48,,,,,,,,,f,blue,610814d52974ad90f90174f7,2021-11-01_12h14.04.839,forced_choiceRT_color,2021.2.3,Win32,60.28090904,,,,,,,,1,Slow,long,d,0,2.1834,9,2,38,1,1,,,,,
,0.51,,,,,,,,,d,orange,610814d52974ad90f90174f7,2021-11-01_12h14.04.839,forced_choiceRT_color,2021.2.3,Win32,60.28090904,,,,,,,,1,Ontime,long,f,0,2.0099,9,3,39,0,1,,,,,
,,,,,,,,,,,,610814d52974ad90f90174f7,2021-11-01_12h14.04.839,forced_choiceRT_color,2021.2.3,Win32,60.28090904,,,,,,,,,,,,,,,,,,,0,0,0,0,1
,0.43,,,,,,,,,k,purple,610814d52974ad90f90174f7,2021-11-01_12h14.04.839,forced_choiceRT_color,2021.2.3,Win32,60.28090904,,,,,,,,2,Fast,long,k,1,1.7659,0,0,0,3,1,,,,,
,1.75,,,,,,,,,d,orange,610814d52974ad90f90174f7,2021-11-01_12h14.04.839,forced_choiceRT_color,2021.2.3,Win32,60.28090904,,,,,,,,2,Slow,long,d,1,2.2628,0,1,1,0,1,,,,,
,1.03,,,,,,,,,k,purple,610814d52974ad90f90174f7,2021-11-01_12h14.04.839,forced_choiceRT_color,2021.2.3,Win32,60.28090904,,,,,,,,2,Ontime,long,k,1,2.0344,0,2,2,3,1,,,,,
,1.16,,,,,,,,,f,blue,610814d52974ad90f90174f7,2021-11-01_12h14.04.839,forced_choiceRT_color,2021.2.3,Win32,60.28090904,,,,,,,,2,Ontime,long,d,0,2.0089,0,3,3,1,1,,,,,
,0.62,,,,,,,,,d,orange,610814d52974ad90f90174f7,2021-11-01_12h14.04.839,forced_choiceRT_color,2021.2.3,Win32,60.28090904,,,,,,,,2,Slow,long,d,1,16.2734,1,0,4,0,1,,,,,
,1.74,,,,,,,,,f,blue,610814d52974ad90f90174f7,2021-11-01_12h14.04.839,forced_choiceRT_color,2021.2.3,Win32,60.28090904,,,,,,,,2,Slow,long,f,1,2.3982,1,1,5,1,1,,,,,
,1.61,,,,,,,,,d,orange,610814d52974ad90f90174f7,2021-11-01_12h14.04.839,forced_choiceRT_color,2021.2.3,Win32,60.28090904,,,,,,,,2,Slow,long,d,1,2.1409,1,2,6,0,1,,,,,
,1.56,,,,,,,,,f,blue,610814d52974ad90f90174f7,2021-11-01_12h14.04.839,forced_choiceRT_color,2021.2.3,Win32,60.28090904,,,,,,,,2,Ontime,long,k,0,2.0471,1,3,7,1,1,,,,,
,1.09,,,,,,,,,j,red,610814d52974ad90f90174f7,2021-11-01_12h14.04.839,forced_choiceRT_color,2021.2.3,Win32,60.28090904,,,,,,,,2,Slow,long,j,1,2.114,2,0,8,2,1,,,,,
,1.65,,,,,,,,,j,red,610814d52974ad90f90174f7,2021-11-01_12h14.04.839,forced_choiceRT_color,2021.2.3,Win32,60.28090904,,,,,,,,2,Slow,long,j,1,2.1541,2,1,9,2,1,,,,,
,0.2,,,,,,,,,k,purple,610814d52974ad90f90174f7,2021-11-01_12h14.04.839,forced_choiceRT_color,2021.2.3,Win32,60.28090904,,,,,,,,2,Fast,long,k,1,1.6224,2,2,10,3,1,,,,,
,1.13,,,,,,,,,d,orange,610814d52974ad90f90174f7,2021-11-01_12h14.04.839,forced_choiceRT_color,2021.2.3,Win32,60.28090904,,,,,,,,2,Ontime,long,d,1,1.9272,2,3,11,0,1,,,,,
,0.41,,,,,,,,,d,orange,610814d52974ad90f90174f7,2021-11-01_12h14.04.839,forced_choiceRT_color,2021.2.3,Win32,60.28090904,,,,,,,,2,Fast,long,d,1,1.7486,3,0,12,0,1,,,,,
,1.48,,,,,,,,,k,purple,610814d52974ad90f90174f7,2021-11-01_12h14.04.839,forced_choiceRT_color,2021.2.3,Win32,60.28090904,,,,,,,,2,Slow,long,k,1,2.1103,3,1,13,3,1,,,,,
,1.04,,,,,,,,,j,red,610814d52974ad90f90174f7,2021-11-01_12h14.04.839,forced_choiceRT_color,2021.2.3,Win32,60.28090904,,,,,,,,2,Fast,long,j,1,1.7883,3,2,14,2,1,,,,,
,1.6,,,,,,,,,f,blue,610814d52974ad90f90174f7,2021-11-01_12h14.04.839,forced_choiceRT_color,2021.2.3,Win32,60.28090904,,,,,,,,2,Slow,long,f,1,2.2463,3,3,15,1,1,,,,,
,0,,,,,,,,,f,blue,610814d52974ad90f90174f7,2021-11-01_12h14.04.839,forced_choiceRT_color,2021.2.3,Win32,60.28090904,,,,,,,,2,Fast,long,f,1,1.7099,4,0,16,1,1,,,,,
,0.25,,,,,,,,,f,blue,610814d52974ad90f90174f7,2021-11-01_12h14.04.839,forced_choiceRT_color,2021.2.3,Win32,60.28090904,,,,,,,,2,Fast,long,f,1,1.7436,4,1,17,1,1,,,,,
,0.85,,,,,,,,,j,red,610814d52974ad90f90174f7,2021-11-01_12h14.04.839,forced_choiceRT_color,2021.2.3,Win32,60.28090904,,,,,,,,2,Ontime,long,j,1,2.0878,4,2,18,2,1,,,,,
,1.9,,,,,,,,,k,purple,610814d52974ad90f90174f7,2021-11-01_12h14.04.839,forced_choiceRT_color,2021.2.3,Win32,60.28090904,,,,,,,,2,Slow,long,k,1,2.2767,4,3,19,3,1,,,,,
,0.43,,,,,,,,,d,orange,610814d52974ad90f90174f7,2021-11-01_12h14.04.839,forced_choiceRT_color,2021.2.3,Win32,60.28090904,,,,,,,,2,Fast,long,d,1,1.6223,5,0,20,0,1,,,,,
,1.35,,,,,,,,,j,red,610814d52974ad90f90174f7,2021-11-01_12h14.04.839,forced_choiceRT_color,2021.2.3,Win32,60.28090904,,,,,,,,2,Slow,long,j,1,2.319,5,1,21,2,1,,,,,
,0.32,,,,,,,,,k,purple,610814d52974ad90f90174f7,2021-11-01_12h14.04.839,forced_choiceRT_color,2021.2.3,Win32,60.28090904,,,,,,,,2,Fast,long,k,1,1.8576,5,2,22,3,1,,,,,
,1.33,,,,,,,,,k,purple,610814d52974ad90f90174f7,2021-11-01_12h14.04.839,forced_choiceRT_color,2021.2.3,Win32,60.28090904,,,,,,,,2,Slow,long,k,1,2.206,5,3,23,3,1,,,,,
,1.01,,,,,,,,,j,red,610814d52974ad90f90174f7,2021-11-01_12h14.04.839,forced_choiceRT_color,2021.2.3,Win32,60.28090904,,,,,,,,2,Ontime,long,j,1,2.075,6,0,24,2,1,,,,,
,1.81,,,,,,,,,k,purple,610814d52974ad90f90174f7,2021-11-01_12h14.04.839,forced_choiceRT_color,2021.2.3,Win32,60.28090904,,,,,,,,2,Slow,long,k,1,2.354,6,1,25,3,1,,,,,
,1.86,,,,,,,,,d,orange,610814d52974ad90f90174f7,2021-11-01_12h14.04.839,forced_choiceRT_color,2021.2.3,Win32,60.28090904,,,,,,,,2,Slow,long,d,1,2.3434,6,2,26,0,1,,,,,
,0.07,,,,,,,,,j,red,610814d52974ad90f90174f7,2021-11-01_12h14.04.839,forced_choiceRT_color,2021.2.3,Win32,60.28090904,,,,,,,,2,Fast,long,j,1,1.6878,6,3,27,2,1,,,,,
,0.44,,,,,,,,,d,orange,610814d52974ad90f90174f7,2021-11-01_12h14.04.839,forced_choiceRT_color,2021.2.3,Win32,60.28090904,,,,,,,,2,Fast,long,d,1,1.6929,7,0,28,0,1,,,,,
,0.15,,,,,,,,,j,red,610814d52974ad90f90174f7,2021-11-01_12h14.04.839,forced_choiceRT_color,2021.2.3,Win32,60.28090904,,,,,,,,2,Fast,long,j,1,1.8952,7,1,29,2,1,,,,,
,0.17,,,,,,,,,k,purple,610814d52974ad90f90174f7,2021-11-01_12h14.04.839,forced_choiceRT_color,2021.2.3,Win32,60.28090904,,,,,,,,2,Fast,long,k,1,1.6774,7,2,30,3,1,,,,,
,1.08,,,,,,,,,f,blue,610814d52974ad90f90174f7,2021-11-01_12h14.04.839,forced_choiceRT_color,2021.2.3,Win32,60.28090904,,,,,,,,2,Ontime,long,d,0,2.0893,7,3,31,1,1,,,,,
,1.77,,,,,,,,,d,orange,610814d52974ad90f90174f7,2021-11-01_12h14.04.839,forced_choiceRT_color,2021.2.3,Win32,60.28090904,,,,,,,,2,Slow,long,d,1,2.4403,8,0,32,0,1,,,,,
,0.74,,,,,,,,,j,red,610814d52974ad90f90174f7,2021-11-01_12h14.04.839,forced_choiceRT_color,2021.2.3,Win32,60.28090904,,,,,,,,2,Slow,long,j,1,2.6002,8,1,33,2,1,,,,,
,1,,,,,,,,,f,blue,610814d52974ad90f90174f7,2021-11-01_12h14.04.839,forced_choiceRT_color,2021.2.3,Win32,60.28090904,,,,,,,,2,Slow,long,f,1,2.3088,8,2,34,1,1,,,,,
,0.07,,,,,,,,,d,orange,610814d52974ad90f90174f7,2021-11-01_12h14.04.839,forced_choiceRT_color,2021.2.3,Win32,60.28090904,,,,,,,,2,Fast,long,d,1,1.2669,8,3,35,0,1,,,,,
,0.89,,,,,,,,,f,blue,610814d52974ad90f90174f7,2021-11-01_12h14.04.839,forced_choiceRT_color,2021.2.3,Win32,60.28090904,,,,,,,,2,Slow,long,j,0,2.1029,9,0,36,1,1,,,,,
,0.97,,,,,,,,,f,blue,610814d52974ad90f90174f7,2021-11-01_12h14.04.839,forced_choiceRT_color,2021.2.3,Win32,60.28090904,,,,,,,,2,Fast,long,f,1,1.8073,9,1,37,1,1,,,,,
,0.08,,,,,,,,,k,purple,610814d52974ad90f90174f7,2021-11-01_12h14.04.839,forced_choiceRT_color,2021.2.3,Win32,60.28090904,,,,,,,,2,Fast,long,k,1,1.7865,9,2,38,3,1,,,,,
,0.26,,,,,,,,,j,red,610814d52974ad90f90174f7,2021-11-01_12h14.04.839,forced_choiceRT_color,2021.2.3,Win32,60.28090904,,,,,,,,2,Ontime,long,j,1,2.0786,9,3,39,2,1,,,,,
,,,,,,,,,,,,610814d52974ad90f90174f7,2021-11-01_12h14.04.839,forced_choiceRT_color,2021.2.3,Win32,60.28090904,,,,,,,,,,,,,,,,,,,1,0,1,0,1
,0.31,,,,,,,,,j,red,610814d52974ad90f90174f7,2021-11-01_12h14.04.839,forced_choiceRT_color,2021.2.3,Win32,60.28090904,,,,,,,,3,Slow,long,j,1,3.9518,0,0,0,2,1,,,,,
,0.32,,,,,,,,,f,blue,610814d52974ad90f90174f7,2021-11-01_12h14.04.839,forced_choiceRT_color,2021.2.3,Win32,60.28090904,,,,,,,,3,Ontime,long,f,1,1.9373,0,1,1,1,1,,,,,
,1.37,,,,,,,,,k,purple,610814d52974ad90f90174f7,2021-11-01_12h14.04.839,forced_choiceRT_color,2021.2.3,Win32,60.28090904,,,,,,,,3,Ontime,long,k,1,1.9406,0,2,2,3,1,,,,,
,1.08,,,,,,,,,j,red,610814d52974ad90f90174f7,2021-11-01_12h14.04.839,forced_choiceRT_color,2021.2.3,Win32,60.28090904,,,,,,,,3,Ontime,long,d,0,1.9626,0,3,3,2,1,,,,,
,0.38,,,,,,,,,f,blue,610814d52974ad90f90174f7,2021-11-01_12h14.04.839,forced_choiceRT_color,2021.2.3,Win32,60.28090904,,,,,,,,3,Ontime,long,f,1,1.928,1,0,4,1,1,,,,,
,0.84,,,,,,,,,d,orange,610814d52974ad90f90174f7,2021-11-01_12h14.04.839,forced_choiceRT_color,2021.2.3,Win32,60.28090904,,,,,,,,3,Ontime,long,d,1,2.02,1,1,5,0,1,,,,,
,1.8,,,,,,,,,d,orange,610814d52974ad90f90174f7,2021-11-01_12h14.04.839,forced_choiceRT_color,2021.2.3,Win32,60.28090904,,,,,,,,3,Slow,long,d,1,2.3127,1,2,6,0,1,,,,,
,1.7,,,,,,,,,k,purple,610814d52974ad90f90174f7,2021-11-01_12h14.04.839,forced_choiceRT_color,2021.2.3,Win32,60.28090904,,,,,,,,3,Ontime,long,k,1,2.0826,1,3,7,3,1,,,,,
,0.4,,,,,,,,,j,red,610814d52974ad90f90174f7,2021-11-01_12h14.04.839,forced_choiceRT_color,2021.2.3,Win32,60.28090904,,,,,,,,3,Ontime,long,j,1,1.9102,2,0,8,2,1,,,,,
,1.65,,,,,,,,,f,blue,610814d52974ad90f90174f7,2021-11-01_12h14.04.839,forced_choiceRT_color,2021.2.3,Win32,60.28090904,,,,,,,,3,Slow,long,f,1,2.1534,2,1,9,1,1,,,,,
,0.13,,,,,,,,,j,red,610814d52974ad90f90174f7,2021-11-01_12h14.04.839,forced_choiceRT_color,2021.2.3,Win32,60.28090904,,,,,,,,3,Ontime,long,j,1,1.9672,2,2,10,2,1,,,,,
,0.01,,,,,,,,,f,blue,610814d52974ad90f90174f7,2021-11-01_12h14.04.839,forced_choiceRT_color,2021.2.3,Win32,60.28090904,,,,,,,,3,Ontime,long,f,1,2.0053,2,3,11,1,1,,,,,
,1.01,,,,,,,,,d,orange,610814d52974ad90f90174f7,2021-11-01_12h14.04.839,forced_choiceRT_color,2021.2.3,Win32,60.28090904,,,,,,,,3,Ontime,long,d,1,2.0695,3,0,12,0,1,,,,,
,0.67,,,,,,,,,k,purple,610814d52974ad90f90174f7,2021-11-01_12h14.04.839,forced_choiceRT_color,2021.2.3,Win32,60.28090904,,,,,,,,3,Ontime,long,k,1,1.9947,3,1,13,3,1,,,,,
,1.3,,,,,,,,,f,blue,610814d52974ad90f90174f7,2021-11-01_12h14.04.839,forced_choiceRT_color,2021.2.3,Win32,60.28090904,,,,,,,,3,Ontime,long,f,1,1.9709,3,2,14,1,1,,,,,
,0.39,,,,,,,,,d,orange,610814d52974ad90f90174f7,2021-11-01_12h14.04.839,forced_choiceRT_color,2021.2.3,Win32,60.28090904,,,,,,,,3,Ontime,long,d,1,1.9961,3,3,15,0,1,,,,,
,0.1,,,,,,,,,k,purple,610814d52974ad90f90174f7,2021-11-01_12h14.04.839,forced_choiceRT_color,2021.2.3,Win32,60.28090904,,,,,,,,3,Ontime,long,k,1,2.0234,4,0,16,3,1,,,,,
,1.25,,,,,,,,,k,purple,610814d52974ad90f90174f7,2021-11-01_12h14.04.839,forced_choiceRT_color,2021.2.3,Win32,60.28090904,,,,,,,,3,Slow,long,k,1,2.1246,4,1,17,3,1,,,,,
,0.1,,,,,,,,,j,red,610814d52974ad90f90174f7,2021-11-01_12h14.04.839,forced_choiceRT_color,2021.2.3,Win32,60.28090904,,,,,,,,3,Ontime,long,j,1,1.9947,4,2,18,2,1,,,,,
,1.89,,,,,,,,,k,purple,610814d52974ad90f90174f7,2021-11-01_12h14.04.839,forced_choiceRT_color,2021.2.3,Win32,60.28090904,,,,,,,,3,Slow,long,k,1,2.4427,4,3,19,3,1,,,,,
,1.41,,,,,,,,,d,orange,610814d52974ad90f90174f7,2021-11-01_12h14.04.839,forced_choiceRT_color,2021.2.3,Win32,60.28090904,,,,,,,,3,Slow,long,d,1,2.115,5,0,20,0,1,,,,,
,0.69,,,,,,,,,k,purple,610814d52974ad90f90174f7,2021-11-01_12h14.04.839,forced_choiceRT_color,2021.2.3,Win32,60.28090904,,,,,,,,3,Ontime,long,k,1,2.0203,5,1,21,3,1,,,,,
,0.06,,,,,,,,,k,purple,610814d52974ad90f90174f7,2021-11-01_12h14.04.839,forced_choiceRT_color,2021.2.3,Win32,60.28090904,,,,,,,,3,Slow,long,k,1,2.1558,5,2,22,3,1,,,,,
,0.47,,,,,,,,,f,blue,610814d52974ad90f90174f7,2021-11-01_12h14.04.839,forced_choiceRT_color,2021.2.3,Win32,60.28090904,,,,,,,,3,Ontime,long,f,1,2.0423,5,3,23,1,1,,,,,
,0.49,,,,,,,,,d,orange,610814d52974ad90f90174f7,2021-11-01_12h14.04.839,forced_choiceRT_color,2021.2.3,Win32,60.28090904,,,,,,,,3,Ontime,long,d,1,1.9779,6,0,24,0,1,,,,,
,0.92,,,,,,,,,j,red,610814d52974ad90f90174f7,2021-11-01_12h14.04.839,forced_choiceRT_color,2021.2.3,Win32,60.28090904,,,,,,,,3,Slow,long,j,1,2.1817,6,1,25,2,1,,,,,
,0.43,,,,,,,,,d,orange,610814d52974ad90f90174f7,2021-11-01_12h14.04.839,forced_choiceRT_color,2021.2.3,Win32,60.28090904,,,,,,,,3,Ontime,long,d,1,1.9504,6,2,26,0,1,,,,,
,1.86,,,,,,,,,k,purple,610814d52974ad90f90174f7,2021-11-01_12h14.04.839,forced_choiceRT_color,2021.2.3,Win32,60.28090904,,,,,,,,3,Slow,long,k,1,2.2899,6,3,27,3,1,,,,,
,1.61,,,,,,,,,j,red,610814d52974ad90f90174f7,2021-11-01_12h14.04.839,forced_choiceRT_color,2021.2.3,Win32,60.28090904,,,,,,,,3,Slow,long,j,1,3.6944,7,0,28,2,1,,,,,
,1.56,,,,,,,,,f,blue,610814d52974ad90f90174f7,2021-11-01_12h14.04.839,forced_choiceRT_color,2021.2.3,Win32,60.28090904,,,,,,,,3,Ontime,long,d,0,2.042,7,1,29,1,1,,,,,
,1.1,,,,,,,,,f,blue,610814d52974ad90f90174f7,2021-11-01_12h14.04.839,forced_choiceRT_color,2021.2.3,Win32,60.28090904,,,,,,,,3,Fast,long,f,1,1.8896,7,2,30,1,1,,,,,
,1.19,,,,,,,,,f,blue,610814d52974ad90f90174f7,2021-11-01_12h14.04.839,forced_choiceRT_color,2021.2.3,Win32,60.28090904,,,,,,,,3,Ontime,long,f,1,1.9908,7,3,31,1,1,,,,,
,0.12,,,,,,,,,d,orange,610814d52974ad90f90174f7,2021-11-01_12h14.04.839,forced_choiceRT_color,2021.2.3,Win32,60.28090904,,,,,,,,3,Ontime,long,d,1,2.0278,8,0,32,0,1,,,,,
,1.82,,,,,,,,,k,purple,610814d52974ad90f90174f7,2021-11-01_12h14.04.839,forced_choiceRT_color,2021.2.3,Win32,60.28090904,,,,,,,,3,Slow,long,k,1,2.2892,8,1,33,3,1,,,,,
,0.27,,,,,,,,,j,red,610814d52974ad90f90174f7,2021-11-01_12h14.04.839,forced_choiceRT_color,2021.2.3,Win32,60.28090904,,,,,,,,3,Fast,long,j,1,1.8581,8,2,34,2,1,,,,,
,0.31,,,,,,,,,d,orange,610814d52974ad90f90174f7,2021-11-01_12h14.04.839,forced_choiceRT_color,2021.2.3,Win32,60.28090904,,,,,,,,3,Fast,long,d,1,1.8278,8,3,35,0,1,,,,,
,1.77,,,,,,,,,f,blue,610814d52974ad90f90174f7,2021-11-01_12h14.04.839,forced_choiceRT_color,2021.2.3,Win32,60.28090904,,,,,,,,3,Slow,long,f,1,2.6685,9,0,36,1,1,,,,,
,0.25,,,,,,,,,j,red,610814d52974ad90f90174f7,2021-11-01_12h14.04.839,forced_choiceRT_color,2021.2.3,Win32,60.28090904,,,,,,,,3,Fast,long,j,1,1.8697,9,1,37,2,1,,,,,
,1.83,,,,,,,,,j,red,610814d52974ad90f90174f7,2021-11-01_12h14.04.839,forced_choiceRT_color,2021.2.3,Win32,60.28090904,,,,,,,,3,Slow,long,j,1,2.3961,9,2,38,2,1,,,,,
,0.89,,,,,,,,,d,orange,610814d52974ad90f90174f7,2021-11-01_12h14.04.839,forced_choiceRT_color,2021.2.3,Win32,60.28090904,,,,,,,,3,Ontime,long,d,1,1.9549,9,3,39,0,1,,,,,
,,,,,,,,,,,,610814d52974ad90f90174f7,2021-11-01_12h14.04.839,forced_choiceRT_color,2021.2.3,Win32,60.28090904,,,,,,,,,,,,,,,,,,,2,0,2,0,1
,1.74,,,,,,,,,k,purple,610814d52974ad90f90174f7,2021-11-01_12h14.04.839,forced_choiceRT_color,2021.2.3,Win32,60.28090904,,,,,,,,4,Slow,long,k,1,2.2814,0,0,0,3,1,,,,,
,1.7,,,,,,,,,f,blue,610814d52974ad90f90174f7,2021-11-01_12h14.04.839,forced_choiceRT_color,2021.2.3,Win32,60.28090904,,,,,,,,4,Slow,long,f,1,3.8427,0,1,1,1,1,,,,,
,1.02,,,,,,,,,d,orange,610814d52974ad90f90174f7,2021-11-01_12h14.04.839,forced_choiceRT_color,2021.2.3,Win32,60.28090904,,,,,,,,4,Fast,long,d,1,1.6955,0,2,2,0,1,,,,,
,1.23,,,,,,,,,j,red,610814d52974ad90f90174f7,2021-11-01_12h14.04.839,forced_choiceRT_color,2021.2.3,Win32,60.28090904,,,,,,,,4,Ontime,long,j,1,1.9316,0,3,3,2,1,,,,,
,1.14,,,,,,,,,f,blue,610814d52974ad90f90174f7,2021-11-01_12h14.04.839,forced_choiceRT_color,2021.2.3,Win32,60.28090904,,,,,,,,4,Ontime,long,f,1,2.0341,1,0,4,1,1,,,,,
,0.39,,,,,,,,,j,red,610814d52974ad90f90174f7,2021-11-01_12h14.04.839,forced_choiceRT_color,2021.2.3,Win32,60.28090904,,,,,,,,4,Ontime,long,j,1,1.9548,1,1,5,2,1,,,,,
,0.78,,,,,,,,,d,orange,610814d52974ad90f90174f7,2021-11-01_12h14.04.839,forced_choiceRT_color,2021.2.3,Win32,60.28090904,,,,,,,,4,Ontime,long,d,1,1.9082,1,2,6,0,1,,,,,
,0.3,,,,,,,,,d,orange,610814d52974ad90f90174f7,2021-11-01_12h14.04.839,forced_choiceRT_color,2021.2.3,Win32,60.28090904,,,,,,,,4,Fast,long,d,1,1.8035,1,3,7,0,1,,,,,
,1.88,,,,,,,,,k,purple,610814d52974ad90f90174f7,2021-11-01_12h14.04.839,forced_choiceRT_color,2021.2.3,Win32,60.28090904,,,,,,,,4,Slow,long,k,1,2.2902,2,0,8,3,1,,,,,
,1.87,,,,,,,,,k,purple,610814d52974ad90f90174f7,2021-11-01_12h14.04.839,forced_choiceRT_color,2021.2.3,Win32,60.28090904,,,,,,,,4,Slow,long,k,1,2.359,2,1,9,3,1,,,,,
,1.34,,,,,,,,,j,red,610814d52974ad90f90174f7,2021-11-01_12h14.04.839,forced_choiceRT_color,2021.2.3,Win32,60.28090904,,,,,,,,4,Slow,long,j,1,2.7274,2,2,10,2,1,,,,,
,0.2,,,,,,,,,f,blue,610814d52974ad90f90174f7,2021-11-01_12h14.04.839,forced_choiceRT_color,2021.2.3,Win32,60.28090904,,,,,,,,4,Fast,long,f,1,1.7075,2,3,11,1,1,,,,,
,1.3,,,,,,,,,f,blue,610814d52974ad90f90174f7,2021-11-01_12h14.04.839,forced_choiceRT_color,2021.2.3,Win32,60.28090904,,,,,,,,4,Fast,long,f,1,1.8774,3,0,12,1,1,,,,,
,1.95,,,,,,,,,j,red,610814d52974ad90f90174f7,2021-11-01_12h14.04.839,forced_choiceRT_color,2021.2.3,Win32,60.28090904,,,,,,,,4,Slow,long,j,1,2.5555,3,1,13,2,1,,,,,
,0.11,,,,,,,,,f,blue,610814d52974ad90f90174f7,2021-11-01_12h14.04.839,forced_choiceRT_color,2021.2.3,Win32,60.28090904,,,,,,,,4,Ontime,long,f,1,1.9171,3,2,14,1,1,,,,,
,0.25,,,,,,,,,k,purple,610814d52974ad90f90174f7,2021-11-01_12h14.04.839,forced_choiceRT_color,2021.2.3,Win32,60.28090904,,,,,,,,4,Ontime,long,k,1,1.9709,3,3,15,3,1,,,,,
,0.77,,,,,,,,,d,orange,610814d52974ad90f90174f7,2021-11-01_12h14.04.839,forced_choiceRT_color,2021.2.3,Win32,60.28090904,,,,,,,,4,Fast,long,d,1,1.7798,4,0,16,0,1,,,,,
,1.27,,,,,,,,,j,red,610814d52974ad90f90174f7,2021-11-01_12h14.04.839,forced_choiceRT_color,2021.2.3,Win32,60.28090904,,,,,,,,4,Ontime,long,j,1,1.9754,4,1,17,2,1,,,,,
,0.68,,,,,,,,,f,blue,610814d52974ad90f90174f7,2021-11-01_12h14.04.839,forced_choiceRT_color,2021.2.3,Win32,60.28090904,,,,,,,,4,Fast,long,f,1,1.7686,4,2,18,1,1,,,,,
,1.16,,,,,,,,,j,red,610814d52974ad90f90174f7,2021-11-01_12h14.04.839,forced_choiceRT_color,2021.2.3,Win32,60.28090904,,,,,,,,4,Ontime,long,j,1,1.9929,4,3,19,2,1,,,,,
,1.47,,,,,,,,,d,orange,610814d52974ad90f90174f7,2021-11-01_12h14.04.839,forced_choiceRT_color,2021.2.3,Win32,60.28090904,,,,,,,,4,Slow,long,d,1,2.2047,5,0,20,0,1,,,,,
,0.36,,,,,,,,,j,red,610814d52974ad90f90174f7,2021-11-01_12h14.04.839,forced_choiceRT_color,2021.2.3,Win32,60.28090904,,,,,,,,4,Fast,long,j,1,1.4692,5,1,21,2,1,,,,,
,1.19,,,,,,,,,k,purple,610814d52974ad90f90174f7,2021-11-01_12h14.04.839,forced_choiceRT_color,2021.2.3,Win32,60.28090904,,,,,,,,4,Fast,long,k,1,1.8854,5,2,22,3,1,,,,,
,1.09,,,,,,,,,f,blue,610814d52974ad90f90174f7,2021-11-01_12h14.04.839,forced_choiceRT_color,2021.2.3,Win32,60.28090904,,,,,,,,4,Fast,long,f,1,1.8857,5,3,23,1,1,,,,,
,0.67,,,,,,,,,d,orange,610814d52974ad90f90174f7,2021-11-01_12h14.04.839,forced_choiceRT_color,2021.2.3,Win32,60.28090904,,,,,,,,4,Ontime,long,j,0,2.0919,6,0,24,0,1,,,,,
,0.42,,,,,,,,,f,blue,610814d52974ad90f90174f7,2021-11-01_12h14.04.839,forced_choiceRT_color,2021.2.3,Win32,60.28090904,,,,,,,,4,Ontime,long,f,1,1.9787,6,1,25,1,1,,,,,
,0.25,,,,,,,,,j,red,610814d52974ad90f90174f7,2021-11-01_12h14.04.839,forced_choiceRT_color,2021.2.3,Win32,60.28090904,,,,,,,,4,Ontime,long,j,1,1.9177,6,2,26,2,1,,,,,
,0.16,,,,,,,,,f,blue,610814d52974ad90f90174f7,2021-11-01_12h14.04.839,forced_choiceRT_color,2021.2.3,Win32,60.28090904,,,,,,,,4,Fast,long,f,1,1.8111,6,3,27,1,1,,,,,
,1.16,,,,,,,,,k,purple,610814d52974ad90f90174f7,2021-11-01_12h14.04.839,forced_choiceRT_color,2021.2.3,Win32,60.28090904,,,,,,,,4,Ontime,long,k,1,2.0151,7,0,28,3,1,,,,,
,1.35,,,,,,,,,d,orange,610814d52974ad90f90174f7,2021-11-01_12h14.04.839,forced_choiceRT_color,2021.2.3,Win32,60.28090904,,,,,,,,4,Ontime,long,d,1,2.0933,7,1,29,0,1,,,,,
,0.37,,,,,,,,,k,purple,610814d52974ad90f90174f7,2021-11-01_12h14.04.839,forced_choiceRT_color,2021.2.3,Win32,60.28090904,,,,,,,,4,Ontime,long,k,1,1.9877,7,2,30,3,1,,,,,
,1.07,,,,,,,,,d,orange,610814d52974ad90f90174f7,2021-11-01_12h14.04.839,forced_choiceRT_color,2021.2.3,Win32,60.28090904,,,,,,,,4,Ontime,long,d,1,2.0053,7,3,31,0,1,,,,,
,0.7,,,,,,,,,k,purple,610814d52974ad90f90174f7,2021-11-01_12h14.04.839,forced_choiceRT_color,2021.2.3,Win32,60.28090904,,,,,,,,4,Ontime,long,k,1,1.9635,8,0,32,3,1,,,,,
,0.83,,,,,,,,,k,purple,610814d52974ad90f90174f7,2021-11-01_12h14.04.839,forced_choiceRT_color,2021.2.3,Win32,60.28090904,,,,,,,,4,Ontime,long,k,1,2.0169,8,1,33,3,1,,,,,
,1.19,,,,,,,,,d,orange,610814d52974ad90f90174f7,2021-11-01_12h14.04.839,forced_choiceRT_color,2021.2.3,Win32,60.28090904,,,,,,,,4,Ontime,long,d,1,2.0192,8,2,34,0,1,,,,,
,0.16,,,,,,,,,f,blue,610814d52974ad90f90174f7,2021-11-01_12h14.04.839,forced_choiceRT_color,2021.2.3,Win32,60.28090904,,,,,,,,4,Fast,long,f,1,1.703,8,3,35,1,1,,,,,
,0.03,,,,,,,,,k,purple,610814d52974ad90f90174f7,2021-11-01_12h14.04.839,forced_choiceRT_color,2021.2.3,Win32,60.28090904,,,,,,,,4,Ontime,long,k,1,1.9707,9,0,36,3,1,,,,,
,0.56,,,,,,,,,d,orange,610814d52974ad90f90174f7,2021-11-01_12h14.04.839,forced_choiceRT_color,2021.2.3,Win32,60.28090904,,,,,,,,4,Ontime,long,d,1,2.0633,9,1,37,0,1,,,,,
,1.67,,,,,,,,,j,red,610814d52974ad90f90174f7,2021-11-01_12h14.04.839,forced_choiceRT_color,2021.2.3,Win32,60.28090904,,,,,,,,4,Slow,long,j,1,2.35,9,2,38,2,1,,,,,
,1.31,,,,,,,,,j,red,610814d52974ad90f90174f7,2021-11-01_12h14.04.839,forced_choiceRT_color,2021.2.3,Win32,60.28090904,,,,,,,,4,Slow,long,f,0,2.1726,9,3,39,2,1,,,,,
,,,,,,,,,,,,610814d52974ad90f90174f7,2021-11-01_12h14.04.839,forced_choiceRT_color,2021.2.3,Win32,60.28090904,,,,,,,,,,,,,,,,,,,3,0,3,0,1
,0.15,,,,,,,,,d,orange,610814d52974ad90f90174f7,2021-11-01_12h14.04.839,forced_choiceRT_color,2021.2.3,Win32,60.28090904,,,,,,,,5,Ontime,long,d,1,1.9272,0,0,0,0,1,,,,,
,0.95,,,,,,,,,d,orange,610814d52974ad90f90174f7,2021-11-01_12h14.04.839,forced_choiceRT_color,2021.2.3,Win32,60.28090904,,,,,,,,5,Ontime,long,d,1,2.0322,0,1,1,0,1,,,,,
,0.97,,,,,,,,,f,blue,610814d52974ad90f90174f7,2021-11-01_12h14.04.839,forced_choiceRT_color,2021.2.3,Win32,60.28090904,,,,,,,,5,Ontime,long,f,1,1.988,0,2,2,1,1,,,,,
,0.5,,,,,,,,,d,orange,610814d52974ad90f90174f7,2021-11-01_12h14.04.839,forced_choiceRT_color,2021.2.3,Win32,60.28090904,,,,,,,,5,Ontime,long,d,1,2.0061,0,3,3,0,1,,,,,
,1.03,,,,,,,,,d,orange,610814d52974ad90f90174f7,2021-11-01_12h14.04.839,forced_choiceRT_color,2021.2.3,Win32,60.28090904,,,,,,,,5,Ontime,long,d,1,1.9468,1,0,4,0,1,,,,,
,1.34,,,,,,,,,k,purple,610814d52974ad90f90174f7,2021-11-01_12h14.04.839,forced_choiceRT_color,2021.2.3,Win32,60.28090904,,,,,,,,5,Ontime,long,k,1,1.9828,1,1,5,3,1,,,,,
,0.98,,,,,,,,,d,orange,610814d52974ad90f90174f7,2021-11-01_12h14.04.839,forced_choiceRT_color,2021.2.3,Win32,60.28090904,,,,,,,,5,Ontime,long,d,1,2.0459,1,2,6,0,1,,,,,
,1.88,,,,,,,,,k,purple,610814d52974ad90f90174f7,2021-11-01_12h14.04.839,forced_choiceRT_color,2021.2.3,Win32,60.28090904,,,,,,,,5,Slow,long,k,1,2.3503,1,3,7,3,1,,,,,
,1.63,,,,,,,,,j,red,610814d52974ad90f90174f7,2021-11-01_12h14.04.839,forced_choiceRT_color,2021.2.3,Win32,60.28090904,,,,,,,,5,Slow,long,j,1,2.155,2,0,8,2,1,,,,,
,1.65,,,,,,,,,j,red,610814d52974ad90f90174f7,2021-11-01_12h14.04.839,forced_choiceRT_color,2021.2.3,Win32,60.28090904,,,,,,,,5,Ontime,long,j,1,2.0372,2,1,9,2,1,,,,,
,1.69,,,,,,,,,j,red,610814d52974ad90f90174f7,2021-11-01_12h14.04.839,forced_choiceRT_color,2021.2.3,Win32,60.28090904,,,,,,,,5,Ontime,long,j,1,2.0911,2,2,10,2,1,,,,,
,1.89,,,,,,,,,k,purple,610814d52974ad90f90174f7,2021-11-01_12h14.04.839,forced_choiceRT_color,2021.2.3,Win32,60.28090904,,,,,,,,5,Slow,long,k,1,2.4244,2,3,11,3,1,,,,,
,0.17,,,,,,,,,d,orange,610814d52974ad90f90174f7,2021-11-01_12h14.04.839,forced_choiceRT_color,2021.2.3,Win32,60.28090904,,,,,,,,5,Ontime,long,d,1,1.9275,3,0,12,0,1,,,,,
,0.12,,,,,,,,,d,orange,610814d52974ad90f90174f7,2021-11-01_12h14.04.839,forced_choiceRT_color,2021.2.3,Win32,60.28090904,,,,,,,,5,Ontime,long,d,1,2.0604,3,1,13,0,1,,,,,
,1.72,,,,,,,,,f,blue,610814d52974ad90f90174f7,2021-11-01_12h14.04.839,forced_choiceRT_color,2021.2.3,Win32,60.28090904,,,,,,,,5,Slow,long,f,1,2.2446,3,2,14,1,1,,,,,
,1.98,,,,,,,,,d,orange,610814d52974ad90f90174f7,2021-11-01_12h14.04.839,forced_choiceRT_color,2021.2.3,Win32,60.28090904,,,,,,,,5,Slow,long,f,0,2.2088,3,3,15,0,1,,,,,
,1.16,,,,,,,,,d,orange,610814d52974ad90f90174f7,2021-11-01_12h14.04.839,forced_choiceRT_color,2021.2.3,Win32,60.28090904,,,,,,,,5,Ontime,long,d,1,2.0332,4,0,16,0,1,,,,,
,0.34,,,,,,,,,f,blue,610814d52974ad90f90174f7,2021-11-01_12h14.04.839,forced_choiceRT_color,2021.2.3,Win32,60.28090904,,,,,,,,5,Fast,long,f,1,1.8367,4,1,17,1,1,,,,,
,1.44,,,,,,,,,k,purple,610814d52974ad90f90174f7,2021-11-01_12h14.04.839,forced_choiceRT_color,2021.2.3,Win32,60.28090904,,,,,,,,5,Ontime,long,k,1,1.985,4,2,18,3,1,,,,,
,1.87,,,,,,,,,k,purple,610814d52974ad90f90174f7,2021-11-01_12h14.04.839,forced_choiceRT_color,2021.2.3,Win32,60.28090904,,,,,,,,5,Slow,long,j,0,2.2983,4,3,19,3,1,,,,,
,1.71,,,,,,,,,k,purple,610814d52974ad90f90174f7,2021-11-01_12h14.04.839,forced_choiceRT_color,2021.2.3,Win32,60.28090904,,,,,,,,5,Slow,long,k,1,2.1525,5,0,20,3,1,,,,,
,0.22,,,,,,,,,f,blue,610814d52974ad90f90174f7,2021-11-01_12h14.04.839,forced_choiceRT_color,2021.2.3,Win32,60.28090904,,,,,,,,5,Ontime,long,f,1,2.042,5,1,21,1,1,,,,,
,1.73,,,,,,,,,j,red,610814d52974ad90f90174f7,2021-11-01_12h14.04.839,forced_choiceRT_color,2021.2.3,Win32,60.28090904,,,,,,,,5,Slow,long,j,1,2.5686,5,2,22,2,1,,,,,
,1.29,,,,,,,,,k,purple,610814d52974ad90f90174f7,2021-11-01_12h14.04.839,forced_choiceRT_color,2021.2.3,Win32,60.28090904,,,,,,,,5,Ontime,long,k,1,2.0408,5,3,23,3,1,,,,,
,1.83,,,,,,,,,f,blue,610814d52974ad90f90174f7,2021-11-01_12h14.04.839,forced_choiceRT_color,2021.2.3,Win32,60.28090904,,,,,,,,5,Slow,long,f,1,2.4231,6,0,24,1,1,,,,,
,1.96,,,,,,,,,j,red,610814d52974ad90f90174f7,2021-11-01_12h14.04.839,forced_choiceRT_color,2021.2.3,Win32,60.28090904,,,,,,,,5,Slow,long,j,1,3.1116,6,1,25,2,1,,,,,
,1.84,,,,,,,,,k,purple,610814d52974ad90f90174f7,2021-11-01_12h14.04.839,forced_choiceRT_color,2021.2.3,Win32,60.28090904,,,,,,,,5,Slow,long,k,1,2.3507,6,2,26,3,1,,,,,
,1.11,,,,,,,,,j,red,610814d52974ad90f90174f7,2021-11-01_12h14.04.839,forced_choiceRT_color,2021.2.3,Win32,60.28090904,,,,,,,,5,Slow,long,j,1,2.2188,6,3,27,2,1,,,,,
,1.97,,,,,,,,,f,blue,610814d52974ad90f90174f7,2021-11-01_12h14.04.839,forced_choiceRT_color,2021.2.3,Win32,60.28090904,,,,,,,,5,Slow,long,f,1,2.5007,7,0,28,1,1,,,,,
,0.33,,,,,,,,,f,blue,610814d52974ad90f90174f7,2021-11-01_12h14.04.839,forced_choiceRT_color,2021.2.3,Win32,60.28090904,,,,,,,,5,Ontime,long,f,1,1.9848,7,1,29,1,1,,,,,
,1.98,,,,,,,,,k,purple,610814d52974ad90f90174f7,2021-11-01_12h14.04.839,forced_choiceRT_color,2021.2.3,Win32,60.28090904,,,,,,,,5,Slow,long,k,1,2.5183,7,2,30,3,1,,,,,
,1.17,,,,,,,,,j,red,610814d52974ad90f90174f7,2021-11-01_12h14.04.839,forced_choiceRT_color,2021.2.3,Win32,60.28090904,,,,,,,,5,Ontime,long,j,1,1.9734,7,3,31,2,1,,,,,
,0.71,,,,,,,,,j,red,610814d52974ad90f90174f7,2021-11-01_12h14.04.839,forced_choiceRT_color,2021.2.3,Win32,60.28090904,,,,,,,,5,Ontime,long,j,1,1.9722,8,0,32,2,1,,,,,
,0.65,,,,,,,,,f,blue,610814d52974ad90f90174f7,2021-11-01_12h14.04.839,forced_choiceRT_color,2021.2.3,Win32,60.28090904,,,,,,,,5,Ontime,long,f,1,2.0101,8,1,33,1,1,,,,,
,0.61,,,,,,,,,f,blue,610814d52974ad90f90174f7,2021-11-01_12h14.04.839,forced_choiceRT_color,2021.2.3,Win32,60.28090904,,,,,,,,5,Ontime,long,f,1,1.9105,8,2,34,1,1,,,,,
,1.58,,,,,,,,,j,red,610814d52974ad90f90174f7,2021-11-01_12h14.04.839,forced_choiceRT_color,2021.2.3,Win32,60.28090904,,,,,,,,5,Ontime,long,j,1,2.0895,8,3,35,2,1,,,,,
,0.44,,,,,,,,,j,red,610814d52974ad90f90174f7,2021-11-01_12h14.04.839,forced_choiceRT_color,2021.2.3,Win32,60.28090904,,,,,,,,5,Ontime,long,j,1,1.9289,9,0,36,2,1,,,,,
,1.35,,,,,,,,,d,orange,610814d52974ad90f90174f7,2021-11-01_12h14.04.839,forced_choiceRT_color,2021.2.3,Win32,60.28090904,,,,,,,,5,Ontime,long,d,1,1.9468,9,1,37,0,1,,,,,
,1.12,,,,,,,,,f,blue,610814d52974ad90f90174f7,2021-11-01_12h14.04.839,forced_choiceRT_color,2021.2.3,Win32,60.28090904,,,,,,,,5,Ontime,long,f,1,1.9797,9,2,38,1,1,,,,,
,0.21,,,,,,,,,k,purple,610814d52974ad90f90174f7,2021-11-01_12h14.04.839,forced_choiceRT_color,2021.2.3,Win32,60.28090904,,,,,,,,5,Ontime,long,k,1,1.9955,9,3,39,3,1,,,,,
,,,,,,,,,,,,610814d52974ad90f90174f7,2021-11-01_12h14.04.839,forced_choiceRT_color,2021.2.3,Win32,60.28090904,,,,,,,,,,,,,,,,,,,4,0,4,0,1
,1.48,,,,,,,,,k,purple,610814d52974ad90f90174f7,2021-11-01_12h14.04.839,forced_choiceRT_color,2021.2.3,Win32,60.28090904,,,,,,,,6,Ontime,long,k,1,1.9526,0,0,0,3,1,,,,,
,0.26,,,,,,,,,k,purple,610814d52974ad90f90174f7,2021-11-01_12h14.04.839,forced_choiceRT_color,2021.2.3,Win32,60.28090904,,,,,,,,6,Ontime,long,k,1,2.0179,0,1,1,3,1,,,,,
,1.87,,,,,,,,,k,purple,610814d52974ad90f90174f7,2021-11-01_12h14.04.839,forced_choiceRT_color,2021.2.3,Win32,60.28090904,,,,,,,,6,Slow,long,k,1,2.302,0,2,2,3,1,,,,,
,1.53,,,,,,,,,d,orange,610814d52974ad90f90174f7,2021-11-01_12h14.04.839,forced_choiceRT_color,2021.2.3,Win32,60.28090904,,,,,,,,6,Slow,long,f,0,2.1552,0,3,3,0,1,,,,,
,1.38,,,,,,,,,f,blue,610814d52974ad90f90174f7,2021-11-01_12h14.04.839,forced_choiceRT_color,2021.2.3,Win32,60.28090904,,,,,,,,6,Fast,long,f,1,1.8996,1,0,4,1,1,,,,,
,0.48,,,,,,,,,d,orange,610814d52974ad90f90174f7,2021-11-01_12h14.04.839,forced_choiceRT_color,2021.2.3,Win32,60.28090904,,,,,,,,6,Fast,long,d,1,1.7926,1,1,5,0,1,,,,,
,0.81,,,,,,,,,k,purple,610814d52974ad90f90174f7,2021-11-01_12h14.04.839,forced_choiceRT_color,2021.2.3,Win32,60.28090904,,,,,,,,6,Ontime,long,k,1,1.9669,1,2,6,3,1,,,,,
,1.17,,,,,,,,,f,blue,610814d52974ad90f90174f7,2021-11-01_12h14.04.839,forced_choiceRT_color,2021.2.3,Win32,60.28090904,,,,,,,,6,Slow,long,f,1,2.1545,1,3,7,1,1,,,,,
,1.2,,,,,,,,,j,red,610814d52974ad90f90174f7,2021-11-01_12h14.04.839,forced_choiceRT_color,2021.2.3,Win32,60.28090904,,,,,,,,6,Ontime,long,j,1,2.0457,2,0,8,2,1,,,,,
,0.73,,,,,,,,,f,blue,610814d52974ad90f90174f7,2021-11-01_12h14.04.839,forced_choiceRT_color,2021.2.3,Win32,60.28090904,,,,,,,,6,Ontime,long,f,1,2.0038,2,1,9,1,1,,,,,
,1.68,,,,,,,,,k,purple,610814d52974ad90f90174f7,2021-11-01_12h14.04.839,forced_choiceRT_color,2021.2.3,Win32,60.28090904,,,,,,,,6,Slow,long,k,1,2.1464,2,2,10,3,1,,,,,
,1.68,,,,,,,,,f,blue,610814d52974ad90f90174f7,2021-11-01_12h14.04.839,forced_choiceRT_color,2021.2.3,Win32,60.28090904,,,,,,,,6,Slow,long,f,1,2.1863,2,3,11,1,1,,,,,
,0.84,,,,,,,,,k,purple,610814d52974ad90f90174f7,2021-11-01_12h14.04.839,forced_choiceRT_color,2021.2.3,Win32,60.28090904,,,,,,,,6,Ontime,long,k,1,1.9388,3,0,12,3,1,,,,,
,1.56,,,,,,,,,j,red,610814d52974ad90f90174f7,2021-11-01_12h14.04.839,forced_choiceRT_color,2021.2.3,Win32,60.28090904,,,,,,,,6,Slow,long,j,1,2.174,3,1,13,2,1,,,,,
,1.09,,,,,,,,,j,red,610814d52974ad90f90174f7,2021-11-01_12h14.04.839,forced_choiceRT_color,2021.2.3,Win32,60.28090904,,,,,,,,6,Fast,long,j,1,1.8442,3,2,14,2,1,,,,,
,0.11,,,,,,,,,j,red,610814d52974ad90f90174f7,2021-11-01_12h14.04.839,forced_choiceRT_color,2021.2.3,Win32,60.28090904,,,,,,,,6,Ontime,long,j,1,1.9636,3,3,15,2,1,,,,,
,1.77,,,,,,,,,d,orange,610814d52974ad90f90174f7,2021-11-01_12h14.04.839,forced_choiceRT_color,2021.2.3,Win32,60.28090904,,,,,,,,6,Slow,long,d,1,2.4469,4,0,16,0,1,,,,,
,0.02,,,,,,,,,j,red,610814d52974ad90f90174f7,2021-11-01_12h14.04.839,forced_choiceRT_color,2021.2.3,Win32,60.28090904,,,,,,,,6,Ontime,long,j,1,1.9883,4,1,17,2,1,,,,,
,0.29,,,,,,,,,k,purple,610814d52974ad90f90174f7,2021-11-01_12h14.04.839,forced_choiceRT_color,2021.2.3,Win32,60.28090904,,,,,,,,6,Ontime,long,k,1,1.9285,4,2,18,3,1,,,,,
,1.6,,,,,,,,,f,blue,610814d52974ad90f90174f7,2021-11-01_12h14.04.839,forced_choiceRT_color,2021.2.3,Win32,60.28090904,,,,,,,,6,Ontime,long,f,1,2.0701,4,3,19,1,1,,,,,
,0.46,,,,,,,,,d,orange,610814d52974ad90f90174f7,2021-11-01_12h14.04.839,forced_choiceRT_color,2021.2.3,Win32,60.28090904,,,,,,,,6,Fast,long,d,1,1.8944,5,0,20,0,1,,,,,
,0.49,,,,,,,,,d,orange,610814d52974ad90f90174f7,2021-11-01_12h14.04.839,forced_choiceRT_color,2021.2.3,Win32,60.28090904,,,,,,,,6,Ontime,long,d,1,1.972,5,1,21,0,1,,,,,
,0.04,,,,,,,,,f,blue,610814d52974ad90f90174f7,2021-11-01_12h14.04.839,forced_choiceRT_color,2021.2.3,Win32,60.28090904,,,,,,,,6,Fast,long,f,1,1.862,5,2,22,1,1,,,,,
,1.28,,,,,,,,,k,purple,610814d52974ad90f90174f7,2021-11-01_12h14.04.839,forced_choiceRT_color,2021.2.3,Win32,60.28090904,,,,,,,,6,Ontime,long,k,1,1.991,5,3,23,3,1,,,,,
,0.28,,,,,,,,,d,orange,610814d52974ad90f90174f7,2021-11-01_12h14.04.839,forced_choiceRT_color,2021.2.3,Win32,60.28090904,,,,,,,,6,Ontime,long,d,1,1.9755,6,0,24,0,1,,,,,
,0.34,,,,,,,,,j,red,610814d52974ad90f90174f7,2021-11-01_12h14.04.839,forced_choiceRT_color,2021.2.3,Win32,60.28090904,,,,,,,,6,Ontime,long,j,1,1.9592,6,1,25,2,1,,,,,
,1.91,,,,,,,,,d,orange,610814d52974ad90f90174f7,2021-11-01_12h14.04.839,forced_choiceRT_color,2021.2.3,Win32,60.28090904,,,,,,,,6,Slow,long,d,1,2.4148,6,2,26,0,1,,,,,
,1.64,,,,,,,,,k,purple,610814d52974ad90f90174f7,2021-11-01_12h14.04.839,forced_choiceRT_color,2021.2.3,Win32,60.28090904,,,,,,,,6,Slow,long,k,1,2.1897,6,3,27,3,1,,,,,
,1.28,,,,,,,,,f,blue,610814d52974ad90f90174f7,2021-11-01_12h14.04.839,forced_choiceRT_color,2021.2.3,Win32,60.28090904,,,,,,,,6,Ontime,long,j,0,1.9285,7,0,28,1,1,,,,,
,1.36,,,,,,,,,d,orange,610814d52974ad90f90174f7,2021-11-01_12h14.04.839,forced_choiceRT_color,2021.2.3,Win32,60.28090904,,,,,,,,6,Slow,long,f,0,2.3004,7,1,29,0,1,,,,,
,1.24,,,,,,,,,f,blue,610814d52974ad90f90174f7,2021-11-01_12h14.04.839,forced_choiceRT_color,2021.2.3,Win32,60.28090904,,,,,,,,6,Slow,long,f,1,2.2842,7,2,30,1,1,,,,,
,1.17,,,,,,,,,f,blue,610814d52974ad90f90174f7,2021-11-01_12h14.04.839,forced_choiceRT_color,2021.2.3,Win32,60.28090904,,,,,,,,6,Fast,long,f,1,1.8582,7,3,31,1,1,,,,,
,0.93,,,,,,,,,d,orange,610814d52974ad90f90174f7,2021-11-01_12h14.04.839,forced_choiceRT_color,2021.2.3,Win32,60.28090904,,,,,,,,6,Ontime,long,d,1,2.0183,8,0,32,0,1,,,,,
,1.77,,,,,,,,,j,red,610814d52974ad90f90174f7,2021-11-01_12h14.04.839,forced_choiceRT_color,2021.2.3,Win32,60.28090904,,,,,,,,6,Slow,long,j,1,2.3191,8,1,33,2,1,,,,,
,1.78,,,,,,,,,k,purple,610814d52974ad90f90174f7,2021-11-01_12h14.04.839,forced_choiceRT_color,2021.2.3,Win32,60.28090904,,,,,,,,6,Slow,long,k,1,2.3159,8,2,34,3,1,,,,,
,1.47,,,,,,,,,j,red,610814d52974ad90f90174f7,2021-11-01_12h14.04.839,forced_choiceRT_color,2021.2.3,Win32,60.28090904,,,,,,,,6,Slow,long,f,0,3.1842,8,3,35,2,1,,,,,
,0.8,,,,,,,,,d,orange,610814d52974ad90f90174f7,2021-11-01_12h14.04.839,forced_choiceRT_color,2021.2.3,Win32,60.28090904,,,,,,,,6,Ontime,long,d,1,2.0165,9,0,36,0,1,,,,,
,0.79,,,,,,,,,j,red,610814d52974ad90f90174f7,2021-11-01_12h14.04.839,forced_choiceRT_color,2021.2.3,Win32,60.28090904,,,,,,,,6,Ontime,long,j,1,1.9018,9,1,37,2,1,,,,,
,0.73,,,,,,,,,j,red,610814d52974ad90f90174f7,2021-11-01_12h14.04.839,forced_choiceRT_color,2021.2.3,Win32,60.28090904,,,,,,,,6,Ontime,long,j,1,1.9708,9,2,38,2,1,,,,,
,1.82,,,,,,,,,f,blue,610814d52974ad90f90174f7,2021-11-01_12h14.04.839,forced_choiceRT_color,2021.2.3,Win32,60.28090904,,,,,,,,6,Slow,long,f,1,2.3536,9,3,39,1,1,,,,,
,,,,,,,,,,,,610814d52974ad90f90174f7,2021-11-01_12h14.04.839,forced_choiceRT_color,2021.2.3,Win32,60.28090904,,,,,,,,,,,,,,,,,,,5,0,5,0,1
,0.52,,,,,,,,,k,purple,610814d52974ad90f90174f7,2021-11-01_12h14.04.839,forced_choiceRT_color,2021.2.3,Win32,60.28090904,,,,,,,,7,Ontime,long,k,1,1.9659,0,0,0,3,1,,,,,
,0.83,,,,,,,,,d,orange,610814d52974ad90f90174f7,2021-11-01_12h14.04.839,forced_choiceRT_color,2021.2.3,Win32,60.28090904,,,,,,,,7,Ontime,long,d,1,1.9823,0,1,1,0,1,,,,,
,1.75,,,,,,,,,j,red,610814d52974ad90f90174f7,2021-11-01_12h14.04.839,forced_choiceRT_color,2021.2.3,Win32,60.28090904,,,,,,,,7,Slow,long,j,1,2.277,0,2,2,2,1,,,,,
,0.71,,,,,,,,,d,orange,610814d52974ad90f90174f7,2021-11-01_12h14.04.839,forced_choiceRT_color,2021.2.3,Win32,60.28090904,,,,,,,,7,Fast,long,d,1,1.6707,0,3,3,0,1,,,,,
,1.76,,,,,,,,,f,blue,610814d52974ad90f90174f7,2021-11-01_12h14.04.839,forced_choiceRT_color,2021.2.3,Win32,60.28090904,,,,,,,,7,Slow,long,f,1,2.7031,1,0,4,1,1,,,,,
,1.2,,,,,,,,,k,purple,610814d52974ad90f90174f7,2021-11-01_12h14.04.839,forced_choiceRT_color,2021.2.3,Win32,60.28090904,,,,,,,,7,Fast,long,k,1,1.6952,1,1,5,3,1,,,,,
,1.01,,,,,,,,,j,red,610814d52974ad90f90174f7,2021-11-01_12h14.04.839,forced_choiceRT_color,2021.2.3,Win32,60.28090904,,,,,,,,7,Ontime,long,j,1,2.0467,1,2,6,2,1,,,,,
,0.26,,,,,,,,,j,red,610814d52974ad90f90174f7,2021-11-01_12h14.04.839,forced_choiceRT_color,2021.2.3,Win32,60.28090904,,,,,,,,7,Ontime,long,j,1,1.9733,1,3,7,2,1,,,,,
,1.06,,,,,,,,,d,orange,610814d52974ad90f90174f7,2021-11-01_12h14.04.839,forced_choiceRT_color,2021.2.3,Win32,60.28090904,,,,,,,,7,Ontime,long,d,1,1.9379,2,0,8,0,1,,,,,
,1.5,,,,,,,,,d,orange,610814d52974ad90f90174f7,2021-11-01_12h14.04.839,forced_choiceRT_color,2021.2.3,Win32,60.28090904,,,,,,,,7,Slow,long,d,1,2.2043,2,1,9,0,1,,,,,
,1.19,,,,,,,,,d,orange,610814d52974ad90f90174f7,2021-11-01_12h14.04.839,forced_choiceRT_color,2021.2.3,Win32,60.28090904,,,,,,,,7,Fast,long,d,1,1.7795,2,2,10,0,1,,,,,
,0.37,,,,,,,,,d,orange,610814d52974ad90f90174f7,2021-11-01_12h14.04.839,forced_choiceRT_color,2021.2.3,Win32,60.28090904,,,,,,,,7,Ontime,long,d,1,2.0378,2,3,11,0,1,,,,,
,0.78,,,,,,,,,j,red,610814d52974ad90f90174f7,2021-11-01_12h14.04.839,forced_choiceRT_color,2021.2.3,Win32,60.28090904,,,,,,,,7,Ontime,long,j,1,1.9894,3,0,12,2,1,,,,,
,0.18,,,,,,,,,j,red,610814d52974ad90f90174f7,2021-11-01_12h14.04.839,forced_choiceRT_color,2021.2.3,Win32,60.28090904,,,,,,,,7,Ontime,long,j,1,2.0442,3,1,13,2,1,,,,,
,0,,,,,,,,,j,red,610814d52974ad90f90174f7,2021-11-01_12h14.04.839,forced_choiceRT_color,2021.2.3,Win32,60.28090904,,,,,,,,7,Slow,long,j,1,2.242,3,2,14,2,1,,,,,
,1.65,,,,,,,,,f,blue,610814d52974ad90f90174f7,2021-11-01_12h14.04.839,forced_choiceRT_color,2021.2.3,Win32,60.28090904,,,,,,,,7,Slow,long,f,1,2.2801,3,3,15,1,1,,,,,
,1.43,,,,,,,,,f,blue,610814d52974ad90f90174f7,2021-11-01_12h14.04.839,forced_choiceRT_color,2021.2.3,Win32,60.28090904,,,,,,,,7,Ontime,long,f,1,2.0383,4,0,16,1,1,,,,,
,0.16,,,,,,,,,j,red,610814d52974ad90f90174f7,2021-11-01_12h14.04.839,forced_choiceRT_color,2021.2.3,Win32,60.28090904,,,,,,,,7,Ontime,long,j,1,2.0377,4,1,17,2,1,,,,,
,1.09,,,,,,,,,j,red,610814d52974ad90f90174f7,2021-11-01_12h14.04.839,forced_choiceRT_color,2021.2.3,Win32,60.28090904,,,,,,,,7,Fast,long,j,1,1.8645,4,2,18,2,1,,,,,
,1.07,,,,,,,,,j,red,610814d52974ad90f90174f7,2021-11-01_12h14.04.839,forced_choiceRT_color,2021.2.3,Win32,60.28090904,,,,,,,,7,Fast,long,j,1,1.8377,4,3,19,2,1,,,,,
,0.13,,,,,,,,,k,purple,610814d52974ad90f90174f7,2021-11-01_12h14.04.839,forced_choiceRT_color,2021.2.3,Win32,60.28090904,,,,,,,,7,Ontime,long,k,1,1.9787,5,0,20,3,1,,,,,
,0.5,,,,,,,,,k,purple,610814d52974ad90f90174f7,2021-11-01_12h14.04.839,forced_choiceRT_color,2021.2.3,Win32,60.28090904,,,,,,,,7,Ontime,long,k,1,2.0068,5,1,21,3,1,,,,,
,0.74,,,,,,,,,f,blue,610814d52974ad90f90174f7,2021-11-01_12h14.04.839,forced_choiceRT_color,2021.2.3,Win32,60.28090904,,,,,,,,7,Slow,long,f,1,2.1704,5,2,22,1,1,,,,,
,1.03,,,,,,,,,f,blue,610814d52974ad90f90174f7,2021-11-01_12h14.04.839,forced_choiceRT_color,2021.2.3,Win32,60.28090904,,,,,,,,7,Fast,long,f,1,1.8116,5,3,23,1,1,,,,,
,0.58,,,,,,,,,f,blue,610814d52974ad90f90174f7,2021-11-01_12h14.04.839,forced_choiceRT_color,2021.2.3,Win32,60.28090904,,,,,,,,7,Ontime,long,f,1,1.954,6,0,24,1,1,,,,,
,1.38,,,,,,,,,k,purple,610814d52974ad90f90174f7,2021-11-01_12h14.04.839,forced_choiceRT_color,2021.2.3,Win32,60.28090904,,,,,,,,7,Slow,long,k,1,2.7939,6,1,25,3,1,,,,,
,1.34,,,,,,,,,d,orange,610814d52974ad90f90174f7,2021-11-01_12h14.04.839,forced_choiceRT_color,2021.2.3,Win32,60.28090904,,,,,,,,7,Ontime,long,d,1,2.0693,6,2,26,0,1,,,,,
,0.81,,,,,,,,,k,purple,610814d52974ad90f90174f7,2021-11-01_12h14.04.839,forced_choiceRT_color,2021.2.3,Win32,60.28090904,,,,,,,,7,Ontime,long,k,1,2.0356,6,3,27,3,1,,,,,
,0.1,,,,,,,,,d,orange,610814d52974ad90f90174f7,2021-11-01_12h14.04.839,forced_choiceRT_color,2021.2.3,Win32,60.28090904,,,,,,,,7,Ontime,long,d,1,2.0513,7,0,28,0,1,,,,,
,1.81,,,,,,,,,k,purple,610814d52974ad90f90174f7,2021-11-01_12h14.04.839,forced_choiceRT_color,2021.2.3,Win32,60.28090904,,,,,,,,7,Slow,long,k,1,2.2895,7,1,29,3,1,,,,,
,1.84,,,,,,,,,d,orange,610814d52974ad90f90174f7,2021-11-01_12h14.04.839,forced_choiceRT_color,2021.2.3,Win32,60.28090904,,,,,,,,7,Slow,long,d,1,2.3604,7,2,30,0,1,,,,,
,0.51,,,,,,,,,d,orange,610814d52974ad90f90174f7,2021-11-01_12h14.04.839,forced_choiceRT_color,2021.2.3,Win32,60.28090904,,,,,,,,7,Fast,long,d,1,1.2033,7,3,31,0,1,,,,,
,1.11,,,,,,,,,f,blue,610814d52974ad90f90174f7,2021-11-01_12h14.04.839,forced_choiceRT_color,2021.2.3,Win32,60.28090904,,,,,,,,7,Fast,long,f,1,1.7204,8,0,32,1,1,,,,,
,1.93,,,,,,,,,f,blue,610814d52974ad90f90174f7,2021-11-01_12h14.04.839,forced_choiceRT_color,2021.2.3,Win32,60.28090904,,,,,,,,7,Slow,long,f,1,2.3733,8,1,33,1,1,,,,,
,0.8,,,,,,,,,j,red,610814d52974ad90f90174f7,2021-11-01_12h14.04.839,forced_choiceRT_color,2021.2.3,Win32,60.28090904,,,,,,,,7,Ontime,long,j,1,2.0105,8,2,34,2,1,,,,,
,1.57,,,,,,,,,k,purple,610814d52974ad90f90174f7,2021-11-01_12h14.04.839,forced_choiceRT_color,2021.2.3,Win32,60.28090904,,,,,,,,7,Ontime,long,k,1,2.0231,8,3,35,3,1,,,,,
,1.72,,,,,,,,,k,purple,610814d52974ad90f90174f7,2021-11-01_12h14.04.839,forced_choiceRT_color,2021.2.3,Win32,60.28090904,,,,,,,,7,Slow,long,k,1,2.2741,9,0,36,3,1,,,,,
,0.45,,,,,,,,,k,purple,610814d52974ad90f90174f7,2021-11-01_12h14.04.839,forced_choiceRT_color,2021.2.3,Win32,60.28090904,,,,,,,,7,Ontime,long,k,1,1.9942,9,1,37,3,1,,,,,
,1.66,,,,,,,,,f,blue,610814d52974ad90f90174f7,2021-11-01_12h14.04.839,forced_choiceRT_color,2021.2.3,Win32,60.28090904,,,,,,,,7,Slow,long,f,1,2.6591,9,2,38,1,1,,,,,
,0.22,,,,,,,,,f,blue,610814d52974ad90f90174f7,2021-11-01_12h14.04.839,forced_choiceRT_color,2021.2.3,Win32,60.28090904,,,,,,,,7,Ontime,long,f,1,2.0255,9,3,39,1,1,,,,,
,,,,,,,,,,,,610814d52974ad90f90174f7,2021-11-01_12h14.04.839,forced_choiceRT_color,2021.2.3,Win32,60.28090904,,,,,,,,,,,,,,,,,,,6,0,6,0,1
,0.07,,,,,,,,,j,red,610814d52974ad90f90174f7,2021-11-01_12h14.04.839,forced_choiceRT_color,2021.2.3,Win32,60.28090904,,,,,,,,8,Ontime,long,j,1,2.0085,0,0,0,2,1,,,,,
,0.16,,,,,,,,,k,purple,610814d52974ad90f90174f7,2021-11-01_12h14.04.839,forced_choiceRT_color,2021.2.3,Win32,60.28090904,,,,,,,,8,Ontime,long,k,1,1.9959,0,1,1,3,1,,,,,
,0.36,,,,,,,,,d,orange,610814d52974ad90f90174f7,2021-11-01_12h14.04.839,forced_choiceRT_color,2021.2.3,Win32,60.28090904,,,,,,,,8,Ontime,long,d,1,2.0116,0,2,2,0,1,,,,,
,1.34,,,,,,,,,f,blue,610814d52974ad90f90174f7,2021-11-01_12h14.04.839,forced_choiceRT_color,2021.2.3,Win32,60.28090904,,,,,,,,8,Ontime,long,f,1,2.0251,0,3,3,1,1,,,,,
,1.86,,,,,,,,,f,blue,610814d52974ad90f90174f7,2021-11-01_12h14.04.839,forced_choiceRT_color,2021.2.3,Win32,60.28090904,,,,,,,,8,Slow,long,f,1,2.4386,1,0,4,1,1,,,,,
,1.93,,,,,,,,,d,orange,610814d52974ad90f90174f7,2021-11-01_12h14.04.839,forced_choiceRT_color,2021.2.3,Win32,60.28090904,,,,,,,,8,Slow,long,d,1,2.4959,1,1,5,0,1,,,,,
,0.26,,,,,,,,,j,red,610814d52974ad90f90174f7,2021-11-01_12h14.04.839,forced_choiceRT_color,2021.2.3,Win32,60.28090904,,,,,,,,8,Ontime,long,j,1,2.0242,1,2,6,2,1,,,,,
,0.92,,,,,,,,,d,orange,610814d52974ad90f90174f7,2021-11-01_12h14.04.839,forced_choiceRT_color,2021.2.3,Win32,60.28090904,,,,,,,,8,Ontime,long,d,1,1.9059,1,3,7,0,1,,,,,
,0.65,,,,,,,,,k,purple,610814d52974ad90f90174f7,2021-11-01_12h14.04.839,forced_choiceRT_color,2021.2.3,Win32,60.28090904,,,,,,,,8,Ontime,long,k,1,2.0658,2,0,8,3,1,,,,,
,0.64,,,,,,,,,k,purple,610814d52974ad90f90174f7,2021-11-01_12h14.04.839,forced_choiceRT_color,2021.2.3,Win32,60.28090904,,,,,,,,8,Slow,long,k,1,2.1262,2,1,9,3,1,,,,,
,1.99,,,,,,,,,k,purple,610814d52974ad90f90174f7,2021-11-01_12h14.04.839,forced_choiceRT_color,2021.2.3,Win32,60.28090904,,,,,,,,8,Slow,long,k,1,2.5137,2,2,10,3,1,,,,,
,0.26,,,,,,,,,j,red,610814d52974ad90f90174f7,2021-11-01_12h14.04.839,forced_choiceRT_color,2021.2.3,Win32,60.28090904,,,,,,,,8,Ontime,long,j,1,1.9582,2,3,11,2,1,,,,,
,1.76,,,,,,,,,f,blue,610814d52974ad90f90174f7,2021-11-01_12h14.04.839,forced_choiceRT_color,2021.2.3,Win32,60.28090904,,,,,,,,8,Slow,long,f,1,2.3597,3,0,12,1,1,,,,,
,1.62,,,,,,,,,k,purple,610814d52974ad90f90174f7,2021-11-01_12h14.04.839,forced_choiceRT_color,2021.2.3,Win32,60.28090904,,,,,,,,8,Slow,long,k,1,2.1312,3,1,13,3,1,,,,,
,1.84,,,,,,,,,j,red,610814d52974ad90f90174f7,2021-11-01_12h14.04.839,forced_choiceRT_color,2021.2.3,Win32,60.28090904,,,,,,,,8,Slow,long,f,0,2.3936,3,2,14,2,1,,,,,
,1.97,,,,,,,,,d,orange,610814d52974ad90f90174f7,2021-11-01_12h14.04.839,forced_choiceRT_color,2021.2.3,Win32,60.28090904,,,,,,,,8,Slow,long,d,1,2.6003,3,3,15,0,1,,,,,
,1.37,,,,,,,,,j,red,610814d52974ad90f90174f7,2021-11-01_12h14.04.839,forced_choiceRT_color,2021.2.3,Win32,60.28090904,,,,,,,,8,Ontime,long,f,0,1.9876,4,0,16,2,1,,,,,
,0.65,,,,,,,,,j,red,610814d52974ad90f90174f7,2021-11-01_12h14.04.839,forced_choiceRT_color,2021.2.3,Win32,60.28090904,,,,,,,,8,Ontime,long,j,1,2.0777,4,1,17,2,1,,,,,
,1.06,,,,,,,,,d,orange,610814d52974ad90f90174f7,2021-11-01_12h14.04.839,forced_choiceRT_color,2021.2.3,Win32,60.28090904,,,,,,,,8,Ontime,long,d,1,2.0365,4,2,18,0,1,,,,,
,1.52,,,,,,,,,j,red,610814d52974ad90f90174f7,2021-11-01_12h14.04.839,forced_choiceRT_color,2021.2.3,Win32,60.28090904,,,,,,,,8,Ontime,long,k,0,2.0718,4,3,19,2,1,,,,,
,0.57,,,,,,,,,k,purple,610814d52974ad90f90174f7,2021-11-01_12h14.04.839,forced_choiceRT_color,2021.2.3,Win32,60.28090904,,,,,,,,8,Ontime,long,k,1,2.0007,5,0,20,3,1,,,,,
,1.06,,,,,,,,,j,red,610814d52974ad90f90174f7,2021-11-01_12h14.04.839,forced_choiceRT_color,2021.2.3,Win32,60.28090904,,,,,,,,8,Ontime,long,j,1,1.9292,5,1,21,2,1,,,,,
,0.31,,,,,,,,,f,blue,610814d52974ad90f90174f7,2021-11-01_12h14.04.839,forced_choiceRT_color,2021.2.3,Win32,60.28090904,,,,,,,,8,Ontime,long,f,1,1.9685,5,2,22,1,1,,,,,
,1.02,,,,,,,,,j,red,610814d52974ad90f90174f7,2021-11-01_12h14.04.839,forced_choiceRT_color,2021.2.3,Win32,60.28090904,,,,,,,,8,Ontime,long,j,1,2.0857,5,3,23,2,1,,,,,
,1.71,,,,,,,,,f,blue,610814d52974ad90f90174f7,2021-11-01_12h14.04.839,forced_choiceRT_color,2021.2.3,Win32,60.28090904,,,,,,,,8,Slow,long,f,1,2.6727,6,0,24,1,1,,,,,
,1.21,,,,,,,,,f,blue,610814d52974ad90f90174f7,2021-11-01_12h14.04.839,forced_choiceRT_color,2021.2.3,Win32,60.28090904,,,,,,,,8,Ontime,long,f,1,1.933,6,1,25,1,1,,,,,
,1.89,,,,,,,,,d,orange,610814d52974ad90f90174f7,2021-11-01_12h14.04.839,forced_choiceRT_color,2021.2.3,Win32,60.28090904,,,,,,,,8,Slow,long,d,1,2.453,6,2,26,0,1,,,,,
,1.61,,,,,,,,,f,blue,610814d52974ad90f90174f7,2021-11-01_12h14.04.839,forced_choiceRT_color,2021.2.3,Win32,60.28090904,,,,,,,,8,Slow,long,f,1,2.1657,6,3,27,1,1,,,,,
,1.17,,,,,,,,,k,purple,610814d52974ad90f90174f7,2021-11-01_12h14.04.839,forced_choiceRT_color,2021.2.3,Win32,60.28090904,,,,,,,,8,Fast,long,k,1,1.7099,7,0,28,3,1,,,,,
,0.38,,,,,,,,,d,orange,610814d52974ad90f90174f7,2021-11-01_12h14.04.839,forced_choiceRT_color,2021.2.3,Win32,60.28090904,,,,,,,,8,Ontime,long,d,1,2.0633,7,1,29,0,1,,,,,
,1.89,,,,,,,,,f,blue,610814d52974ad90f90174f7,2021-11-01_12h14.04.839,forced_choiceRT_color,2021.2.3,Win32,60.28090904,,,,,,,,8,Slow,long,f,1,2.525,7,2,30,1,1,,,,,
,1.45,,,,,,,,,d,orange,610814d52974ad90f90174f7,2021-11-01_12h14.04.839,forced_choiceRT_color,2021.2.3,Win32,60.28090904,,,,,,,,8,Ontime,long,d,1,2.0643,7,3,31,0,1,,,,,
,0.41,,,,,,,,,d,orange,610814d52974ad90f90174f7,2021-11-01_12h14.04.839,forced_choiceRT_color,2021.2.3,Win32,60.28090904,,,,,,,,8,Ontime,long,d,1,2.0077,8,0,32,0,1,,,,,
,1.54,,,,,,,,,k,purple,610814d52974ad90f90174f7,2021-11-01_12h14.04.839,forced_choiceRT_color,2021.2.3,Win32,60.28090904,,,,,,,,8,Ontime,long,k,1,2.0485,8,1,33,3,1,,,,,
,0.55,,,,,,,,,j,red,610814d52974ad90f90174f7,2021-11-01_12h14.04.839,forced_choiceRT_color,2021.2.3,Win32,60.28090904,,,,,,,,8,Ontime,long,j,1,1.9812,8,2,34,2,1,,,,,
,0.91,,,,,,,,,d,orange,610814d52974ad90f90174f7,2021-11-01_12h14.04.839,forced_choiceRT_color,2021.2.3,Win32,60.28090904,,,,,,,,8,Ontime,long,k,0,1.9781,8,3,35,0,1,,,,,
,0.9,,,,,,,,,f,blue,610814d52974ad90f90174f7,2021-11-01_12h14.04.839,forced_choiceRT_color,2021.2.3,Win32,60.28090904,,,,,,,,8,Fast,long,f,1,1.7807,9,0,36,1,1,,,,,
,1.79,,,,,,,,,k,purple,610814d52974ad90f90174f7,2021-11-01_12h14.04.839,forced_choiceRT_color,2021.2.3,Win32,60.28090904,,,,,,,,8,Slow,long,k,1,2.2373,9,1,37,3,1,,,,,
,1.6,,,,,,,,,k,purple,610814d52974ad90f90174f7,2021-11-01_12h14.04.839,forced_choiceRT_color,2021.2.3,Win32,60.28090904,,,,,,,,8,Slow,long,k,1,2.1975,9,2,38,3,1,,,,,
,1.97,,,,,,,,,f,blue,610814d52974ad90f90174f7,2021-11-01_12h14.04.839,forced_choiceRT_color,2021.2.3,Win32,60.28090904,,,,,,,,8,Slow,long,f,1,2.5975,9,3,39,1,1,,,,,
,,,,,,,,,,,,610814d52974ad90f90174f7,2021-11-01_12h14.04.839,forced_choiceRT_color,2021.2.3,Win32,60.28090904,,,,,,,,,,,,,,,,,,,7,0,7,0,1
,1.36,,,,,,,,,f,blue,610814d52974ad90f90174f7,2021-11-01_12h14.04.839,forced_choiceRT_color,2021.2.3,Win32,60.28090904,,,,,,,,9,Slow,long,f,1,2.615,0,0,0,1,1,,,,,
,1.42,,,,,,,,,f,blue,610814d52974ad90f90174f7,2021-11-01_12h14.04.839,forced_choiceRT_color,2021.2.3,Win32,60.28090904,,,,,,,,9,Ontime,long,f,1,1.9914,0,1,1,1,1,,,,,
,0.42,,,,,,,,,k,purple,610814d52974ad90f90174f7,2021-11-01_12h14.04.839,forced_choiceRT_color,2021.2.3,Win32,60.28090904,,,,,,,,9,Ontime,long,k,1,1.9204,0,2,2,3,1,,,,,
,0.3,,,,,,,,,d,orange,610814d52974ad90f90174f7,2021-11-01_12h14.04.839,forced_choiceRT_color,2021.2.3,Win32,60.28090904,,,,,,,,9,Ontime,long,d,1,2.0147,0,3,3,0,1,,,,,
,0.86,,,,,,,,,k,purple,610814d52974ad90f90174f7,2021-11-01_12h14.04.839,forced_choiceRT_color,2021.2.3,Win32,60.28090904,,,,,,,,9,Ontime,long,k,1,1.9829,1,0,4,3,1,,,,,
,1.37,,,,,,,,,j,red,610814d52974ad90f90174f7,2021-11-01_12h14.04.839,forced_choiceRT_color,2021.2.3,Win32,60.28090904,,,,,,,,9,Slow,long,j,1,2.1216,1,1,5,2,1,,,,,
,1.12,,,,,,,,,f,blue,610814d52974ad90f90174f7,2021-11-01_12h14.04.839,forced_choiceRT_color,2021.2.3,Win32,60.28090904,,,,,,,,9,Fast,long,f,1,1.8674,1,2,6,1,1,,,,,
,0.96,,,,,,,,,k,purple,610814d52974ad90f90174f7,2021-11-01_12h14.04.839,forced_choiceRT_color,2021.2.3,Win32,60.28090904,,,,,,,,9,Fast,long,k,1,1.7642,1,3,7,3,1,,,,,
,1.52,,,,,,,,,f,blue,610814d52974ad90f90174f7,2021-11-01_12h14.04.839,forced_choiceRT_color,2021.2.3,Win32,60.28090904,,,,,,,,9,Slow,long,f,1,2.1552,2,0,8,1,1,,,,,
,0.98,,,,,,,,,f,blue,610814d52974ad90f90174f7,2021-11-01_12h14.04.839,forced_choiceRT_color,2021.2.3,Win32,60.28090904,,,,,,,,9,Fast,long,f,1,1.8816,2,1,9,1,1,,,,,
,0.22,,,,,,,,,j,red,610814d52974ad90f90174f7,2021-11-01_12h14.04.839,forced_choiceRT_color,2021.2.3,Win32,60.28090904,,,,,,,,9,Ontime,long,j,1,2.045,2,2,10,2,1,,,,,
,1.35,,,,,,,,,f,blue,610814d52974ad90f90174f7,2021-11-01_12h14.04.839,forced_choiceRT_color,2021.2.3,Win32,60.28090904,,,,,,,,9,Slow,long,d,0,2.2239,2,3,11,1,1,,,,,
,1.3,,,,,,,,,f,blue,610814d52974ad90f90174f7,2021-11-01_12h14.04.839,forced_choiceRT_color,2021.2.3,Win32,60.28090904,,,,,,,,9,Ontime,long,f,1,1.9206,3,0,12,1,1,,,,,
,1.57,,,,,,,,,k,purple,610814d52974ad90f90174f7,2021-11-01_12h14.04.839,forced_choiceRT_color,2021.2.3,Win32,60.28090904,,,,,,,,9,Ontime,long,k,1,2.0745,3,1,13,3,1,,,,,
,0.9,,,,,,,,,d,orange,610814d52974ad90f90174f7,2021-11-01_12h14.04.839,forced_choiceRT_color,2021.2.3,Win32,60.28090904,,,,,,,,9,Slow,long,d,1,2.1005,3,2,14,0,1,,,,,
,1.9,,,,,,,,,k,purple,610814d52974ad90f90174f7,2021-11-01_12h14.04.839,forced_choiceRT_color,2021.2.3,Win32,60.28090904,,,,,,,,9,Slow,long,k,1,2.4612,3,3,15,3,1,,,,,
,1.3,,,,,,,,,k,purple,610814d52974ad90f90174f7,2021-11-01_12h14.04.839,forced_choiceRT_color,2021.2.3,Win32,60.28090904,,,,,,,,9,Fast,long,k,1,1.8199,4,0,16,3,1,,,,,
,1.99,,,,,,,,,d,orange,610814d52974ad90f90174f7,2021-11-01_12h14.04.839,forced_choiceRT_color,2021.2.3,Win32,60.28090904,,,,,,,,9,Slow,long,d,1,2.6293,4,1,17,0,1,,,,,
,0.52,,,,,,,,,k,purple,610814d52974ad90f90174f7,2021-11-01_12h14.04.839,forced_choiceRT_color,2021.2.3,Win32,60.28090904,,,,,,,,9,Ontime,long,k,1,1.957,4,2,18,3,1,,,,,
,1.68,,,,,,,,,f,blue,610814d52974ad90f90174f7,2021-11-01_12h14.04.839,forced_choiceRT_color,2021.2.3,Win32,60.28090904,,,,,,,,9,Slow,long,f,1,2.1247,4,3,19,1,1,,,,,
,1.26,,,,,,,,,d,orange,610814d52974ad90f90174f7,2021-11-01_12h14.04.839,forced_choiceRT_color,2021.2.3,Win32,60.28090904,,,,,,,,9,Ontime,long,d,1,1.9232,5,0,20,0,1,,,,,
,0.27,,,,,,,,,k,purple,610814d52974ad90f90174f7,2021-11-01_12h14.04.839,forced_choiceRT_color,2021.2.3,Win32,60.28090904,,,,,,,,9,Ontime,long,k,1,1.9573,5,1,21,3,1,,,,,
,0.12,,,,,,,,,f,blue,610814d52974ad90f90174f7,2021-11-01_12h14.04.839,forced_choiceRT_color,2021.2.3,Win32,60.28090904,,,,,,,,9,Ontime,long,f,1,1.9407,5,2,22,1,1,,,,,
,1.23,,,,,,,,,d,orange,610814d52974ad90f90174f7,2021-11-01_12h14.04.839,forced_choiceRT_color,2021.2.3,Win32,60.28090904,,,,,,,,9,Ontime,long,d,1,1.9189,5,3,23,0,1,,,,,
,1.33,,,,,,,,,d,orange,610814d52974ad90f90174f7,2021-11-01_12h14.04.839,forced_choiceRT_color,2021.2.3,Win32,60.28090904,,,,,,,,9,Fast,long,d,1,1.8692,6,0,24,0,1,,,,,
,0.88,,,,,,,,,d,orange,610814d52974ad90f90174f7,2021-11-01_12h14.04.839,forced_choiceRT_color,2021.2.3,Win32,60.28090904,,,,,,,,9,Ontime,long,d,1,1.9933,6,1,25,0,1,,,,,
,0.02,,,,,,,,,d,orange,610814d52974ad90f90174f7,2021-11-01_12h14.04.839,forced_choiceRT_color,2021.2.3,Win32,60.28090904,,,,,,,,9,Ontime,long,d,1,1.9635,6,2,26,0,1,,,,,
,0.53,,,,,,,,,f,blue,610814d52974ad90f90174f7,2021-11-01_12h14.04.839,forced_choiceRT_color,2021.2.3,Win32,60.28090904,,,,,,,,9,Ontime,long,f,1,1.9711,6,3,27,1,1,,,,,
,1.09,,,,,,,,,j,red,610814d52974ad90f90174f7,2021-11-01_12h14.04.839,forced_choiceRT_color,2021.2.3,Win32,60.28090904,,,,,,,,9,Ontime,long,j,1,1.9925,7,0,28,2,1,,,,,
,0.93,,,,,,,,,d,orange,610814d52974ad90f90174f7,2021-11-01_12h14.04.839,forced_choiceRT_color,2021.2.3,Win32,60.28090904,,,,,,,,9,Slow,long,d,1,2.105,7,1,29,0,1,,,,,
,1.56,,,,,,,,,j,red,610814d52974ad90f90174f7,2021-11-01_12h14.04.839,forced_choiceRT_color,2021.2.3,Win32,60.28090904,,,,,,,,9,Ontime,long,j,1,1.9548,7,2,30,2,1,,,,,
,1.27,,,,,,,,,j,red,610814d52974ad90f90174f7,2021-11-01_12h14.04.839,forced_choiceRT_color,2021.2.3,Win32,60.28090904,,,,,,,,9,Fast,long,j,1,1.866,7,3,31,2,1,,,,,
,0.69,,,,,,,,,j,red,610814d52974ad90f90174f7,2021-11-01_12h14.04.839,forced_choiceRT_color,2021.2.3,Win32,60.28090904,,,,,,,,9,Ontime,long,j,1,1.9952,8,0,32,2,1,,,,,
,1.93,,,,,,,,,k,purple,610814d52974ad90f90174f7,2021-11-01_12h14.04.839,forced_choiceRT_color,2021.2.3,Win32,60.28090904,,,,,,,,9,Slow,long,k,1,2.4405,8,1,33,3,1,,,,,
,1.92,,,,,,,,,k,purple,610814d52974ad90f90174f7,2021-11-01_12h14.04.839,forced_choiceRT_color,2021.2.3,Win32,60.28090904,,,,,,,,9,Slow,long,k,1,2.3394,8,2,34,3,1,,,,,
,1.9,,,,,,,,,j,red,610814d52974ad90f90174f7,2021-11-01_12h14.04.839,forced_choiceRT_color,2021.2.3,Win32,60.28090904,,,,,,,,9,Slow,long,j,1,2.5611,8,3,35,2,1,,,,,
,1.8,,,,,,,,,j,red,610814d52974ad90f90174f7,2021-11-01_12h14.04.839,forced_choiceRT_color,2021.2.3,Win32,60.28090904,,,,,,,,9,Slow,long,j,1,2.5609,9,0,36,2,1,,,,,
,0.03,,,,,,,,,j,red,610814d52974ad90f90174f7,2021-11-01_12h14.04.839,forced_choiceRT_color,2021.2.3,Win32,60.28090904,,,,,,,,9,Ontime,long,j,1,1.9723,9,1,37,2,1,,,,,
,1.44,,,,,,,,,d,orange,610814d52974ad90f90174f7,2021-11-01_12h14.04.839,forced_choiceRT_color,2021.2.3,Win32,60.28090904,,,,,,,,9,Ontime,long,d,1,2.0316,9,2,38,0,1,,,,,
,0.7,,,,,,,,,j,red,610814d52974ad90f90174f7,2021-11-01_12h14.04.839,forced_choiceRT_color,2021.2.3,Win32,60.28090904,,,,,,,,9,Ontime,long,j,1,1.946,9,3,39,2,1,,,,,
,,,,,,,,,,,,610814d52974ad90f90174f7,2021-11-01_12h14.04.839,forced_choiceRT_color,2021.2.3,Win32,60.28090904,,,,,,,,,,,,,,,,,,,8,0,8,0,1
,0.92,,,,,,,,,k,purple,610814d52974ad90f90174f7,2021-11-01_12h14.04.839,forced_choiceRT_color,2021.2.3,Win32,60.28090904,,,,,,,,10,Ontime,long,k,1,2.0409,0,0,0,3,1,,,,,
,1.79,,,,,,,,,j,red,610814d52974ad90f90174f7,2021-11-01_12h14.04.839,forced_choiceRT_color,2021.2.3,Win32,60.28090904,,,,,,,,10,Slow,long,j,1,2.4281,0,1,1,2,1,,,,,
,1.09,,,,,,,,,k,purple,610814d52974ad90f90174f7,2021-11-01_12h14.04.839,forced_choiceRT_color,2021.2.3,Win32,60.28090904,,,,,,,,10,Fast,long,k,1,1.7728,0,2,2,3,1,,,,,
,1.39,,,,,,,,,k,purple,610814d52974ad90f90174f7,2021-11-01_12h14.04.839,forced_choiceRT_color,2021.2.3,Win32,60.28090904,,,,,,,,10,Ontime,long,k,1,1.9561,0,3,3,3,1,,,,,
,0.79,,,,,,,,,j,red,610814d52974ad90f90174f7,2021-11-01_12h14.04.839,forced_choiceRT_color,2021.2.3,Win32,60.28090904,,,,,,,,10,Ontime,long,j,1,2.0135,1,0,4,2,1,,,,,
,0.92,,,,,,,,,f,blue,610814d52974ad90f90174f7,2021-11-01_12h14.04.839,forced_choiceRT_color,2021.2.3,Win32,60.28090904,,,,,,,,10,Slow,long,f,1,2.2247,1,1,5,1,1,,,,,
,0.54,,,,,,,,,f,blue,610814d52974ad90f90174f7,2021-11-01_12h14.04.839,forced_choiceRT_color,2021.2.3,Win32,60.28090904,,,,,,,,10,Ontime,long,f,1,1.9071,1,2,6,1,1,,,,,
,0.5,,,,,,,,,d,orange,610814d52974ad90f90174f7,2021-11-01_12h14.04.839,forced_choiceRT_color,2021.2.3,Win32,60.28090904,,,,,,,,10,Ontime,long,d,1,1.9552,1,3,7,0,1,,,,,
,0.33,,,,,,,,,k,purple,610814d52974ad90f90174f7,2021-11-01_12h14.04.839,forced_choiceRT_color,2021.2.3,Win32,60.28090904,,,,,,,,10,Ontime,long,k,1,2.0208,2,0,8,3,1,,,,,
,0.89,,,,,,,,,j,red,610814d52974ad90f90174f7,2021-11-01_12h14.04.839,forced_choiceRT_color,2021.2.3,Win32,60.28090904,,,,,,,,10,Ontime,long,j,1,2.0268,2,1,9,2,1,,,,,
,1.14,,,,,,,,,d,orange,610814d52974ad90f90174f7,2021-11-01_12h14.04.839,forced_choiceRT_color,2021.2.3,Win32,60.28090904,,,,,,,,10,Ontime,long,d,1,1.9198,2,2,10,0,1,,,,,
,0.03,,,,,,,,,d,orange,610814d52974ad90f90174f7,2021-11-01_12h14.04.839,forced_choiceRT_color,2021.2.3,Win32,60.28090904,,,,,,,,10,Ontime,long,d,1,2.0083,2,3,11,0,1,,,,,
,1.44,,,,,,,,,d,orange,610814d52974ad90f90174f7,2021-11-01_12h14.04.839,forced_choiceRT_color,2021.2.3,Win32,60.28090904,,,,,,,,10,Ontime,long,d,1,2.0704,3,0,12,0,1,,,,,
,0.25,,,,,,,,,d,orange,610814d52974ad90f90174f7,2021-11-01_12h14.04.839,forced_choiceRT_color,2021.2.3,Win32,60.28090904,,,,,,,,10,Ontime,long,d,1,2.0088,3,1,13,0,1,,,,,
,0.16,,,,,,,,,d,orange,610814d52974ad90f90174f7,2021-11-01_12h14.04.839,forced_choiceRT_color,2021.2.3,Win32,60.28090904,,,,,,,,10,Ontime,long,d,1,2.0253,3,2,14,0,1,,,,,
,0.52,,,,,,,,,k,purple,610814d52974ad90f90174f7,2021-11-01_12h14.04.839,forced_choiceRT_color,2021.2.3,Win32,60.28090904,,,,,,,,10,Slow,long,k,1,2.1524,3,3,15,3,1,,,,,
,1.46,,,,,,,,,j,red,610814d52974ad90f90174f7,2021-11-01_12h14.04.839,forced_choiceRT_color,2021.2.3,Win32,60.28090904,,,,,,,,10,Ontime,long,j,1,2.0224,4,0,16,2,1,,,,,
,1.35,,,,,,,,,k,purple,610814d52974ad90f90174f7,2021-11-01_12h14.04.839,forced_choiceRT_color,2021.2.3,Win32,60.28090904,,,,,,,,10,Ontime,long,k,1,1.9513,4,1,17,3,1,,,,,
,0.6,,,,,,,,,j,red,610814d52974ad90f90174f7,2021-11-01_12h14.04.839,forced_choiceRT_color,2021.2.3,Win32,60.28090904,,,,,,,,10,Fast,long,j,1,1.5843,4,2,18,2,1,,,,,
,1.96,,,,,,,,,k,purple,610814d52974ad90f90174f7,2021-11-01_12h14.04.839,forced_choiceRT_color,2021.2.3,Win32,60.28090904,,,,,,,,10,Slow,long,k,1,2.6547,4,3,19,3,1,,,,,
,0.61,,,,,,,,,f,blue,610814d52974ad90f90174f7,2021-11-01_12h14.04.839,forced_choiceRT_color,2021.2.3,Win32,60.28090904,,,,,,,,10,Fast,long,f,1,1.688,5,0,20,1,1,,,,,
,0.7,,,,,,,,,j,red,610814d52974ad90f90174f7,2021-11-01_12h14.04.839,forced_choiceRT_color,2021.2.3,Win32,60.28090904,,,,,,,,10,Fast,long,j,1,1.6107,5,1,21,2,1,,,,,
,1.22,,,,,,,,,f,blue,610814d52974ad90f90174f7,2021-11-01_12h14.04.839,forced_choiceRT_color,2021.2.3,Win32,60.28090904,,,,,,,,10,Ontime,long,j,0,2.094,5,2,22,1,1,,,,,
,0,,,,,,,,,d,orange,610814d52974ad90f90174f7,2021-11-01_12h14.04.839,forced_choiceRT_color,2021.2.3,Win32,60.28090904,,,,,,,,10,Ontime,long,d,1,1.9885,5,3,23,0,1,,,,,
,0.77,,,,,,,,,k,purple,610814d52974ad90f90174f7,2021-11-01_12h14.04.839,forced_choiceRT_color,2021.2.3,Win32,60.28090904,,,,,,,,10,Ontime,long,k,1,1.9235,6,0,24,3,1,,,,,
,0.18,,,,,,,,,j,red,610814d52974ad90f90174f7,2021-11-01_12h14.04.839,forced_choiceRT_color,2021.2.3,Win32,60.28090904,,,,,,,,10,Ontime,long,j,1,1.9927,6,1,25,2,1,,,,,
,0.62,,,,,,,,,f,blue,610814d52974ad90f90174f7,2021-11-01_12h14.04.839,forced_choiceRT_color,2021.2.3,Win32,60.28090904,,,,,,,,10,Slow,long,f,1,2.1092,6,2,26,1,1,,,,,
,1.88,,,,,,,,,j,red,610814d52974ad90f90174f7,2021-11-01_12h14.04.839,forced_choiceRT_color,2021.2.3,Win32,60.28090904,,,,,,,,10,Slow,long,j,1,2.5059,6,3,27,2,1,,,,,
,0.16,,,,,,,,,j,red,610814d52974ad90f90174f7,2021-11-01_12h14.04.839,forced_choiceRT_color,2021.2.3,Win32,60.28090904,,,,,,,,10,Ontime,long,j,1,1.9547,7,0,28,2,1,,,,,
,1.56,,,,,,,,,k,purple,610814d52974ad90f90174f7,2021-11-01_12h14.04.839,forced_choiceRT_color,2021.2.3,Win32,60.28090904,,,,,,,,10,Slow,long,k,1,2.2232,7,1,29,3,1,,,,,
,1.95,,,,,,,,,f,blue,610814d52974ad90f90174f7,2021-11-01_12h14.04.839,forced_choiceRT_color,2021.2.3,Win32,60.28090904,,,,,,,,10,Slow,long,f,1,2.5496,7,2,30,1,1,,,,,
,1.24,,,,,,,,,k,purple,610814d52974ad90f90174f7,2021-11-01_12h14.04.839,forced_choiceRT_color,2021.2.3,Win32,60.28090904,,,,,,,,10,Fast,long,k,1,1.7603,7,3,31,3,1,,,,,
,1.28,,,,,,,,,f,blue,610814d52974ad90f90174f7,2021-11-01_12h14.04.839,forced_choiceRT_color,2021.2.3,Win32,60.28090904,,,,,,,,10,Ontime,long,f,1,1.9686,8,0,32,1,1,,,,,
,0.55,,,,,,,,,d,orange,610814d52974ad90f90174f7,2021-11-01_12h14.04.839,forced_choiceRT_color,2021.2.3,Win32,60.28090904,,,,,,,,10,Ontime,long,j,0,1.931,8,1,33,0,1,,,,,
,1.45,,,,,,,,,d,orange,610814d52974ad90f90174f7,2021-11-01_12h14.04.839,forced_choiceRT_color,2021.2.3,Win32,60.28090904,,,,,,,,10,Ontime,long,d,1,1.9071,8,2,34,0,1,,,,,
,1.25,,,,,,,,,f,blue,610814d52974ad90f90174f7,2021-11-01_12h14.04.839,forced_choiceRT_color,2021.2.3,Win32,60.28090904,,,,,,,,10,Fast,long,f,1,1.8941,8,3,35,1,1,,,,,
,0.39,,,,,,,,,j,red,610814d52974ad90f90174f7,2021-11-01_12h14.04.839,forced_choiceRT_color,2021.2.3,Win32,60.28090904,,,,,,,,10,Ontime,long,j,1,2.0374,9,0,36,2,1,,,,,
,0.31,,,,,,,,,f,blue,610814d52974ad90f90174f7,2021-11-01_12h14.04.839,forced_choiceRT_color,2021.2.3,Win32,60.28090904,,,,,,,,10,Ontime,long,f,1,2.021,9,1,37,1,1,,,,,
,1.54,,,,,,,,,f,blue,610814d52974ad90f90174f7,2021-11-01_12h14.04.839,forced_choiceRT_color,2021.2.3,Win32,60.28090904,,,,,,,,10,Ontime,long,f,1,2.0482,9,2,38,1,1,,,,,
,0.59,,,,,,,,,d,orange,610814d52974ad90f90174f7,2021-11-01_12h14.04.839,forced_choiceRT_color,2021.2.3,Win32,60.28090904,,,,,,,,10,Ontime,long,d,1,2.0152,9,3,39,0,1,,,,,
,,,,,,,,,,,,610814d52974ad90f90174f7,2021-11-01_12h14.04.839,forced_choiceRT_color,2021.2.3,Win32,60.28090904,,,,,,,,,,,,,,,,,,,9,0,9,0,1
