target_onset,trial_resp_sp.keys,trial_resp_sp.corr,trial_resp_sp.rt,trials_train_loop.thisRepN,trials_train_loop.thisTrialN,trials_train_loop.thisN,trials_train_loop.thisIndex,trials_train_loop.ran,correct_key,color,participant,date,expName,psychopyVersion,OS,frameRate,trial_resp_timing.keys,trial_resp_timing.rt,trials_train_timing.thisRepN,trials_train_timing.thisTrialN,trials_train_timing.thisN,trials_train_timing.thisIndex,trials_train_timing.ran,block_id,ontime,feedback_cond,forcedRT_resp.keys,forcedRT_resp.corr,forcedRT_resp.rt,trials.thisRepN,trials.thisTrialN,trials.thisN,trials.thisIndex,trials.ran,blocks.thisRepN,blocks.thisTrialN,blocks.thisN,blocks.thisIndex,blocks.ran
0,k,1,1.1957,0,0,0,3,1,k,purple,55ae64defdf99b3f864653e7,2021-09-27_16h09.33.908,forced_choiceRT_color,2021.2.3,Win32,60.15037594,,,,,,,,,,,,,,,,,,,,,,,
0,j,1,0.6454,0,1,1,2,1,j,red,55ae64defdf99b3f864653e7,2021-09-27_16h09.33.908,forced_choiceRT_color,2021.2.3,Win32,60.15037594,,,,,,,,,,,,,,,,,,,,,,,
0,j,1,0.6838,0,2,2,2,1,j,red,55ae64defdf99b3f864653e7,2021-09-27_16h09.33.908,forced_choiceRT_color,2021.2.3,Win32,60.15037594,,,,,,,,,,,,,,,,,,,,,,,
0,k,1,0.5179,0,3,3,3,1,k,purple,55ae64defdf99b3f864653e7,2021-09-27_16h09.33.908,forced_choiceRT_color,2021.2.3,Win32,60.15037594,,,,,,,,,,,,,,,,,,,,,,,
0,j,1,0.7016,1,0,4,2,1,j,red,55ae64defdf99b3f864653e7,2021-09-27_16h09.33.908,forced_choiceRT_color,2021.2.3,Win32,60.15037594,,,,,,,,,,,,,,,,,,,,,,,
0,k,1,0.5118,1,1,5,3,1,k,purple,55ae64defdf99b3f864653e7,2021-09-27_16h09.33.908,forced_choiceRT_color,2021.2.3,Win32,60.15037594,,,,,,,,,,,,,,,,,,,,,,,
0,j,1,0.7168,1,2,6,2,1,j,red,55ae64defdf99b3f864653e7,2021-09-27_16h09.33.908,forced_choiceRT_color,2021.2.3,Win32,60.15037594,,,,,,,,,,,,,,,,,,,,,,,
0,d,1,0.647,1,3,7,0,1,d,orange,55ae64defdf99b3f864653e7,2021-09-27_16h09.33.908,forced_choiceRT_color,2021.2.3,Win32,60.15037594,,,,,,,,,,,,,,,,,,,,,,,
0,d,1,0.4707,2,0,8,0,1,d,orange,55ae64defdf99b3f864653e7,2021-09-27_16h09.33.908,forced_choiceRT_color,2021.2.3,Win32,60.15037594,,,,,,,,,,,,,,,,,,,,,,,
0,k,1,0.5756,2,1,9,3,1,k,purple,55ae64defdf99b3f864653e7,2021-09-27_16h09.33.908,forced_choiceRT_color,2021.2.3,Win32,60.15037594,,,,,,,,,,,,,,,,,,,,,,,
0,k,1,0.6066,2,2,10,3,1,k,purple,55ae64defdf99b3f864653e7,2021-09-27_16h09.33.908,forced_choiceRT_color,2021.2.3,Win32,60.15037594,,,,,,,,,,,,,,,,,,,,,,,
0,f,1,0.6471,2,3,11,1,1,f,blue,55ae64defdf99b3f864653e7,2021-09-27_16h09.33.908,forced_choiceRT_color,2021.2.3,Win32,60.15037594,,,,,,,,,,,,,,,,,,,,,,,
0,d,1,0.6283,3,0,12,0,1,d,orange,55ae64defdf99b3f864653e7,2021-09-27_16h09.33.908,forced_choiceRT_color,2021.2.3,Win32,60.15037594,,,,,,,,,,,,,,,,,,,,,,,
0,j,1,0.594,3,1,13,2,1,j,red,55ae64defdf99b3f864653e7,2021-09-27_16h09.33.908,forced_choiceRT_color,2021.2.3,Win32,60.15037594,,,,,,,,,,,,,,,,,,,,,,,
0,f,1,0.7013,3,2,14,1,1,f,blue,55ae64defdf99b3f864653e7,2021-09-27_16h09.33.908,forced_choiceRT_color,2021.2.3,Win32,60.15037594,,,,,,,,,,,,,,,,,,,,,,,
0,k,1,0.5911,3,3,15,3,1,k,purple,55ae64defdf99b3f864653e7,2021-09-27_16h09.33.908,forced_choiceRT_color,2021.2.3,Win32,60.15037594,,,,,,,,,,,,,,,,,,,,,,,
0,k,1,0.5296,4,0,16,3,1,k,purple,55ae64defdf99b3f864653e7,2021-09-27_16h09.33.908,forced_choiceRT_color,2021.2.3,Win32,60.15037594,,,,,,,,,,,,,,,,,,,,,,,
0,f,1,0.6872,4,1,17,1,1,f,blue,55ae64defdf99b3f864653e7,2021-09-27_16h09.33.908,forced_choiceRT_color,2021.2.3,Win32,60.15037594,,,,,,,,,,,,,,,,,,,,,,,
0,k,1,0.5756,4,2,18,3,1,k,purple,55ae64defdf99b3f864653e7,2021-09-27_16h09.33.908,forced_choiceRT_color,2021.2.3,Win32,60.15037594,,,,,,,,,,,,,,,,,,,,,,,
0,d,1,0.7781,4,3,19,0,1,d,orange,55ae64defdf99b3f864653e7,2021-09-27_16h09.33.908,forced_choiceRT_color,2021.2.3,Win32,60.15037594,,,,,,,,,,,,,,,,,,,,,,,
0,f,1,0.6161,5,0,20,1,1,f,blue,55ae64defdf99b3f864653e7,2021-09-27_16h09.33.908,forced_choiceRT_color,2021.2.3,Win32,60.15037594,,,,,,,,,,,,,,,,,,,,,,,
0,k,1,0.5787,5,1,21,3,1,k,purple,55ae64defdf99b3f864653e7,2021-09-27_16h09.33.908,forced_choiceRT_color,2021.2.3,Win32,60.15037594,,,,,,,,,,,,,,,,,,,,,,,
0,f,1,0.8461,5,2,22,1,1,f,blue,55ae64defdf99b3f864653e7,2021-09-27_16h09.33.908,forced_choiceRT_color,2021.2.3,Win32,60.15037594,,,,,,,,,,,,,,,,,,,,,,,
0,k,1,0.7367,5,3,23,3,1,k,purple,55ae64defdf99b3f864653e7,2021-09-27_16h09.33.908,forced_choiceRT_color,2021.2.3,Win32,60.15037594,,,,,,,,,,,,,,,,,,,,,,,
0,j,1,0.6312,6,0,24,2,1,j,red,55ae64defdf99b3f864653e7,2021-09-27_16h09.33.908,forced_choiceRT_color,2021.2.3,Win32,60.15037594,,,,,,,,,,,,,,,,,,,,,,,
0,k,1,0.7621,6,1,25,3,1,k,purple,55ae64defdf99b3f864653e7,2021-09-27_16h09.33.908,forced_choiceRT_color,2021.2.3,Win32,60.15037594,,,,,,,,,,,,,,,,,,,,,,,
0,d,1,0.6097,6,2,26,0,1,d,orange,55ae64defdf99b3f864653e7,2021-09-27_16h09.33.908,forced_choiceRT_color,2021.2.3,Win32,60.15037594,,,,,,,,,,,,,,,,,,,,,,,
0,j,1,0.6603,6,3,27,2,1,j,red,55ae64defdf99b3f864653e7,2021-09-27_16h09.33.908,forced_choiceRT_color,2021.2.3,Win32,60.15037594,,,,,,,,,,,,,,,,,,,,,,,
0,k,1,0.5144,7,0,28,3,1,k,purple,55ae64defdf99b3f864653e7,2021-09-27_16h09.33.908,forced_choiceRT_color,2021.2.3,Win32,60.15037594,,,,,,,,,,,,,,,,,,,,,,,
0,d,1,0.6127,7,1,29,0,1,d,orange,55ae64defdf99b3f864653e7,2021-09-27_16h09.33.908,forced_choiceRT_color,2021.2.3,Win32,60.15037594,,,,,,,,,,,,,,,,,,,,,,,
0,f,1,0.5937,7,2,30,1,1,f,blue,55ae64defdf99b3f864653e7,2021-09-27_16h09.33.908,forced_choiceRT_color,2021.2.3,Win32,60.15037594,,,,,,,,,,,,,,,,,,,,,,,
0,j,1,0.5761,7,3,31,2,1,j,red,55ae64defdf99b3f864653e7,2021-09-27_16h09.33.908,forced_choiceRT_color,2021.2.3,Win32,60.15037594,,,,,,,,,,,,,,,,,,,,,,,
0,k,1,0.4429,8,0,32,3,1,k,purple,55ae64defdf99b3f864653e7,2021-09-27_16h09.33.908,forced_choiceRT_color,2021.2.3,Win32,60.15037594,,,,,,,,,,,,,,,,,,,,,,,
0,f,1,0.6116,8,1,33,1,1,f,blue,55ae64defdf99b3f864653e7,2021-09-27_16h09.33.908,forced_choiceRT_color,2021.2.3,Win32,60.15037594,,,,,,,,,,,,,,,,,,,,,,,
0,d,1,0.5662,8,2,34,0,1,d,orange,55ae64defdf99b3f864653e7,2021-09-27_16h09.33.908,forced_choiceRT_color,2021.2.3,Win32,60.15037594,,,,,,,,,,,,,,,,,,,,,,,
0,d,1,0.4987,8,3,35,0,1,d,orange,55ae64defdf99b3f864653e7,2021-09-27_16h09.33.908,forced_choiceRT_color,2021.2.3,Win32,60.15037594,,,,,,,,,,,,,,,,,,,,,,,
0,j,1,0.6293,9,0,36,2,1,j,red,55ae64defdf99b3f864653e7,2021-09-27_16h09.33.908,forced_choiceRT_color,2021.2.3,Win32,60.15037594,,,,,,,,,,,,,,,,,,,,,,,
0,k,1,0.4305,9,1,37,3,1,k,purple,55ae64defdf99b3f864653e7,2021-09-27_16h09.33.908,forced_choiceRT_color,2021.2.3,Win32,60.15037594,,,,,,,,,,,,,,,,,,,,,,,
0,d,1,0.5062,9,2,38,0,1,d,orange,55ae64defdf99b3f864653e7,2021-09-27_16h09.33.908,forced_choiceRT_color,2021.2.3,Win32,60.15037594,,,,,,,,,,,,,,,,,,,,,,,
0,d,1,0.4504,9,3,39,0,1,d,orange,55ae64defdf99b3f864653e7,2021-09-27_16h09.33.908,forced_choiceRT_color,2021.2.3,Win32,60.15037594,,,,,,,,,,,,,,,,,,,,,,,
0,d,1,0.4154,10,0,40,0,1,d,orange,55ae64defdf99b3f864653e7,2021-09-27_16h09.33.908,forced_choiceRT_color,2021.2.3,Win32,60.15037594,,,,,,,,,,,,,,,,,,,,,,,
0,f,1,0.5455,10,1,41,1,1,f,blue,55ae64defdf99b3f864653e7,2021-09-27_16h09.33.908,forced_choiceRT_color,2021.2.3,Win32,60.15037594,,,,,,,,,,,,,,,,,,,,,,,
0,f,1,0.404,10,2,42,1,1,f,blue,55ae64defdf99b3f864653e7,2021-09-27_16h09.33.908,forced_choiceRT_color,2021.2.3,Win32,60.15037594,,,,,,,,,,,,,,,,,,,,,,,
0,d,1,0.5382,10,3,43,0,1,d,orange,55ae64defdf99b3f864653e7,2021-09-27_16h09.33.908,forced_choiceRT_color,2021.2.3,Win32,60.15037594,,,,,,,,,,,,,,,,,,,,,,,
0,j,1,0.4418,11,0,44,2,1,j,red,55ae64defdf99b3f864653e7,2021-09-27_16h09.33.908,forced_choiceRT_color,2021.2.3,Win32,60.15037594,,,,,,,,,,,,,,,,,,,,,,,
0,f,1,0.5496,11,1,45,1,1,f,blue,55ae64defdf99b3f864653e7,2021-09-27_16h09.33.908,forced_choiceRT_color,2021.2.3,Win32,60.15037594,,,,,,,,,,,,,,,,,,,,,,,
0,k,1,0.5355,11,2,46,3,1,k,purple,55ae64defdf99b3f864653e7,2021-09-27_16h09.33.908,forced_choiceRT_color,2021.2.3,Win32,60.15037594,,,,,,,,,,,,,,,,,,,,,,,
0,f,0,0.5384,11,3,47,2,1,j,red,55ae64defdf99b3f864653e7,2021-09-27_16h09.33.908,forced_choiceRT_color,2021.2.3,Win32,60.15037594,,,,,,,,,,,,,,,,,,,,,,,
0,f,1,0.6294,12,0,48,1,1,f,blue,55ae64defdf99b3f864653e7,2021-09-27_16h09.33.908,forced_choiceRT_color,2021.2.3,Win32,60.15037594,,,,,,,,,,,,,,,,,,,,,,,
0,f,1,0.3891,12,1,49,1,1,f,blue,55ae64defdf99b3f864653e7,2021-09-27_16h09.33.908,forced_choiceRT_color,2021.2.3,Win32,60.15037594,,,,,,,,,,,,,,,,,,,,,,,
0,j,1,0.4703,12,2,50,2,1,j,red,55ae64defdf99b3f864653e7,2021-09-27_16h09.33.908,forced_choiceRT_color,2021.2.3,Win32,60.15037594,,,,,,,,,,,,,,,,,,,,,,,
0,f,1,0.5459,12,3,51,1,1,f,blue,55ae64defdf99b3f864653e7,2021-09-27_16h09.33.908,forced_choiceRT_color,2021.2.3,Win32,60.15037594,,,,,,,,,,,,,,,,,,,,,,,
0,f,1,0.4508,13,0,52,1,1,f,blue,55ae64defdf99b3f864653e7,2021-09-27_16h09.33.908,forced_choiceRT_color,2021.2.3,Win32,60.15037594,,,,,,,,,,,,,,,,,,,,,,,
0,f,1,0.4338,13,1,53,1,1,f,blue,55ae64defdf99b3f864653e7,2021-09-27_16h09.33.908,forced_choiceRT_color,2021.2.3,Win32,60.15037594,,,,,,,,,,,,,,,,,,,,,,,
0,j,1,0.6311,13,2,54,2,1,j,red,55ae64defdf99b3f864653e7,2021-09-27_16h09.33.908,forced_choiceRT_color,2021.2.3,Win32,60.15037594,,,,,,,,,,,,,,,,,,,,,,,
0,j,1,0.4016,13,3,55,2,1,j,red,55ae64defdf99b3f864653e7,2021-09-27_16h09.33.908,forced_choiceRT_color,2021.2.3,Win32,60.15037594,,,,,,,,,,,,,,,,,,,,,,,
0,j,1,0.3917,14,0,56,2,1,j,red,55ae64defdf99b3f864653e7,2021-09-27_16h09.33.908,forced_choiceRT_color,2021.2.3,Win32,60.15037594,,,,,,,,,,,,,,,,,,,,,,,
0,d,1,0.5284,14,1,57,0,1,d,orange,55ae64defdf99b3f864653e7,2021-09-27_16h09.33.908,forced_choiceRT_color,2021.2.3,Win32,60.15037594,,,,,,,,,,,,,,,,,,,,,,,
0,d,1,0.4395,14,2,58,0,1,d,orange,55ae64defdf99b3f864653e7,2021-09-27_16h09.33.908,forced_choiceRT_color,2021.2.3,Win32,60.15037594,,,,,,,,,,,,,,,,,,,,,,,
0,d,1,0.4677,14,3,59,0,1,d,orange,55ae64defdf99b3f864653e7,2021-09-27_16h09.33.908,forced_choiceRT_color,2021.2.3,Win32,60.15037594,,,,,,,,,,,,,,,,,,,,,,,
,,,,,,,,,,,55ae64defdf99b3f864653e7,2021-09-27_16h09.33.908,forced_choiceRT_color,2021.2.3,Win32,60.15037594,f,2.3224,0,0,0,0,1,,,,,,,,,,,,,,,,
,,,,,,,,,,,55ae64defdf99b3f864653e7,2021-09-27_16h09.33.908,forced_choiceRT_color,2021.2.3,Win32,60.15037594,f,1.6944,1,0,1,0,1,,,,,,,,,,,,,,,,
,,,,,,,,,,,55ae64defdf99b3f864653e7,2021-09-27_16h09.33.908,forced_choiceRT_color,2021.2.3,Win32,60.15037594,f,2.0577,2,0,2,0,1,,,,,,,,,,,,,,,,
,,,,,,,,,,,55ae64defdf99b3f864653e7,2021-09-27_16h09.33.908,forced_choiceRT_color,2021.2.3,Win32,60.15037594,f,2.1434,3,0,3,0,1,,,,,,,,,,,,,,,,
,,,,,,,,,,,55ae64defdf99b3f864653e7,2021-09-27_16h09.33.908,forced_choiceRT_color,2021.2.3,Win32,60.15037594,j,2.0486,4,0,4,0,1,,,,,,,,,,,,,,,,
,,,,,,,,,,,55ae64defdf99b3f864653e7,2021-09-27_16h09.33.908,forced_choiceRT_color,2021.2.3,Win32,60.15037594,j,2.0343,5,0,5,0,1,,,,,,,,,,,,,,,,
,,,,,,,,,,,55ae64defdf99b3f864653e7,2021-09-27_16h09.33.908,forced_choiceRT_color,2021.2.3,Win32,60.15037594,j,2.0069,6,0,6,0,1,,,,,,,,,,,,,,,,
,,,,,,,,,,,55ae64defdf99b3f864653e7,2021-09-27_16h09.33.908,forced_choiceRT_color,2021.2.3,Win32,60.15037594,j,2.0572,7,0,7,0,1,,,,,,,,,,,,,,,,
,,,,,,,,,,,55ae64defdf99b3f864653e7,2021-09-27_16h09.33.908,forced_choiceRT_color,2021.2.3,Win32,60.15037594,j,2.0126,8,0,8,0,1,,,,,,,,,,,,,,,,
,,,,,,,,,,,55ae64defdf99b3f864653e7,2021-09-27_16h09.33.908,forced_choiceRT_color,2021.2.3,Win32,60.15037594,j,1.9673,9,0,9,0,1,,,,,,,,,,,,,,,,
,,,,,,,,,,,55ae64defdf99b3f864653e7,2021-09-27_16h09.33.908,forced_choiceRT_color,2021.2.3,Win32,60.15037594,j,1.9434,10,0,10,0,1,,,,,,,,,,,,,,,,
,,,,,,,,,,,55ae64defdf99b3f864653e7,2021-09-27_16h09.33.908,forced_choiceRT_color,2021.2.3,Win32,60.15037594,j,1.7463,11,0,11,0,1,,,,,,,,,,,,,,,,
,,,,,,,,,,,55ae64defdf99b3f864653e7,2021-09-27_16h09.33.908,forced_choiceRT_color,2021.2.3,Win32,60.15037594,j,1.8762,12,0,12,0,1,,,,,,,,,,,,,,,,
,,,,,,,,,,,55ae64defdf99b3f864653e7,2021-09-27_16h09.33.908,forced_choiceRT_color,2021.2.3,Win32,60.15037594,j,1.9958,13,0,13,0,1,,,,,,,,,,,,,,,,
,,,,,,,,,,,55ae64defdf99b3f864653e7,2021-09-27_16h09.33.908,forced_choiceRT_color,2021.2.3,Win32,60.15037594,j,1.891,14,0,14,0,1,,,,,,,,,,,,,,,,
,,,,,,,,,,,55ae64defdf99b3f864653e7,2021-09-27_16h09.33.908,forced_choiceRT_color,2021.2.3,Win32,60.15037594,k,1.9632,15,0,15,0,1,,,,,,,,,,,,,,,,
,,,,,,,,,,,55ae64defdf99b3f864653e7,2021-09-27_16h09.33.908,forced_choiceRT_color,2021.2.3,Win32,60.15037594,k,2.0071,16,0,16,0,1,,,,,,,,,,,,,,,,
,,,,,,,,,,,55ae64defdf99b3f864653e7,2021-09-27_16h09.33.908,forced_choiceRT_color,2021.2.3,Win32,60.15037594,k,1.7647,17,0,17,0,1,,,,,,,,,,,,,,,,
,,,,,,,,,,,55ae64defdf99b3f864653e7,2021-09-27_16h09.33.908,forced_choiceRT_color,2021.2.3,Win32,60.15037594,k,2.0141,18,0,18,0,1,,,,,,,,,,,,,,,,
,,,,,,,,,,,55ae64defdf99b3f864653e7,2021-09-27_16h09.33.908,forced_choiceRT_color,2021.2.3,Win32,60.15037594,k,2.1202,19,0,19,0,1,,,,,,,,,,,,,,,,
1.05,,,,,,,,,j,red,55ae64defdf99b3f864653e7,2021-09-27_16h09.33.908,forced_choiceRT_color,2021.2.3,Win32,60.15037594,,,,,,,,1,Fast,long,j,1,1.5486,0,0,0,2,1,,,,,
1.58,,,,,,,,,k,purple,55ae64defdf99b3f864653e7,2021-09-27_16h09.33.908,forced_choiceRT_color,2021.2.3,Win32,60.15037594,,,,,,,,1,Fast,long,f,0,1.8477,0,1,1,3,1,,,,,
0.07,,,,,,,,,d,orange,55ae64defdf99b3f864653e7,2021-09-27_16h09.33.908,forced_choiceRT_color,2021.2.3,Win32,60.15037594,,,,,,,,1,Fast,long,d,1,1.6554,0,2,2,0,1,,,,,
1.13,,,,,,,,,j,red,55ae64defdf99b3f864653e7,2021-09-27_16h09.33.908,forced_choiceRT_color,2021.2.3,Win32,60.15037594,,,,,,,,1,Fast,long,j,1,1.7792,0,3,3,2,1,,,,,
1.62,,,,,,,,,j,red,55ae64defdf99b3f864653e7,2021-09-27_16h09.33.908,forced_choiceRT_color,2021.2.3,Win32,60.15037594,,,,,,,,1,Slow,long,j,1,2.1298,1,0,4,2,1,,,,,
0.15,,,,,,,,,f,blue,55ae64defdf99b3f864653e7,2021-09-27_16h09.33.908,forced_choiceRT_color,2021.2.3,Win32,60.15037594,,,,,,,,1,Fast,long,f,1,1.654,1,1,5,1,1,,,,,
0.11,,,,,,,,,f,blue,55ae64defdf99b3f864653e7,2021-09-27_16h09.33.908,forced_choiceRT_color,2021.2.3,Win32,60.15037594,,,,,,,,1,Ontime,long,f,1,1.925,1,2,6,1,1,,,,,
1.82,,,,,,,,,k,purple,55ae64defdf99b3f864653e7,2021-09-27_16h09.33.908,forced_choiceRT_color,2021.2.3,Win32,60.15037594,,,,,,,,1,Slow,long,j,0,2.1953,1,3,7,3,1,,,,,
1.32,,,,,,,,,d,orange,55ae64defdf99b3f864653e7,2021-09-27_16h09.33.908,forced_choiceRT_color,2021.2.3,Win32,60.15037594,,,,,,,,1,Ontime,long,j,0,2.0325,2,0,8,0,1,,,,,
0.66,,,,,,,,,f,blue,55ae64defdf99b3f864653e7,2021-09-27_16h09.33.908,forced_choiceRT_color,2021.2.3,Win32,60.15037594,,,,,,,,1,Fast,long,f,1,1.5373,2,1,9,1,1,,,,,
1.24,,,,,,,,,f,blue,55ae64defdf99b3f864653e7,2021-09-27_16h09.33.908,forced_choiceRT_color,2021.2.3,Win32,60.15037594,,,,,,,,1,Slow,long,f,1,2.1142,2,2,10,1,1,,,,,
1.43,,,,,,,,,k,purple,55ae64defdf99b3f864653e7,2021-09-27_16h09.33.908,forced_choiceRT_color,2021.2.3,Win32,60.15037594,,,,,,,,1,Fast,long,k,1,1.8298,2,3,11,3,1,,,,,
1.64,,,,,,,,,d,orange,55ae64defdf99b3f864653e7,2021-09-27_16h09.33.908,forced_choiceRT_color,2021.2.3,Win32,60.15037594,,,,,,,,1,Slow,long,d,1,2.2548,3,0,12,0,1,,,,,
0.8,,,,,,,,,d,orange,55ae64defdf99b3f864653e7,2021-09-27_16h09.33.908,forced_choiceRT_color,2021.2.3,Win32,60.15037594,,,,,,,,1,Ontime,long,d,1,2.0363,3,1,13,0,1,,,,,
1.22,,,,,,,,,j,red,55ae64defdf99b3f864653e7,2021-09-27_16h09.33.908,forced_choiceRT_color,2021.2.3,Win32,60.15037594,,,,,,,,1,Ontime,long,f,0,2.0727,3,2,14,2,1,,,,,
1.93,,,,,,,,,k,purple,55ae64defdf99b3f864653e7,2021-09-27_16h09.33.908,forced_choiceRT_color,2021.2.3,Win32,60.15037594,,,,,,,,1,Slow,long,k,1,3.0438,3,3,15,3,1,,,,,
1.8,,,,,,,,,f,blue,55ae64defdf99b3f864653e7,2021-09-27_16h09.33.908,forced_choiceRT_color,2021.2.3,Win32,60.15037594,,,,,,,,1,Slow,long,j,0,2.3991,4,0,16,1,1,,,,,
1.07,,,,,,,,,d,orange,55ae64defdf99b3f864653e7,2021-09-27_16h09.33.908,forced_choiceRT_color,2021.2.3,Win32,60.15037594,,,,,,,,1,Ontime,long,d,1,2.056,4,1,17,0,1,,,,,
1.22,,,,,,,,,f,blue,55ae64defdf99b3f864653e7,2021-09-27_16h09.33.908,forced_choiceRT_color,2021.2.3,Win32,60.15037594,,,,,,,,1,Slow,long,j,0,2.1796,4,2,18,1,1,,,,,
1.14,,,,,,,,,j,red,55ae64defdf99b3f864653e7,2021-09-27_16h09.33.908,forced_choiceRT_color,2021.2.3,Win32,60.15037594,,,,,,,,1,Ontime,long,j,1,2.0889,4,3,19,2,1,,,,,
1.55,,,,,,,,,f,blue,55ae64defdf99b3f864653e7,2021-09-27_16h09.33.908,forced_choiceRT_color,2021.2.3,Win32,60.15037594,,,,,,,,1,Slow,long,j,0,2.1562,5,0,20,1,1,,,,,
1.9,,,,,,,,,d,orange,55ae64defdf99b3f864653e7,2021-09-27_16h09.33.908,forced_choiceRT_color,2021.2.3,Win32,60.15037594,,,,,,,,1,Slow,long,d,1,2.2633,5,1,21,0,1,,,,,
1.58,,,,,,,,,f,blue,55ae64defdf99b3f864653e7,2021-09-27_16h09.33.908,forced_choiceRT_color,2021.2.3,Win32,60.15037594,,,,,,,,1,Slow,long,j,0,2.148,5,2,22,1,1,,,,,
0.16,,,,,,,,,d,orange,55ae64defdf99b3f864653e7,2021-09-27_16h09.33.908,forced_choiceRT_color,2021.2.3,Win32,60.15037594,,,,,,,,1,Fast,long,d,1,1.7802,5,3,23,0,1,,,,,
1.01,,,,,,,,,d,orange,55ae64defdf99b3f864653e7,2021-09-27_16h09.33.908,forced_choiceRT_color,2021.2.3,Win32,60.15037594,,,,,,,,1,Ontime,long,d,1,1.9642,6,0,24,0,1,,,,,
1.45,,,,,,,,,k,purple,55ae64defdf99b3f864653e7,2021-09-27_16h09.33.908,forced_choiceRT_color,2021.2.3,Win32,60.15037594,,,,,,,,1,Ontime,long,k,1,2.0957,6,1,25,3,1,,,,,
1.27,,,,,,,,,j,red,55ae64defdf99b3f864653e7,2021-09-27_16h09.33.908,forced_choiceRT_color,2021.2.3,Win32,60.15037594,,,,,,,,1,Ontime,long,d,0,2.0041,6,2,26,2,1,,,,,
1.3,,,,,,,,,j,red,55ae64defdf99b3f864653e7,2021-09-27_16h09.33.908,forced_choiceRT_color,2021.2.3,Win32,60.15037594,,,,,,,,1,Fast,long,f,0,1.8911,6,3,27,2,1,,,,,
0.91,,,,,,,,,d,orange,55ae64defdf99b3f864653e7,2021-09-27_16h09.33.908,forced_choiceRT_color,2021.2.3,Win32,60.15037594,,,,,,,,1,Ontime,long,d,1,2.0137,7,0,28,0,1,,,,,
0.45,,,,,,,,,k,purple,55ae64defdf99b3f864653e7,2021-09-27_16h09.33.908,forced_choiceRT_color,2021.2.3,Win32,60.15037594,,,,,,,,1,Fast,long,k,1,1.7637,7,1,29,3,1,,,,,
1.42,,,,,,,,,d,orange,55ae64defdf99b3f864653e7,2021-09-27_16h09.33.908,forced_choiceRT_color,2021.2.3,Win32,60.15037594,,,,,,,,1,Slow,long,d,1,2.14,7,2,30,0,1,,,,,
0.04,,,,,,,,,f,blue,55ae64defdf99b3f864653e7,2021-09-27_16h09.33.908,forced_choiceRT_color,2021.2.3,Win32,60.15037594,,,,,,,,1,Fast,long,j,0,1.7638,7,3,31,1,1,,,,,
1.53,,,,,,,,,k,purple,55ae64defdf99b3f864653e7,2021-09-27_16h09.33.908,forced_choiceRT_color,2021.2.3,Win32,60.15037594,,,,,,,,1,Slow,long,k,1,2.1929,8,0,32,3,1,,,,,
1.96,,,,,,,,,j,red,55ae64defdf99b3f864653e7,2021-09-27_16h09.33.908,forced_choiceRT_color,2021.2.3,Win32,60.15037594,,,,,,,,1,Slow,long,j,1,2.4828,8,1,33,2,1,,,,,
0.78,,,,,,,,,j,red,55ae64defdf99b3f864653e7,2021-09-27_16h09.33.908,forced_choiceRT_color,2021.2.3,Win32,60.15037594,,,,,,,,1,Ontime,long,j,1,1.9682,8,2,34,2,1,,,,,
1.04,,,,,,,,,k,purple,55ae64defdf99b3f864653e7,2021-09-27_16h09.33.908,forced_choiceRT_color,2021.2.3,Win32,60.15037594,,,,,,,,1,Fast,long,k,1,1.7412,8,3,35,3,1,,,,,
1.22,,,,,,,,,f,blue,55ae64defdf99b3f864653e7,2021-09-27_16h09.33.908,forced_choiceRT_color,2021.2.3,Win32,60.15037594,,,,,,,,1,Ontime,long,f,1,1.9812,9,0,36,1,1,,,,,
1.36,,,,,,,,,j,red,55ae64defdf99b3f864653e7,2021-09-27_16h09.33.908,forced_choiceRT_color,2021.2.3,Win32,60.15037594,,,,,,,,1,Ontime,long,j,1,2.0801,9,1,37,2,1,,,,,
1.85,,,,,,,,,k,purple,55ae64defdf99b3f864653e7,2021-09-27_16h09.33.908,forced_choiceRT_color,2021.2.3,Win32,60.15037594,,,,,,,,1,Slow,long,k,1,2.15,9,2,38,3,1,,,,,
1.83,,,,,,,,,k,purple,55ae64defdf99b3f864653e7,2021-09-27_16h09.33.908,forced_choiceRT_color,2021.2.3,Win32,60.15037594,,,,,,,,1,Slow,long,k,1,2.3728,9,3,39,3,1,,,,,
,,,,,,,,,,,55ae64defdf99b3f864653e7,2021-09-27_16h09.33.908,forced_choiceRT_color,2021.2.3,Win32,60.15037594,,,,,,,,,,,,,,,,,,,0,0,0,0,1
0.66,,,,,,,,,j,red,55ae64defdf99b3f864653e7,2021-09-27_16h09.33.908,forced_choiceRT_color,2021.2.3,Win32,60.15037594,,,,,,,,2,Ontime,long,j,1,2.0226,0,0,0,2,1,,,,,
0.5,,,,,,,,,j,red,55ae64defdf99b3f864653e7,2021-09-27_16h09.33.908,forced_choiceRT_color,2021.2.3,Win32,60.15037594,,,,,,,,2,Fast,long,j,1,1.7647,0,1,1,2,1,,,,,
0.26,,,,,,,,,d,orange,55ae64defdf99b3f864653e7,2021-09-27_16h09.33.908,forced_choiceRT_color,2021.2.3,Win32,60.15037594,,,,,,,,2,Ontime,long,d,1,1.9728,0,2,2,0,1,,,,,
1.08,,,,,,,,,j,red,55ae64defdf99b3f864653e7,2021-09-27_16h09.33.908,forced_choiceRT_color,2021.2.3,Win32,60.15037594,,,,,,,,2,Ontime,long,j,1,2.0663,0,3,3,2,1,,,,,
1.35,,,,,,,,,f,blue,55ae64defdf99b3f864653e7,2021-09-27_16h09.33.908,forced_choiceRT_color,2021.2.3,Win32,60.15037594,,,,,,,,2,Ontime,long,f,1,2.0428,1,0,4,1,1,,,,,
0.74,,,,,,,,,f,blue,55ae64defdf99b3f864653e7,2021-09-27_16h09.33.908,forced_choiceRT_color,2021.2.3,Win32,60.15037594,,,,,,,,2,Slow,long,f,1,2.1056,1,1,5,1,1,,,,,
0.57,,,,,,,,,j,red,55ae64defdf99b3f864653e7,2021-09-27_16h09.33.908,forced_choiceRT_color,2021.2.3,Win32,60.15037594,,,,,,,,2,Ontime,long,j,1,2.0049,1,2,6,2,1,,,,,
0.6,,,,,,,,,k,purple,55ae64defdf99b3f864653e7,2021-09-27_16h09.33.908,forced_choiceRT_color,2021.2.3,Win32,60.15037594,,,,,,,,2,Fast,long,k,1,1.8518,1,3,7,3,1,,,,,
1.81,,,,,,,,,d,orange,55ae64defdf99b3f864653e7,2021-09-27_16h09.33.908,forced_choiceRT_color,2021.2.3,Win32,60.15037594,,,,,,,,2,Slow,long,j,0,2.1942,2,0,8,0,1,,,,,
0.34,,,,,,,,,d,orange,55ae64defdf99b3f864653e7,2021-09-27_16h09.33.908,forced_choiceRT_color,2021.2.3,Win32,60.15037594,,,,,,,,2,Ontime,long,d,1,2.0206,2,1,9,0,1,,,,,
1.89,,,,,,,,,f,blue,55ae64defdf99b3f864653e7,2021-09-27_16h09.33.908,forced_choiceRT_color,2021.2.3,Win32,60.15037594,,,,,,,,2,Ontime,long,j,0,2.0684,2,2,10,1,1,,,,,
1.04,,,,,,,,,k,purple,55ae64defdf99b3f864653e7,2021-09-27_16h09.33.908,forced_choiceRT_color,2021.2.3,Win32,60.15037594,,,,,,,,2,Fast,long,k,1,1.8142,2,3,11,3,1,,,,,
1.19,,,,,,,,,j,red,55ae64defdf99b3f864653e7,2021-09-27_16h09.33.908,forced_choiceRT_color,2021.2.3,Win32,60.15037594,,,,,,,,2,Ontime,long,j,1,1.9187,3,0,12,2,1,,,,,
1.18,,,,,,,,,d,orange,55ae64defdf99b3f864653e7,2021-09-27_16h09.33.908,forced_choiceRT_color,2021.2.3,Win32,60.15037594,,,,,,,,2,Ontime,long,d,1,2.0476,3,1,13,0,1,,,,,
1.16,,,,,,,,,f,blue,55ae64defdf99b3f864653e7,2021-09-27_16h09.33.908,forced_choiceRT_color,2021.2.3,Win32,60.15037594,,,,,,,,2,Fast,long,f,1,1.861,3,2,14,1,1,,,,,
1.98,,,,,,,,,k,purple,55ae64defdf99b3f864653e7,2021-09-27_16h09.33.908,forced_choiceRT_color,2021.2.3,Win32,60.15037594,,,,,,,,2,Slow,long,j,0,2.3777,3,3,15,3,1,,,,,
1.11,,,,,,,,,k,purple,55ae64defdf99b3f864653e7,2021-09-27_16h09.33.908,forced_choiceRT_color,2021.2.3,Win32,60.15037594,,,,,,,,2,Fast,long,k,1,1.8141,4,0,16,3,1,,,,,
1.83,,,,,,,,,f,blue,55ae64defdf99b3f864653e7,2021-09-27_16h09.33.908,forced_choiceRT_color,2021.2.3,Win32,60.15037594,,,,,,,,2,Slow,long,f,1,2.3185,4,1,17,1,1,,,,,
0.05,,,,,,,,,k,purple,55ae64defdf99b3f864653e7,2021-09-27_16h09.33.908,forced_choiceRT_color,2021.2.3,Win32,60.15037594,,,,,,,,2,Fast,long,k,1,1.6378,4,2,18,3,1,,,,,
1.94,,,,,,,,,j,red,55ae64defdf99b3f864653e7,2021-09-27_16h09.33.908,forced_choiceRT_color,2021.2.3,Win32,60.15037594,,,,,,,,2,Slow,long,j,1,2.423,4,3,19,2,1,,,,,
0.75,,,,,,,,,d,orange,55ae64defdf99b3f864653e7,2021-09-27_16h09.33.908,forced_choiceRT_color,2021.2.3,Win32,60.15037594,,,,,,,,2,Ontime,long,d,1,1.9301,5,0,20,0,1,,,,,
0.5,,,,,,,,,d,orange,55ae64defdf99b3f864653e7,2021-09-27_16h09.33.908,forced_choiceRT_color,2021.2.3,Win32,60.15037594,,,,,,,,2,Fast,long,d,1,1.7879,5,1,21,0,1,,,,,
1.57,,,,,,,,,d,orange,55ae64defdf99b3f864653e7,2021-09-27_16h09.33.908,forced_choiceRT_color,2021.2.3,Win32,60.15037594,,,,,,,,2,Slow,long,f,0,2.1165,5,2,22,0,1,,,,,
1.65,,,,,,,,,j,red,55ae64defdf99b3f864653e7,2021-09-27_16h09.33.908,forced_choiceRT_color,2021.2.3,Win32,60.15037594,,,,,,,,2,Slow,long,f,0,2.2429,5,3,23,2,1,,,,,
1.94,,,,,,,,,f,blue,55ae64defdf99b3f864653e7,2021-09-27_16h09.33.908,forced_choiceRT_color,2021.2.3,Win32,60.15037594,,,,,,,,2,Slow,long,j,0,2.3656,6,0,24,1,1,,,,,
1.53,,,,,,,,,k,purple,55ae64defdf99b3f864653e7,2021-09-27_16h09.33.908,forced_choiceRT_color,2021.2.3,Win32,60.15037594,,,,,,,,2,Slow,long,k,1,2.1796,6,1,25,3,1,,,,,
0.42,,,,,,,,,j,red,55ae64defdf99b3f864653e7,2021-09-27_16h09.33.908,forced_choiceRT_color,2021.2.3,Win32,60.15037594,,,,,,,,2,Fast,long,j,1,1.728,6,2,26,2,1,,,,,
0.74,,,,,,,,,k,purple,55ae64defdf99b3f864653e7,2021-09-27_16h09.33.908,forced_choiceRT_color,2021.2.3,Win32,60.15037594,,,,,,,,2,Fast,long,k,1,1.8678,6,3,27,3,1,,,,,
1.02,,,,,,,,,d,orange,55ae64defdf99b3f864653e7,2021-09-27_16h09.33.908,forced_choiceRT_color,2021.2.3,Win32,60.15037594,,,,,,,,2,Fast,long,d,1,1.8879,7,0,28,0,1,,,,,
0.16,,,,,,,,,f,blue,55ae64defdf99b3f864653e7,2021-09-27_16h09.33.908,forced_choiceRT_color,2021.2.3,Win32,60.15037594,,,,,,,,2,Ontime,long,f,1,2,7,1,29,1,1,,,,,
1.91,,,,,,,,,k,purple,55ae64defdf99b3f864653e7,2021-09-27_16h09.33.908,forced_choiceRT_color,2021.2.3,Win32,60.15037594,,,,,,,,2,Slow,long,k,1,2.3806,7,2,30,3,1,,,,,
0.48,,,,,,,,,d,orange,55ae64defdf99b3f864653e7,2021-09-27_16h09.33.908,forced_choiceRT_color,2021.2.3,Win32,60.15037594,,,,,,,,2,Ontime,long,d,1,1.9758,7,3,31,0,1,,,,,
0.6,,,,,,,,,k,purple,55ae64defdf99b3f864653e7,2021-09-27_16h09.33.908,forced_choiceRT_color,2021.2.3,Win32,60.15037594,,,,,,,,2,Ontime,long,k,1,2.0324,8,0,32,3,1,,,,,
1.9,,,,,,,,,f,blue,55ae64defdf99b3f864653e7,2021-09-27_16h09.33.908,forced_choiceRT_color,2021.2.3,Win32,60.15037594,,,,,,,,2,Slow,long,f,1,2.3207,8,1,33,1,1,,,,,
1.2,,,,,,,,,f,blue,55ae64defdf99b3f864653e7,2021-09-27_16h09.33.908,forced_choiceRT_color,2021.2.3,Win32,60.15037594,,,,,,,,2,Ontime,long,f,1,1.9111,8,2,34,1,1,,,,,
1.65,,,,,,,,,f,blue,55ae64defdf99b3f864653e7,2021-09-27_16h09.33.908,forced_choiceRT_color,2021.2.3,Win32,60.15037594,,,,,,,,2,Slow,long,d,0,2.1148,8,3,35,1,1,,,,,
1.51,,,,,,,,,k,purple,55ae64defdf99b3f864653e7,2021-09-27_16h09.33.908,forced_choiceRT_color,2021.2.3,Win32,60.15037594,,,,,,,,2,Ontime,long,j,0,2.0502,9,0,36,3,1,,,,,
0.59,,,,,,,,,d,orange,55ae64defdf99b3f864653e7,2021-09-27_16h09.33.908,forced_choiceRT_color,2021.2.3,Win32,60.15037594,,,,,,,,2,Fast,long,d,1,1.8681,9,1,37,0,1,,,,,
1.51,,,,,,,,,j,red,55ae64defdf99b3f864653e7,2021-09-27_16h09.33.908,forced_choiceRT_color,2021.2.3,Win32,60.15037594,,,,,,,,2,Slow,long,j,1,2.2436,9,2,38,2,1,,,,,
1.4,,,,,,,,,j,red,55ae64defdf99b3f864653e7,2021-09-27_16h09.33.908,forced_choiceRT_color,2021.2.3,Win32,60.15037594,,,,,,,,2,Fast,long,f,0,1.8707,9,3,39,2,1,,,,,
,,,,,,,,,,,55ae64defdf99b3f864653e7,2021-09-27_16h09.33.908,forced_choiceRT_color,2021.2.3,Win32,60.15037594,,,,,,,,,,,,,,,,,,,1,0,1,0,1
0.65,,,,,,,,,j,red,55ae64defdf99b3f864653e7,2021-09-27_16h09.33.908,forced_choiceRT_color,2021.2.3,Win32,60.15037594,,,,,,,,3,Fast,long,f,0,1.7424,0,0,0,2,1,,,,,
0.74,,,,,,,,,d,orange,55ae64defdf99b3f864653e7,2021-09-27_16h09.33.908,forced_choiceRT_color,2021.2.3,Win32,60.15037594,,,,,,,,3,Ontime,long,d,1,1.9153,0,1,1,0,1,,,,,
1.53,,,,,,,,,j,red,55ae64defdf99b3f864653e7,2021-09-27_16h09.33.908,forced_choiceRT_color,2021.2.3,Win32,60.15037594,,,,,,,,3,Ontime,long,j,1,2.0057,0,2,2,2,1,,,,,
1.02,,,,,,,,,k,purple,55ae64defdf99b3f864653e7,2021-09-27_16h09.33.908,forced_choiceRT_color,2021.2.3,Win32,60.15037594,,,,,,,,3,Ontime,long,k,1,1.9852,0,3,3,3,1,,,,,
1.35,,,,,,,,,j,red,55ae64defdf99b3f864653e7,2021-09-27_16h09.33.908,forced_choiceRT_color,2021.2.3,Win32,60.15037594,,,,,,,,3,Ontime,long,j,1,2.0297,1,0,4,2,1,,,,,
0.61,,,,,,,,,f,blue,55ae64defdf99b3f864653e7,2021-09-27_16h09.33.908,forced_choiceRT_color,2021.2.3,Win32,60.15037594,,,,,,,,3,Ontime,long,f,1,2.0452,1,1,5,1,1,,,,,
1.63,,,,,,,,,f,blue,55ae64defdf99b3f864653e7,2021-09-27_16h09.33.908,forced_choiceRT_color,2021.2.3,Win32,60.15037594,,,,,,,,3,Slow,long,f,1,2.133,1,2,6,1,1,,,,,
1.99,,,,,,,,,d,orange,55ae64defdf99b3f864653e7,2021-09-27_16h09.33.908,forced_choiceRT_color,2021.2.3,Win32,60.15037594,,,,,,,,3,Slow,long,f,0,2.5094,1,3,7,0,1,,,,,
0.23,,,,,,,,,k,purple,55ae64defdf99b3f864653e7,2021-09-27_16h09.33.908,forced_choiceRT_color,2021.2.3,Win32,60.15037594,,,,,,,,3,Fast,long,k,1,1.8758,2,0,8,3,1,,,,,
1.62,,,,,,,,,d,orange,55ae64defdf99b3f864653e7,2021-09-27_16h09.33.908,forced_choiceRT_color,2021.2.3,Win32,60.15037594,,,,,,,,3,Slow,long,d,1,2.2779,2,1,9,0,1,,,,,
0.74,,,,,,,,,j,red,55ae64defdf99b3f864653e7,2021-09-27_16h09.33.908,forced_choiceRT_color,2021.2.3,Win32,60.15037594,,,,,,,,3,Slow,long,j,1,2.1254,2,2,10,2,1,,,,,
1.81,,,,,,,,,f,blue,55ae64defdf99b3f864653e7,2021-09-27_16h09.33.908,forced_choiceRT_color,2021.2.3,Win32,60.15037594,,,,,,,,3,Slow,long,f,1,2.3332,2,3,11,1,1,,,,,
1.55,,,,,,,,,j,red,55ae64defdf99b3f864653e7,2021-09-27_16h09.33.908,forced_choiceRT_color,2021.2.3,Win32,60.15037594,,,,,,,,3,Ontime,long,j,1,1.9427,3,0,12,2,1,,,,,
1.57,,,,,,,,,j,red,55ae64defdf99b3f864653e7,2021-09-27_16h09.33.908,forced_choiceRT_color,2021.2.3,Win32,60.15037594,,,,,,,,3,Ontime,long,j,1,2.0647,3,1,13,2,1,,,,,
0.37,,,,,,,,,f,blue,55ae64defdf99b3f864653e7,2021-09-27_16h09.33.908,forced_choiceRT_color,2021.2.3,Win32,60.15037594,,,,,,,,3,Fast,long,f,1,1.8999,3,2,14,1,1,,,,,
0.02,,,,,,,,,d,orange,55ae64defdf99b3f864653e7,2021-09-27_16h09.33.908,forced_choiceRT_color,2021.2.3,Win32,60.15037594,,,,,,,,3,Fast,long,d,1,1.7489,3,3,15,0,1,,,,,
1.71,,,,,,,,,k,purple,55ae64defdf99b3f864653e7,2021-09-27_16h09.33.908,forced_choiceRT_color,2021.2.3,Win32,60.15037594,,,,,,,,3,Slow,long,k,1,2.2104,4,0,16,3,1,,,,,
0.5,,,,,,,,,k,purple,55ae64defdf99b3f864653e7,2021-09-27_16h09.33.908,forced_choiceRT_color,2021.2.3,Win32,60.15037594,,,,,,,,3,Fast,long,k,1,1.8616,4,1,17,3,1,,,,,
0.47,,,,,,,,,d,orange,55ae64defdf99b3f864653e7,2021-09-27_16h09.33.908,forced_choiceRT_color,2021.2.3,Win32,60.15037594,,,,,,,,3,Ontime,long,d,1,1.9422,4,2,18,0,1,,,,,
0.12,,,,,,,,,d,orange,55ae64defdf99b3f864653e7,2021-09-27_16h09.33.908,forced_choiceRT_color,2021.2.3,Win32,60.15037594,,,,,,,,3,Ontime,long,d,1,1.907,4,3,19,0,1,,,,,
0.69,,,,,,,,,f,blue,55ae64defdf99b3f864653e7,2021-09-27_16h09.33.908,forced_choiceRT_color,2021.2.3,Win32,60.15037594,,,,,,,,3,Ontime,long,f,1,1.9422,5,0,20,1,1,,,,,
0.6,,,,,,,,,d,orange,55ae64defdf99b3f864653e7,2021-09-27_16h09.33.908,forced_choiceRT_color,2021.2.3,Win32,60.15037594,,,,,,,,3,Ontime,long,d,1,1.9551,5,1,21,0,1,,,,,
0.6,,,,,,,,,f,blue,55ae64defdf99b3f864653e7,2021-09-27_16h09.33.908,forced_choiceRT_color,2021.2.3,Win32,60.15037594,,,,,,,,3,Ontime,long,j,0,1.9482,5,2,22,1,1,,,,,
0.76,,,,,,,,,k,purple,55ae64defdf99b3f864653e7,2021-09-27_16h09.33.908,forced_choiceRT_color,2021.2.3,Win32,60.15037594,,,,,,,,3,Fast,long,k,1,1.7385,5,3,23,3,1,,,,,
0.51,,,,,,,,,k,purple,55ae64defdf99b3f864653e7,2021-09-27_16h09.33.908,forced_choiceRT_color,2021.2.3,Win32,60.15037594,,,,,,,,3,Ontime,long,k,1,1.9648,6,0,24,3,1,,,,,
1.39,,,,,,,,,k,purple,55ae64defdf99b3f864653e7,2021-09-27_16h09.33.908,forced_choiceRT_color,2021.2.3,Win32,60.15037594,,,,,,,,3,Ontime,long,k,1,1.9502,6,1,25,3,1,,,,,
1.8,,,,,,,,,d,orange,55ae64defdf99b3f864653e7,2021-09-27_16h09.33.908,forced_choiceRT_color,2021.2.3,Win32,60.15037594,,,,,,,,3,Slow,long,f,0,2.2312,6,2,26,0,1,,,,,
0.33,,,,,,,,,j,red,55ae64defdf99b3f864653e7,2021-09-27_16h09.33.908,forced_choiceRT_color,2021.2.3,Win32,60.15037594,,,,,,,,3,Fast,long,f,0,1.7231,6,3,27,2,1,,,,,
0.75,,,,,,,,,k,purple,55ae64defdf99b3f864653e7,2021-09-27_16h09.33.908,forced_choiceRT_color,2021.2.3,Win32,60.15037594,,,,,,,,3,Fast,long,k,1,1.8837,7,0,28,3,1,,,,,
1.42,,,,,,,,,f,blue,55ae64defdf99b3f864653e7,2021-09-27_16h09.33.908,forced_choiceRT_color,2021.2.3,Win32,60.15037594,,,,,,,,3,Ontime,long,j,0,1.9803,7,1,29,1,1,,,,,
0.35,,,,,,,,,j,red,55ae64defdf99b3f864653e7,2021-09-27_16h09.33.908,forced_choiceRT_color,2021.2.3,Win32,60.15037594,,,,,,,,3,Ontime,long,f,0,1.9991,7,2,30,2,1,,,,,
0.65,,,,,,,,,k,purple,55ae64defdf99b3f864653e7,2021-09-27_16h09.33.908,forced_choiceRT_color,2021.2.3,Win32,60.15037594,,,,,,,,3,Ontime,long,k,1,1.9762,7,3,31,3,1,,,,,
1.73,,,,,,,,,d,orange,55ae64defdf99b3f864653e7,2021-09-27_16h09.33.908,forced_choiceRT_color,2021.2.3,Win32,60.15037594,,,,,,,,3,Slow,long,f,0,2.161,8,0,32,0,1,,,,,
0.72,,,,,,,,,f,blue,55ae64defdf99b3f864653e7,2021-09-27_16h09.33.908,forced_choiceRT_color,2021.2.3,Win32,60.15037594,,,,,,,,3,Fast,long,j,0,1.7524,8,1,33,1,1,,,,,
1.06,,,,,,,,,f,blue,55ae64defdf99b3f864653e7,2021-09-27_16h09.33.908,forced_choiceRT_color,2021.2.3,Win32,60.15037594,,,,,,,,3,Fast,long,j,0,1.7921,8,2,34,1,1,,,,,
0.9,,,,,,,,,k,purple,55ae64defdf99b3f864653e7,2021-09-27_16h09.33.908,forced_choiceRT_color,2021.2.3,Win32,60.15037594,,,,,,,,3,Fast,long,k,1,1.8551,8,3,35,3,1,,,,,
0.04,,,,,,,,,d,orange,55ae64defdf99b3f864653e7,2021-09-27_16h09.33.908,forced_choiceRT_color,2021.2.3,Win32,60.15037594,,,,,,,,3,Fast,long,d,1,1.8919,9,0,36,0,1,,,,,
1.71,,,,,,,,,j,red,55ae64defdf99b3f864653e7,2021-09-27_16h09.33.908,forced_choiceRT_color,2021.2.3,Win32,60.15037594,,,,,,,,3,Slow,long,f,0,2.3271,9,1,37,2,1,,,,,
0.25,,,,,,,,,f,blue,55ae64defdf99b3f864653e7,2021-09-27_16h09.33.908,forced_choiceRT_color,2021.2.3,Win32,60.15037594,,,,,,,,3,Fast,long,f,1,1.8076,9,2,38,1,1,,,,,
1.27,,,,,,,,,j,red,55ae64defdf99b3f864653e7,2021-09-27_16h09.33.908,forced_choiceRT_color,2021.2.3,Win32,60.15037594,,,,,,,,3,Ontime,long,j,1,2.0028,9,3,39,2,1,,,,,
,,,,,,,,,,,55ae64defdf99b3f864653e7,2021-09-27_16h09.33.908,forced_choiceRT_color,2021.2.3,Win32,60.15037594,,,,,,,,,,,,,,,,,,,2,0,2,0,1
0.01,,,,,,,,,d,orange,55ae64defdf99b3f864653e7,2021-09-27_16h09.33.908,forced_choiceRT_color,2021.2.3,Win32,60.15037594,,,,,,,,4,Ontime,long,d,1,1.9672,0,0,0,0,1,,,,,
0.48,,,,,,,,,f,blue,55ae64defdf99b3f864653e7,2021-09-27_16h09.33.908,forced_choiceRT_color,2021.2.3,Win32,60.15037594,,,,,,,,4,Fast,long,f,1,1.8501,0,1,1,1,1,,,,,
1.39,,,,,,,,,d,orange,55ae64defdf99b3f864653e7,2021-09-27_16h09.33.908,forced_choiceRT_color,2021.2.3,Win32,60.15037594,,,,,,,,4,Ontime,long,k,0,2.069,0,2,2,0,1,,,,,
1.14,,,,,,,,,k,purple,55ae64defdf99b3f864653e7,2021-09-27_16h09.33.908,forced_choiceRT_color,2021.2.3,Win32,60.15037594,,,,,,,,4,Ontime,long,k,1,1.9415,0,3,3,3,1,,,,,
0.77,,,,,,,,,f,blue,55ae64defdf99b3f864653e7,2021-09-27_16h09.33.908,forced_choiceRT_color,2021.2.3,Win32,60.15037594,,,,,,,,4,Ontime,long,f,1,1.9482,1,0,4,1,1,,,,,
1.25,,,,,,,,,k,purple,55ae64defdf99b3f864653e7,2021-09-27_16h09.33.908,forced_choiceRT_color,2021.2.3,Win32,60.15037594,,,,,,,,4,Fast,long,k,1,1.8639,1,1,5,3,1,,,,,
0.8,,,,,,,,,k,purple,55ae64defdf99b3f864653e7,2021-09-27_16h09.33.908,forced_choiceRT_color,2021.2.3,Win32,60.15037594,,,,,,,,4,Fast,long,k,1,1.884,1,2,6,3,1,,,,,
1.75,,,,,,,,,j,red,55ae64defdf99b3f864653e7,2021-09-27_16h09.33.908,forced_choiceRT_color,2021.2.3,Win32,60.15037594,,,,,,,,4,Slow,long,j,1,2.3043,1,3,7,2,1,,,,,
1.05,,,,,,,,,j,red,55ae64defdf99b3f864653e7,2021-09-27_16h09.33.908,forced_choiceRT_color,2021.2.3,Win32,60.15037594,,,,,,,,4,Ontime,long,j,1,1.9105,2,0,8,2,1,,,,,
0.55,,,,,,,,,d,orange,55ae64defdf99b3f864653e7,2021-09-27_16h09.33.908,forced_choiceRT_color,2021.2.3,Win32,60.15037594,,,,,,,,4,Ontime,long,d,1,1.9002,2,1,9,0,1,,,,,
0.81,,,,,,,,,j,red,55ae64defdf99b3f864653e7,2021-09-27_16h09.33.908,forced_choiceRT_color,2021.2.3,Win32,60.15037594,,,,,,,,4,Ontime,long,j,1,1.914,2,2,10,2,1,,,,,
0.59,,,,,,,,,d,orange,55ae64defdf99b3f864653e7,2021-09-27_16h09.33.908,forced_choiceRT_color,2021.2.3,Win32,60.15037594,,,,,,,,4,Ontime,long,d,1,1.9473,2,3,11,0,1,,,,,
1.93,,,,,,,,,f,blue,55ae64defdf99b3f864653e7,2021-09-27_16h09.33.908,forced_choiceRT_color,2021.2.3,Win32,60.15037594,,,,,,,,4,Slow,long,f,1,2.5381,3,0,12,1,1,,,,,
0.76,,,,,,,,,k,purple,55ae64defdf99b3f864653e7,2021-09-27_16h09.33.908,forced_choiceRT_color,2021.2.3,Win32,60.15037594,,,,,,,,4,Fast,long,k,1,1.8668,3,1,13,3,1,,,,,
0.06,,,,,,,,,d,orange,55ae64defdf99b3f864653e7,2021-09-27_16h09.33.908,forced_choiceRT_color,2021.2.3,Win32,60.15037594,,,,,,,,4,Fast,long,d,1,1.8325,3,2,14,0,1,,,,,
0.29,,,,,,,,,j,red,55ae64defdf99b3f864653e7,2021-09-27_16h09.33.908,forced_choiceRT_color,2021.2.3,Win32,60.15037594,,,,,,,,4,Ontime,long,j,1,1.9507,3,3,15,2,1,,,,,
0.8,,,,,,,,,f,blue,55ae64defdf99b3f864653e7,2021-09-27_16h09.33.908,forced_choiceRT_color,2021.2.3,Win32,60.15037594,,,,,,,,4,Ontime,long,f,1,1.918,4,0,16,1,1,,,,,
1.05,,,,,,,,,f,blue,55ae64defdf99b3f864653e7,2021-09-27_16h09.33.908,forced_choiceRT_color,2021.2.3,Win32,60.15037594,,,,,,,,4,Ontime,long,f,1,1.9985,4,1,17,1,1,,,,,
1.62,,,,,,,,,d,orange,55ae64defdf99b3f864653e7,2021-09-27_16h09.33.908,forced_choiceRT_color,2021.2.3,Win32,60.15037594,,,,,,,,4,Slow,long,d,1,2.1354,4,2,18,0,1,,,,,
1.38,,,,,,,,,d,orange,55ae64defdf99b3f864653e7,2021-09-27_16h09.33.908,forced_choiceRT_color,2021.2.3,Win32,60.15037594,,,,,,,,4,Ontime,long,d,1,2.0588,4,3,19,0,1,,,,,
0.54,,,,,,,,,k,purple,55ae64defdf99b3f864653e7,2021-09-27_16h09.33.908,forced_choiceRT_color,2021.2.3,Win32,60.15037594,,,,,,,,4,Fast,long,k,1,1.8665,5,0,20,3,1,,,,,
1.01,,,,,,,,,j,red,55ae64defdf99b3f864653e7,2021-09-27_16h09.33.908,forced_choiceRT_color,2021.2.3,Win32,60.15037594,,,,,,,,4,Ontime,long,j,1,1.9446,5,1,21,2,1,,,,,
0.08,,,,,,,,,j,red,55ae64defdf99b3f864653e7,2021-09-27_16h09.33.908,forced_choiceRT_color,2021.2.3,Win32,60.15037594,,,,,,,,4,Fast,long,j,1,1.8882,5,2,22,2,1,,,,,
0.99,,,,,,,,,f,blue,55ae64defdf99b3f864653e7,2021-09-27_16h09.33.908,forced_choiceRT_color,2021.2.3,Win32,60.15037594,,,,,,,,4,Fast,long,f,1,1.863,5,3,23,1,1,,,,,
1.11,,,,,,,,,d,orange,55ae64defdf99b3f864653e7,2021-09-27_16h09.33.908,forced_choiceRT_color,2021.2.3,Win32,60.15037594,,,,,,,,4,Ontime,long,d,1,1.92,6,0,24,0,1,,,,,
1.87,,,,,,,,,k,purple,55ae64defdf99b3f864653e7,2021-09-27_16h09.33.908,forced_choiceRT_color,2021.2.3,Win32,60.15037594,,,,,,,,4,Slow,long,k,1,2.3956,6,1,25,3,1,,,,,
0.93,,,,,,,,,d,orange,55ae64defdf99b3f864653e7,2021-09-27_16h09.33.908,forced_choiceRT_color,2021.2.3,Win32,60.15037594,,,,,,,,4,Ontime,long,d,1,2.0063,6,2,26,0,1,,,,,
0.64,,,,,,,,,k,purple,55ae64defdf99b3f864653e7,2021-09-27_16h09.33.908,forced_choiceRT_color,2021.2.3,Win32,60.15037594,,,,,,,,4,Ontime,long,k,1,1.9271,6,3,27,3,1,,,,,
0.66,,,,,,,,,k,purple,55ae64defdf99b3f864653e7,2021-09-27_16h09.33.908,forced_choiceRT_color,2021.2.3,Win32,60.15037594,,,,,,,,4,Ontime,long,k,1,1.9731,7,0,28,3,1,,,,,
0.72,,,,,,,,,f,blue,55ae64defdf99b3f864653e7,2021-09-27_16h09.33.908,forced_choiceRT_color,2021.2.3,Win32,60.15037594,,,,,,,,4,Fast,long,f,1,1.8771,7,1,29,1,1,,,,,
1.71,,,,,,,,,f,blue,55ae64defdf99b3f864653e7,2021-09-27_16h09.33.908,forced_choiceRT_color,2021.2.3,Win32,60.15037594,,,,,,,,4,Slow,long,j,0,2.4904,7,2,30,1,1,,,,,
0.78,,,,,,,,,f,blue,55ae64defdf99b3f864653e7,2021-09-27_16h09.33.908,forced_choiceRT_color,2021.2.3,Win32,60.15037594,,,,,,,,4,Ontime,long,f,1,1.9496,7,3,31,1,1,,,,,
1.5,,,,,,,,,k,purple,55ae64defdf99b3f864653e7,2021-09-27_16h09.33.908,forced_choiceRT_color,2021.2.3,Win32,60.15037594,,,,,,,,4,Ontime,long,k,1,2.0327,8,0,32,3,1,,,,,
0.11,,,,,,,,,d,orange,55ae64defdf99b3f864653e7,2021-09-27_16h09.33.908,forced_choiceRT_color,2021.2.3,Win32,60.15037594,,,,,,,,4,Fast,long,d,1,1.8674,8,1,33,0,1,,,,,
0.74,,,,,,,,,j,red,55ae64defdf99b3f864653e7,2021-09-27_16h09.33.908,forced_choiceRT_color,2021.2.3,Win32,60.15037594,,,,,,,,4,Fast,long,j,1,1.847,8,2,34,2,1,,,,,
0.17,,,,,,,,,j,red,55ae64defdf99b3f864653e7,2021-09-27_16h09.33.908,forced_choiceRT_color,2021.2.3,Win32,60.15037594,,,,,,,,4,Ontime,long,j,1,1.9993,8,3,35,2,1,,,,,
0.94,,,,,,,,,j,red,55ae64defdf99b3f864653e7,2021-09-27_16h09.33.908,forced_choiceRT_color,2021.2.3,Win32,60.15037594,,,,,,,,4,Ontime,long,j,1,1.9642,9,0,36,2,1,,,,,
0.67,,,,,,,,,j,red,55ae64defdf99b3f864653e7,2021-09-27_16h09.33.908,forced_choiceRT_color,2021.2.3,Win32,60.15037594,,,,,,,,4,Fast,long,j,1,1.7538,9,1,37,2,1,,,,,
1.96,,,,,,,,,k,purple,55ae64defdf99b3f864653e7,2021-09-27_16h09.33.908,forced_choiceRT_color,2021.2.3,Win32,60.15037594,,,,,,,,4,Slow,long,k,1,2.2191,9,2,38,3,1,,,,,
1.07,,,,,,,,,f,blue,55ae64defdf99b3f864653e7,2021-09-27_16h09.33.908,forced_choiceRT_color,2021.2.3,Win32,60.15037594,,,,,,,,4,Fast,long,f,1,1.8282,9,3,39,1,1,,,,,
,,,,,,,,,,,55ae64defdf99b3f864653e7,2021-09-27_16h09.33.908,forced_choiceRT_color,2021.2.3,Win32,60.15037594,,,,,,,,,,,,,,,,,,,3,0,3,0,1
1.01,,,,,,,,,j,red,55ae64defdf99b3f864653e7,2021-09-27_16h09.33.908,forced_choiceRT_color,2021.2.3,Win32,60.15037594,,,,,,,,5,Fast,long,j,1,1.8955,0,0,0,2,1,,,,,
0.49,,,,,,,,,k,purple,55ae64defdf99b3f864653e7,2021-09-27_16h09.33.908,forced_choiceRT_color,2021.2.3,Win32,60.15037594,,,,,,,,5,Ontime,long,k,1,1.9144,0,1,1,3,1,,,,,
0.64,,,,,,,,,d,orange,55ae64defdf99b3f864653e7,2021-09-27_16h09.33.908,forced_choiceRT_color,2021.2.3,Win32,60.15037594,,,,,,,,5,Ontime,long,d,1,1.9851,0,2,2,0,1,,,,,
1.6,,,,,,,,,d,orange,55ae64defdf99b3f864653e7,2021-09-27_16h09.33.908,forced_choiceRT_color,2021.2.3,Win32,60.15037594,,,,,,,,5,Slow,long,k,0,2.1323,0,3,3,0,1,,,,,
0.3,,,,,,,,,f,blue,55ae64defdf99b3f864653e7,2021-09-27_16h09.33.908,forced_choiceRT_color,2021.2.3,Win32,60.15037594,,,,,,,,5,Fast,long,j,0,1.8511,1,0,4,1,1,,,,,
0.93,,,,,,,,,k,purple,55ae64defdf99b3f864653e7,2021-09-27_16h09.33.908,forced_choiceRT_color,2021.2.3,Win32,60.15037594,,,,,,,,5,Ontime,long,k,1,1.9803,1,1,5,3,1,,,,,
1.25,,,,,,,,,d,orange,55ae64defdf99b3f864653e7,2021-09-27_16h09.33.908,forced_choiceRT_color,2021.2.3,Win32,60.15037594,,,,,,,,5,Ontime,long,d,1,2.0378,1,2,6,0,1,,,,,
1.86,,,,,,,,,k,purple,55ae64defdf99b3f864653e7,2021-09-27_16h09.33.908,forced_choiceRT_color,2021.2.3,Win32,60.15037594,,,,,,,,5,Slow,long,k,1,2.3632,1,3,7,3,1,,,,,
0.57,,,,,,,,,j,red,55ae64defdf99b3f864653e7,2021-09-27_16h09.33.908,forced_choiceRT_color,2021.2.3,Win32,60.15037594,,,,,,,,5,Slow,long,j,1,2.3622,2,0,8,2,1,,,,,
1.75,,,,,,,,,f,blue,55ae64defdf99b3f864653e7,2021-09-27_16h09.33.908,forced_choiceRT_color,2021.2.3,Win32,60.15037594,,,,,,,,5,Slow,long,f,1,2.2073,2,1,9,1,1,,,,,
0.5,,,,,,,,,f,blue,55ae64defdf99b3f864653e7,2021-09-27_16h09.33.908,forced_choiceRT_color,2021.2.3,Win32,60.15037594,,,,,,,,5,Fast,long,f,1,1.837,2,2,10,1,1,,,,,
1.5,,,,,,,,,j,red,55ae64defdf99b3f864653e7,2021-09-27_16h09.33.908,forced_choiceRT_color,2021.2.3,Win32,60.15037594,,,,,,,,5,Ontime,long,j,1,1.933,2,3,11,2,1,,,,,
0.9,,,,,,,,,j,red,55ae64defdf99b3f864653e7,2021-09-27_16h09.33.908,forced_choiceRT_color,2021.2.3,Win32,60.15037594,,,,,,,,5,Ontime,long,j,1,2.0701,3,0,12,2,1,,,,,
1.43,,,,,,,,,j,red,55ae64defdf99b3f864653e7,2021-09-27_16h09.33.908,forced_choiceRT_color,2021.2.3,Win32,60.15037594,,,,,,,,5,Ontime,long,j,1,1.9701,3,1,13,2,1,,,,,
1.62,,,,,,,,,j,red,55ae64defdf99b3f864653e7,2021-09-27_16h09.33.908,forced_choiceRT_color,2021.2.3,Win32,60.15037594,,,,,,,,5,Ontime,long,j,1,2.0341,3,2,14,2,1,,,,,
1.77,,,,,,,,,j,red,55ae64defdf99b3f864653e7,2021-09-27_16h09.33.908,forced_choiceRT_color,2021.2.3,Win32,60.15037594,,,,,,,,5,Slow,long,j,1,2.1775,3,3,15,2,1,,,,,
1.18,,,,,,,,,d,orange,55ae64defdf99b3f864653e7,2021-09-27_16h09.33.908,forced_choiceRT_color,2021.2.3,Win32,60.15037594,,,,,,,,5,Ontime,long,f,0,1.9046,4,0,16,0,1,,,,,
0.52,,,,,,,,,j,red,55ae64defdf99b3f864653e7,2021-09-27_16h09.33.908,forced_choiceRT_color,2021.2.3,Win32,60.15037594,,,,,,,,5,Ontime,long,j,1,1.9945,4,1,17,2,1,,,,,
0.98,,,,,,,,,k,purple,55ae64defdf99b3f864653e7,2021-09-27_16h09.33.908,forced_choiceRT_color,2021.2.3,Win32,60.15037594,,,,,,,,5,Ontime,long,k,1,1.9159,4,2,18,3,1,,,,,
0.61,,,,,,,,,k,purple,55ae64defdf99b3f864653e7,2021-09-27_16h09.33.908,forced_choiceRT_color,2021.2.3,Win32,60.15037594,,,,,,,,5,Ontime,long,k,1,1.9097,4,3,19,3,1,,,,,
1.52,,,,,,,,,k,purple,55ae64defdf99b3f864653e7,2021-09-27_16h09.33.908,forced_choiceRT_color,2021.2.3,Win32,60.15037594,,,,,,,,5,Ontime,long,k,1,2.0064,5,0,20,3,1,,,,,
0.01,,,,,,,,,d,orange,55ae64defdf99b3f864653e7,2021-09-27_16h09.33.908,forced_choiceRT_color,2021.2.3,Win32,60.15037594,,,,,,,,5,Fast,long,d,1,1.8036,5,1,21,0,1,,,,,
1.98,,,,,,,,,j,red,55ae64defdf99b3f864653e7,2021-09-27_16h09.33.908,forced_choiceRT_color,2021.2.3,Win32,60.15037594,,,,,,,,5,Slow,long,j,1,2.4293,5,2,22,2,1,,,,,
0.17,,,,,,,,,f,blue,55ae64defdf99b3f864653e7,2021-09-27_16h09.33.908,forced_choiceRT_color,2021.2.3,Win32,60.15037594,,,,,,,,5,Ontime,long,f,1,1.9352,5,3,23,1,1,,,,,
0.86,,,,,,,,,d,orange,55ae64defdf99b3f864653e7,2021-09-27_16h09.33.908,forced_choiceRT_color,2021.2.3,Win32,60.15037594,,,,,,,,5,Ontime,long,d,1,1.9702,6,0,24,0,1,,,,,
0.46,,,,,,,,,k,purple,55ae64defdf99b3f864653e7,2021-09-27_16h09.33.908,forced_choiceRT_color,2021.2.3,Win32,60.15037594,,,,,,,,5,Ontime,long,k,1,1.908,6,1,25,3,1,,,,,
0.68,,,,,,,,,d,orange,55ae64defdf99b3f864653e7,2021-09-27_16h09.33.908,forced_choiceRT_color,2021.2.3,Win32,60.15037594,,,,,,,,5,Ontime,long,d,1,1.9241,6,2,26,0,1,,,,,
1.86,,,,,,,,,k,purple,55ae64defdf99b3f864653e7,2021-09-27_16h09.33.908,forced_choiceRT_color,2021.2.3,Win32,60.15037594,,,,,,,,5,Slow,long,j,0,2.3699,6,3,27,3,1,,,,,
1.85,,,,,,,,,k,purple,55ae64defdf99b3f864653e7,2021-09-27_16h09.33.908,forced_choiceRT_color,2021.2.3,Win32,60.15037594,,,,,,,,5,Slow,long,k,1,2.2725,7,0,28,3,1,,,,,
0.3,,,,,,,,,d,orange,55ae64defdf99b3f864653e7,2021-09-27_16h09.33.908,forced_choiceRT_color,2021.2.3,Win32,60.15037594,,,,,,,,5,Fast,long,d,1,1.8971,7,1,29,0,1,,,,,
1.24,,,,,,,,,k,purple,55ae64defdf99b3f864653e7,2021-09-27_16h09.33.908,forced_choiceRT_color,2021.2.3,Win32,60.15037594,,,,,,,,5,Fast,long,k,1,1.8688,7,2,30,3,1,,,,,
0.42,,,,,,,,,d,orange,55ae64defdf99b3f864653e7,2021-09-27_16h09.33.908,forced_choiceRT_color,2021.2.3,Win32,60.15037594,,,,,,,,5,Ontime,long,d,1,1.9057,7,3,31,0,1,,,,,
0.67,,,,,,,,,f,blue,55ae64defdf99b3f864653e7,2021-09-27_16h09.33.908,forced_choiceRT_color,2021.2.3,Win32,60.15037594,,,,,,,,5,Ontime,long,f,1,2.0407,8,0,32,1,1,,,,,
0.28,,,,,,,,,f,blue,55ae64defdf99b3f864653e7,2021-09-27_16h09.33.908,forced_choiceRT_color,2021.2.3,Win32,60.15037594,,,,,,,,5,Ontime,long,f,1,2.0328,8,1,33,1,1,,,,,
0.62,,,,,,,,,f,blue,55ae64defdf99b3f864653e7,2021-09-27_16h09.33.908,forced_choiceRT_color,2021.2.3,Win32,60.15037594,,,,,,,,5,Ontime,long,f,1,1.9172,8,2,34,1,1,,,,,
0.28,,,,,,,,,f,blue,55ae64defdf99b3f864653e7,2021-09-27_16h09.33.908,forced_choiceRT_color,2021.2.3,Win32,60.15037594,,,,,,,,5,Ontime,long,f,1,1.9261,8,3,35,1,1,,,,,
1.88,,,,,,,,,j,red,55ae64defdf99b3f864653e7,2021-09-27_16h09.33.908,forced_choiceRT_color,2021.2.3,Win32,60.15037594,,,,,,,,5,Slow,long,j,1,2.2345,9,0,36,2,1,,,,,
1.35,,,,,,,,,f,blue,55ae64defdf99b3f864653e7,2021-09-27_16h09.33.908,forced_choiceRT_color,2021.2.3,Win32,60.15037594,,,,,,,,5,Fast,long,j,0,1.8018,9,1,37,1,1,,,,,
0.97,,,,,,,,,d,orange,55ae64defdf99b3f864653e7,2021-09-27_16h09.33.908,forced_choiceRT_color,2021.2.3,Win32,60.15037594,,,,,,,,5,Ontime,long,d,1,2.0087,9,2,38,0,1,,,,,
1.24,,,,,,,,,f,blue,55ae64defdf99b3f864653e7,2021-09-27_16h09.33.908,forced_choiceRT_color,2021.2.3,Win32,60.15037594,,,,,,,,5,Ontime,long,f,1,2.0302,9,3,39,1,1,,,,,
,,,,,,,,,,,55ae64defdf99b3f864653e7,2021-09-27_16h09.33.908,forced_choiceRT_color,2021.2.3,Win32,60.15037594,,,,,,,,,,,,,,,,,,,4,0,4,0,1
1.66,,,,,,,,,j,red,55ae64defdf99b3f864653e7,2021-09-27_16h09.33.908,forced_choiceRT_color,2021.2.3,Win32,60.15037594,,,,,,,,6,Slow,long,j,1,2.1456,0,0,0,2,1,,,,,
0.27,,,,,,,,,j,red,55ae64defdf99b3f864653e7,2021-09-27_16h09.33.908,forced_choiceRT_color,2021.2.3,Win32,60.15037594,,,,,,,,6,Fast,long,j,1,1.7894,0,1,1,2,1,,,,,
1.74,,,,,,,,,k,purple,55ae64defdf99b3f864653e7,2021-09-27_16h09.33.908,forced_choiceRT_color,2021.2.3,Win32,60.15037594,,,,,,,,6,Slow,long,k,1,2.2395,0,2,2,3,1,,,,,
1.03,,,,,,,,,k,purple,55ae64defdf99b3f864653e7,2021-09-27_16h09.33.908,forced_choiceRT_color,2021.2.3,Win32,60.15037594,,,,,,,,6,Ontime,long,k,1,1.9266,0,3,3,3,1,,,,,
1.19,,,,,,,,,f,blue,55ae64defdf99b3f864653e7,2021-09-27_16h09.33.908,forced_choiceRT_color,2021.2.3,Win32,60.15037594,,,,,,,,6,Ontime,long,f,1,1.9479,1,0,4,1,1,,,,,
0.41,,,,,,,,,k,purple,55ae64defdf99b3f864653e7,2021-09-27_16h09.33.908,forced_choiceRT_color,2021.2.3,Win32,60.15037594,,,,,,,,6,Fast,long,k,1,1.8912,1,1,5,3,1,,,,,
1.16,,,,,,,,,d,orange,55ae64defdf99b3f864653e7,2021-09-27_16h09.33.908,forced_choiceRT_color,2021.2.3,Win32,60.15037594,,,,,,,,6,Fast,long,d,1,1.881,1,2,6,0,1,,,,,
1.16,,,,,,,,,f,blue,55ae64defdf99b3f864653e7,2021-09-27_16h09.33.908,forced_choiceRT_color,2021.2.3,Win32,60.15037594,,,,,,,,6,Ontime,long,f,1,1.9964,1,3,7,1,1,,,,,
1.05,,,,,,,,,f,blue,55ae64defdf99b3f864653e7,2021-09-27_16h09.33.908,forced_choiceRT_color,2021.2.3,Win32,60.15037594,,,,,,,,6,Ontime,long,f,1,1.9819,2,0,8,1,1,,,,,
1.85,,,,,,,,,f,blue,55ae64defdf99b3f864653e7,2021-09-27_16h09.33.908,forced_choiceRT_color,2021.2.3,Win32,60.15037594,,,,,,,,6,Slow,long,j,0,2.1556,2,1,9,1,1,,,,,
0.89,,,,,,,,,d,orange,55ae64defdf99b3f864653e7,2021-09-27_16h09.33.908,forced_choiceRT_color,2021.2.3,Win32,60.15037594,,,,,,,,6,Ontime,long,d,1,2.0441,2,2,10,0,1,,,,,
0.33,,,,,,,,,k,purple,55ae64defdf99b3f864653e7,2021-09-27_16h09.33.908,forced_choiceRT_color,2021.2.3,Win32,60.15037594,,,,,,,,6,Ontime,long,k,1,2.0761,2,3,11,3,1,,,,,
0.2,,,,,,,,,f,blue,55ae64defdf99b3f864653e7,2021-09-27_16h09.33.908,forced_choiceRT_color,2021.2.3,Win32,60.15037594,,,,,,,,6,Ontime,long,f,1,1.9048,3,0,12,1,1,,,,,
0.53,,,,,,,,,f,blue,55ae64defdf99b3f864653e7,2021-09-27_16h09.33.908,forced_choiceRT_color,2021.2.3,Win32,60.15037594,,,,,,,,6,Ontime,long,f,1,1.9858,3,1,13,1,1,,,,,
1.14,,,,,,,,,j,red,55ae64defdf99b3f864653e7,2021-09-27_16h09.33.908,forced_choiceRT_color,2021.2.3,Win32,60.15037594,,,,,,,,6,Fast,long,j,1,1.5499,3,2,14,2,1,,,,,
0.98,,,,,,,,,d,orange,55ae64defdf99b3f864653e7,2021-09-27_16h09.33.908,forced_choiceRT_color,2021.2.3,Win32,60.15037594,,,,,,,,6,Ontime,long,d,1,1.969,3,3,15,0,1,,,,,
0.15,,,,,,,,,f,blue,55ae64defdf99b3f864653e7,2021-09-27_16h09.33.908,forced_choiceRT_color,2021.2.3,Win32,60.15037594,,,,,,,,6,Fast,long,f,1,1.7926,4,0,16,1,1,,,,,
1.97,,,,,,,,,k,purple,55ae64defdf99b3f864653e7,2021-09-27_16h09.33.908,forced_choiceRT_color,2021.2.3,Win32,60.15037594,,,,,,,,6,Ontime,long,j,0,2.0653,4,1,17,3,1,,,,,
0.25,,,,,,,,,k,purple,55ae64defdf99b3f864653e7,2021-09-27_16h09.33.908,forced_choiceRT_color,2021.2.3,Win32,60.15037594,,,,,,,,6,Ontime,long,k,1,1.9628,4,2,18,3,1,,,,,
1.5,,,,,,,,,f,blue,55ae64defdf99b3f864653e7,2021-09-27_16h09.33.908,forced_choiceRT_color,2021.2.3,Win32,60.15037594,,,,,,,,6,Ontime,long,f,1,2.0158,4,3,19,1,1,,,,,
1.61,,,,,,,,,k,purple,55ae64defdf99b3f864653e7,2021-09-27_16h09.33.908,forced_choiceRT_color,2021.2.3,Win32,60.15037594,,,,,,,,6,Slow,long,j,0,2.1827,5,0,20,3,1,,,,,
1.98,,,,,,,,,d,orange,55ae64defdf99b3f864653e7,2021-09-27_16h09.33.908,forced_choiceRT_color,2021.2.3,Win32,60.15037594,,,,,,,,6,Slow,long,f,0,2.4977,5,1,21,0,1,,,,,
0.98,,,,,,,,,j,red,55ae64defdf99b3f864653e7,2021-09-27_16h09.33.908,forced_choiceRT_color,2021.2.3,Win32,60.15037594,,,,,,,,6,Ontime,long,j,1,2.0934,5,2,22,2,1,,,,,
1.68,,,,,,,,,j,red,55ae64defdf99b3f864653e7,2021-09-27_16h09.33.908,forced_choiceRT_color,2021.2.3,Win32,60.15037594,,,,,,,,6,Slow,long,j,1,2.2363,5,3,23,2,1,,,,,
0.06,,,,,,,,,d,orange,55ae64defdf99b3f864653e7,2021-09-27_16h09.33.908,forced_choiceRT_color,2021.2.3,Win32,60.15037594,,,,,,,,6,Fast,long,d,1,1.8953,6,0,24,0,1,,,,,
1.64,,,,,,,,,d,orange,55ae64defdf99b3f864653e7,2021-09-27_16h09.33.908,forced_choiceRT_color,2021.2.3,Win32,60.15037594,,,,,,,,6,Slow,long,j,0,2.1049,6,1,25,0,1,,,,,
0.61,,,,,,,,,j,red,55ae64defdf99b3f864653e7,2021-09-27_16h09.33.908,forced_choiceRT_color,2021.2.3,Win32,60.15037594,,,,,,,,6,Ontime,long,j,1,2.0213,6,2,26,2,1,,,,,
1,,,,,,,,,j,red,55ae64defdf99b3f864653e7,2021-09-27_16h09.33.908,forced_choiceRT_color,2021.2.3,Win32,60.15037594,,,,,,,,6,Ontime,long,j,1,2.0227,6,3,27,2,1,,,,,
1.4,,,,,,,,,j,red,55ae64defdf99b3f864653e7,2021-09-27_16h09.33.908,forced_choiceRT_color,2021.2.3,Win32,60.15037594,,,,,,,,6,Ontime,long,j,1,1.9476,7,0,28,2,1,,,,,
0.7,,,,,,,,,j,red,55ae64defdf99b3f864653e7,2021-09-27_16h09.33.908,forced_choiceRT_color,2021.2.3,Win32,60.15037594,,,,,,,,6,Ontime,long,j,1,1.9754,7,1,29,2,1,,,,,
0.5,,,,,,,,,j,red,55ae64defdf99b3f864653e7,2021-09-27_16h09.33.908,forced_choiceRT_color,2021.2.3,Win32,60.15037594,,,,,,,,6,Ontime,long,j,1,1.9362,7,2,30,2,1,,,,,
0.31,,,,,,,,,k,purple,55ae64defdf99b3f864653e7,2021-09-27_16h09.33.908,forced_choiceRT_color,2021.2.3,Win32,60.15037594,,,,,,,,6,Fast,long,k,1,1.8748,7,3,31,3,1,,,,,
1.98,,,,,,,,,d,orange,55ae64defdf99b3f864653e7,2021-09-27_16h09.33.908,forced_choiceRT_color,2021.2.3,Win32,60.15037594,,,,,,,,6,Slow,long,f,0,2.5515,8,0,32,0,1,,,,,
1.3,,,,,,,,,d,orange,55ae64defdf99b3f864653e7,2021-09-27_16h09.33.908,forced_choiceRT_color,2021.2.3,Win32,60.15037594,,,,,,,,6,Fast,long,d,1,1.8487,8,1,33,0,1,,,,,
1.14,,,,,,,,,k,purple,55ae64defdf99b3f864653e7,2021-09-27_16h09.33.908,forced_choiceRT_color,2021.2.3,Win32,60.15037594,,,,,,,,6,Ontime,long,k,1,1.9065,8,2,34,3,1,,,,,
0.24,,,,,,,,,f,blue,55ae64defdf99b3f864653e7,2021-09-27_16h09.33.908,forced_choiceRT_color,2021.2.3,Win32,60.15037594,,,,,,,,6,Fast,long,f,1,1.8682,8,3,35,1,1,,,,,
0.92,,,,,,,,,d,orange,55ae64defdf99b3f864653e7,2021-09-27_16h09.33.908,forced_choiceRT_color,2021.2.3,Win32,60.15037594,,,,,,,,6,Ontime,long,j,0,1.9834,9,0,36,0,1,,,,,
0.27,,,,,,,,,d,orange,55ae64defdf99b3f864653e7,2021-09-27_16h09.33.908,forced_choiceRT_color,2021.2.3,Win32,60.15037594,,,,,,,,6,Ontime,long,d,1,1.9538,9,1,37,0,1,,,,,
1.53,,,,,,,,,f,blue,55ae64defdf99b3f864653e7,2021-09-27_16h09.33.908,forced_choiceRT_color,2021.2.3,Win32,60.15037594,,,,,,,,6,Slow,long,f,1,2.1668,9,2,38,1,1,,,,,
1.54,,,,,,,,,k,purple,55ae64defdf99b3f864653e7,2021-09-27_16h09.33.908,forced_choiceRT_color,2021.2.3,Win32,60.15037594,,,,,,,,6,Ontime,long,j,0,2.0614,9,3,39,3,1,,,,,
,,,,,,,,,,,55ae64defdf99b3f864653e7,2021-09-27_16h09.33.908,forced_choiceRT_color,2021.2.3,Win32,60.15037594,,,,,,,,,,,,,,,,,,,5,0,5,0,1
0.14,,,,,,,,,j,red,55ae64defdf99b3f864653e7,2021-09-27_16h09.33.908,forced_choiceRT_color,2021.2.3,Win32,60.15037594,,,,,,,,7,Fast,long,j,1,1.7692,0,0,0,2,1,,,,,
1.29,,,,,,,,,f,blue,55ae64defdf99b3f864653e7,2021-09-27_16h09.33.908,forced_choiceRT_color,2021.2.3,Win32,60.15037594,,,,,,,,7,Ontime,long,f,1,1.9977,0,1,1,1,1,,,,,
1.94,,,,,,,,,f,blue,55ae64defdf99b3f864653e7,2021-09-27_16h09.33.908,forced_choiceRT_color,2021.2.3,Win32,60.15037594,,,,,,,,7,Slow,long,f,1,2.5269,0,2,2,1,1,,,,,
0.51,,,,,,,,,k,purple,55ae64defdf99b3f864653e7,2021-09-27_16h09.33.908,forced_choiceRT_color,2021.2.3,Win32,60.15037594,,,,,,,,7,Ontime,long,k,1,1.9783,0,3,3,3,1,,,,,
0.72,,,,,,,,,k,purple,55ae64defdf99b3f864653e7,2021-09-27_16h09.33.908,forced_choiceRT_color,2021.2.3,Win32,60.15037594,,,,,,,,7,Ontime,long,k,1,2.0717,1,0,4,3,1,,,,,
1.12,,,,,,,,,j,red,55ae64defdf99b3f864653e7,2021-09-27_16h09.33.908,forced_choiceRT_color,2021.2.3,Win32,60.15037594,,,,,,,,7,Fast,long,j,1,1.8834,1,1,5,2,1,,,,,
0.55,,,,,,,,,d,orange,55ae64defdf99b3f864653e7,2021-09-27_16h09.33.908,forced_choiceRT_color,2021.2.3,Win32,60.15037594,,,,,,,,7,Ontime,long,f,0,1.9541,1,2,6,0,1,,,,,
1.07,,,,,,,,,k,purple,55ae64defdf99b3f864653e7,2021-09-27_16h09.33.908,forced_choiceRT_color,2021.2.3,Win32,60.15037594,,,,,,,,7,Ontime,long,k,1,1.9563,1,3,7,3,1,,,,,
0.04,,,,,,,,,f,blue,55ae64defdf99b3f864653e7,2021-09-27_16h09.33.908,forced_choiceRT_color,2021.2.3,Win32,60.15037594,,,,,,,,7,Ontime,long,f,1,1.9922,2,0,8,1,1,,,,,
1.4,,,,,,,,,j,red,55ae64defdf99b3f864653e7,2021-09-27_16h09.33.908,forced_choiceRT_color,2021.2.3,Win32,60.15037594,,,,,,,,7,Ontime,long,j,1,1.9713,2,1,9,2,1,,,,,
0.91,,,,,,,,,d,orange,55ae64defdf99b3f864653e7,2021-09-27_16h09.33.908,forced_choiceRT_color,2021.2.3,Win32,60.15037594,,,,,,,,7,Ontime,long,d,1,2.0059,2,2,10,0,1,,,,,
0.53,,,,,,,,,j,red,55ae64defdf99b3f864653e7,2021-09-27_16h09.33.908,forced_choiceRT_color,2021.2.3,Win32,60.15037594,,,,,,,,7,Ontime,long,j,1,1.9134,2,3,11,2,1,,,,,
0.06,,,,,,,,,k,purple,55ae64defdf99b3f864653e7,2021-09-27_16h09.33.908,forced_choiceRT_color,2021.2.3,Win32,60.15037594,,,,,,,,7,Fast,long,k,1,1.8954,3,0,12,3,1,,,,,
1.96,,,,,,,,,d,orange,55ae64defdf99b3f864653e7,2021-09-27_16h09.33.908,forced_choiceRT_color,2021.2.3,Win32,60.15037594,,,,,,,,7,Slow,long,d,1,2.4626,3,1,13,0,1,,,,,
0.64,,,,,,,,,d,orange,55ae64defdf99b3f864653e7,2021-09-27_16h09.33.908,forced_choiceRT_color,2021.2.3,Win32,60.15037594,,,,,,,,7,Ontime,long,d,1,2.0498,3,2,14,0,1,,,,,
0.76,,,,,,,,,f,blue,55ae64defdf99b3f864653e7,2021-09-27_16h09.33.908,forced_choiceRT_color,2021.2.3,Win32,60.15037594,,,,,,,,7,Ontime,long,f,1,1.9528,3,3,15,1,1,,,,,
0.37,,,,,,,,,k,purple,55ae64defdf99b3f864653e7,2021-09-27_16h09.33.908,forced_choiceRT_color,2021.2.3,Win32,60.15037594,,,,,,,,7,Ontime,long,k,1,1.9807,4,0,16,3,1,,,,,
1.48,,,,,,,,,d,orange,55ae64defdf99b3f864653e7,2021-09-27_16h09.33.908,forced_choiceRT_color,2021.2.3,Win32,60.15037594,,,,,,,,7,Slow,long,f,0,2.1462,4,1,17,0,1,,,,,
0.97,,,,,,,,,j,red,55ae64defdf99b3f864653e7,2021-09-27_16h09.33.908,forced_choiceRT_color,2021.2.3,Win32,60.15037594,,,,,,,,7,Fast,long,j,1,1.895,4,2,18,2,1,,,,,
1.94,,,,,,,,,f,blue,55ae64defdf99b3f864653e7,2021-09-27_16h09.33.908,forced_choiceRT_color,2021.2.3,Win32,60.15037594,,,,,,,,7,Slow,long,f,1,2.5762,4,3,19,1,1,,,,,
1.81,,,,,,,,,k,purple,55ae64defdf99b3f864653e7,2021-09-27_16h09.33.908,forced_choiceRT_color,2021.2.3,Win32,60.15037594,,,,,,,,7,Slow,long,k,1,2.2776,5,0,20,3,1,,,,,
1.15,,,,,,,,,j,red,55ae64defdf99b3f864653e7,2021-09-27_16h09.33.908,forced_choiceRT_color,2021.2.3,Win32,60.15037594,,,,,,,,7,Fast,long,j,1,1.8999,5,1,21,2,1,,,,,
1.46,,,,,,,,,j,red,55ae64defdf99b3f864653e7,2021-09-27_16h09.33.908,forced_choiceRT_color,2021.2.3,Win32,60.15037594,,,,,,,,7,Ontime,long,j,1,1.9496,5,2,22,2,1,,,,,
1.85,,,,,,,,,f,blue,55ae64defdf99b3f864653e7,2021-09-27_16h09.33.908,forced_choiceRT_color,2021.2.3,Win32,60.15037594,,,,,,,,7,Ontime,long,f,1,2.0844,5,3,23,1,1,,,,,
0.16,,,,,,,,,f,blue,55ae64defdf99b3f864653e7,2021-09-27_16h09.33.908,forced_choiceRT_color,2021.2.3,Win32,60.15037594,,,,,,,,7,Ontime,long,f,1,1.9312,6,0,24,1,1,,,,,
0.01,,,,,,,,,d,orange,55ae64defdf99b3f864653e7,2021-09-27_16h09.33.908,forced_choiceRT_color,2021.2.3,Win32,60.15037594,,,,,,,,7,Ontime,long,d,1,1.9809,6,1,25,0,1,,,,,
0.87,,,,,,,,,j,red,55ae64defdf99b3f864653e7,2021-09-27_16h09.33.908,forced_choiceRT_color,2021.2.3,Win32,60.15037594,,,,,,,,7,Ontime,long,j,1,2.0583,6,2,26,2,1,,,,,
1.23,,,,,,,,,j,red,55ae64defdf99b3f864653e7,2021-09-27_16h09.33.908,forced_choiceRT_color,2021.2.3,Win32,60.15037594,,,,,,,,7,Ontime,long,j,1,1.9805,6,3,27,2,1,,,,,
0.85,,,,,,,,,k,purple,55ae64defdf99b3f864653e7,2021-09-27_16h09.33.908,forced_choiceRT_color,2021.2.3,Win32,60.15037594,,,,,,,,7,Ontime,long,k,1,2.0216,7,0,28,3,1,,,,,
0.3,,,,,,,,,d,orange,55ae64defdf99b3f864653e7,2021-09-27_16h09.33.908,forced_choiceRT_color,2021.2.3,Win32,60.15037594,,,,,,,,7,Ontime,long,d,1,2.0354,7,1,29,0,1,,,,,
1.23,,,,,,,,,d,orange,55ae64defdf99b3f864653e7,2021-09-27_16h09.33.908,forced_choiceRT_color,2021.2.3,Win32,60.15037594,,,,,,,,7,Ontime,long,d,1,1.9742,7,2,30,0,1,,,,,
1.05,,,,,,,,,k,purple,55ae64defdf99b3f864653e7,2021-09-27_16h09.33.908,forced_choiceRT_color,2021.2.3,Win32,60.15037594,,,,,,,,7,Ontime,long,j,0,1.9135,7,3,31,3,1,,,,,
1.19,,,,,,,,,d,orange,55ae64defdf99b3f864653e7,2021-09-27_16h09.33.908,forced_choiceRT_color,2021.2.3,Win32,60.15037594,,,,,,,,7,Ontime,long,d,1,2.0473,8,0,32,0,1,,,,,
0.49,,,,,,,,,f,blue,55ae64defdf99b3f864653e7,2021-09-27_16h09.33.908,forced_choiceRT_color,2021.2.3,Win32,60.15037594,,,,,,,,7,Ontime,long,f,1,2.0286,8,1,33,1,1,,,,,
1.83,,,,,,,,,j,red,55ae64defdf99b3f864653e7,2021-09-27_16h09.33.908,forced_choiceRT_color,2021.2.3,Win32,60.15037594,,,,,,,,7,Slow,long,j,1,2.4111,8,2,34,2,1,,,,,
1.65,,,,,,,,,k,purple,55ae64defdf99b3f864653e7,2021-09-27_16h09.33.908,forced_choiceRT_color,2021.2.3,Win32,60.15037594,,,,,,,,7,Slow,long,k,1,2.1279,8,3,35,3,1,,,,,
1.02,,,,,,,,,d,orange,55ae64defdf99b3f864653e7,2021-09-27_16h09.33.908,forced_choiceRT_color,2021.2.3,Win32,60.15037594,,,,,,,,7,Ontime,long,f,0,2.0315,9,0,36,0,1,,,,,
0.98,,,,,,,,,f,blue,55ae64defdf99b3f864653e7,2021-09-27_16h09.33.908,forced_choiceRT_color,2021.2.3,Win32,60.15037594,,,,,,,,7,Ontime,long,f,1,2.0471,9,1,37,1,1,,,,,
0.91,,,,,,,,,f,blue,55ae64defdf99b3f864653e7,2021-09-27_16h09.33.908,forced_choiceRT_color,2021.2.3,Win32,60.15037594,,,,,,,,7,Ontime,long,f,1,1.9945,9,2,38,1,1,,,,,
0.11,,,,,,,,,k,purple,55ae64defdf99b3f864653e7,2021-09-27_16h09.33.908,forced_choiceRT_color,2021.2.3,Win32,60.15037594,,,,,,,,7,Ontime,long,k,1,1.9151,9,3,39,3,1,,,,,
,,,,,,,,,,,55ae64defdf99b3f864653e7,2021-09-27_16h09.33.908,forced_choiceRT_color,2021.2.3,Win32,60.15037594,,,,,,,,,,,,,,,,,,,6,0,6,0,1
1.57,,,,,,,,,j,red,55ae64defdf99b3f864653e7,2021-09-27_16h09.33.908,forced_choiceRT_color,2021.2.3,Win32,60.15037594,,,,,,,,8,Ontime,long,j,1,2.0373,0,0,0,2,1,,,,,
0.81,,,,,,,,,d,orange,55ae64defdf99b3f864653e7,2021-09-27_16h09.33.908,forced_choiceRT_color,2021.2.3,Win32,60.15037594,,,,,,,,8,Fast,long,d,1,1.7112,0,1,1,0,1,,,,,
1.94,,,,,,,,,d,orange,55ae64defdf99b3f864653e7,2021-09-27_16h09.33.908,forced_choiceRT_color,2021.2.3,Win32,60.15037594,,,,,,,,8,Slow,long,d,1,2.3777,0,2,2,0,1,,,,,
1.04,,,,,,,,,k,purple,55ae64defdf99b3f864653e7,2021-09-27_16h09.33.908,forced_choiceRT_color,2021.2.3,Win32,60.15037594,,,,,,,,8,Fast,long,k,1,1.7734,0,3,3,3,1,,,,,
1.55,,,,,,,,,d,orange,55ae64defdf99b3f864653e7,2021-09-27_16h09.33.908,forced_choiceRT_color,2021.2.3,Win32,60.15037594,,,,,,,,8,Ontime,long,d,1,2.0919,1,0,4,0,1,,,,,
1.25,,,,,,,,,f,blue,55ae64defdf99b3f864653e7,2021-09-27_16h09.33.908,forced_choiceRT_color,2021.2.3,Win32,60.15037594,,,,,,,,8,Ontime,long,f,1,1.9964,1,1,5,1,1,,,,,
1.67,,,,,,,,,k,purple,55ae64defdf99b3f864653e7,2021-09-27_16h09.33.908,forced_choiceRT_color,2021.2.3,Win32,60.15037594,,,,,,,,8,Slow,long,j,0,2.1569,1,2,6,3,1,,,,,
0.58,,,,,,,,,f,blue,55ae64defdf99b3f864653e7,2021-09-27_16h09.33.908,forced_choiceRT_color,2021.2.3,Win32,60.15037594,,,,,,,,8,Ontime,long,f,1,1.9059,1,3,7,1,1,,,,,
0.06,,,,,,,,,f,blue,55ae64defdf99b3f864653e7,2021-09-27_16h09.33.908,forced_choiceRT_color,2021.2.3,Win32,60.15037594,,,,,,,,8,Ontime,long,f,1,1.9727,2,0,8,1,1,,,,,
1.41,,,,,,,,,j,red,55ae64defdf99b3f864653e7,2021-09-27_16h09.33.908,forced_choiceRT_color,2021.2.3,Win32,60.15037594,,,,,,,,8,Ontime,long,j,1,2.0804,2,1,9,2,1,,,,,
0.45,,,,,,,,,d,orange,55ae64defdf99b3f864653e7,2021-09-27_16h09.33.908,forced_choiceRT_color,2021.2.3,Win32,60.15037594,,,,,,,,8,Ontime,long,d,1,1.969,2,2,10,0,1,,,,,
0.7,,,,,,,,,j,red,55ae64defdf99b3f864653e7,2021-09-27_16h09.33.908,forced_choiceRT_color,2021.2.3,Win32,60.15037594,,,,,,,,8,Ontime,long,j,1,1.9293,2,3,11,2,1,,,,,
0.31,,,,,,,,,d,orange,55ae64defdf99b3f864653e7,2021-09-27_16h09.33.908,forced_choiceRT_color,2021.2.3,Win32,60.15037594,,,,,,,,8,Ontime,long,d,1,1.909,3,0,12,0,1,,,,,
1.56,,,,,,,,,j,red,55ae64defdf99b3f864653e7,2021-09-27_16h09.33.908,forced_choiceRT_color,2021.2.3,Win32,60.15037594,,,,,,,,8,Ontime,long,j,1,2.0791,3,1,13,2,1,,,,,
0.93,,,,,,,,,d,orange,55ae64defdf99b3f864653e7,2021-09-27_16h09.33.908,forced_choiceRT_color,2021.2.3,Win32,60.15037594,,,,,,,,8,Ontime,long,d,1,2.0135,3,2,14,0,1,,,,,
0.83,,,,,,,,,d,orange,55ae64defdf99b3f864653e7,2021-09-27_16h09.33.908,forced_choiceRT_color,2021.2.3,Win32,60.15037594,,,,,,,,8,Ontime,long,d,1,1.9477,3,3,15,0,1,,,,,
0.83,,,,,,,,,j,red,55ae64defdf99b3f864653e7,2021-09-27_16h09.33.908,forced_choiceRT_color,2021.2.3,Win32,60.15037594,,,,,,,,8,Ontime,long,j,1,1.9981,4,0,16,2,1,,,,,
1.41,,,,,,,,,j,red,55ae64defdf99b3f864653e7,2021-09-27_16h09.33.908,forced_choiceRT_color,2021.2.3,Win32,60.15037594,,,,,,,,8,Ontime,long,j,1,1.9885,4,1,17,2,1,,,,,
1.52,,,,,,,,,k,purple,55ae64defdf99b3f864653e7,2021-09-27_16h09.33.908,forced_choiceRT_color,2021.2.3,Win32,60.15037594,,,,,,,,8,Ontime,long,k,1,2.0442,4,2,18,3,1,,,,,
1.59,,,,,,,,,k,purple,55ae64defdf99b3f864653e7,2021-09-27_16h09.33.908,forced_choiceRT_color,2021.2.3,Win32,60.15037594,,,,,,,,8,Ontime,long,k,1,2.0511,4,3,19,3,1,,,,,
1.85,,,,,,,,,f,blue,55ae64defdf99b3f864653e7,2021-09-27_16h09.33.908,forced_choiceRT_color,2021.2.3,Win32,60.15037594,,,,,,,,8,Slow,long,f,1,2.3395,5,0,20,1,1,,,,,
0.01,,,,,,,,,k,purple,55ae64defdf99b3f864653e7,2021-09-27_16h09.33.908,forced_choiceRT_color,2021.2.3,Win32,60.15037594,,,,,,,,8,Fast,long,k,1,1.8859,5,1,21,3,1,,,,,
0.62,,,,,,,,,k,purple,55ae64defdf99b3f864653e7,2021-09-27_16h09.33.908,forced_choiceRT_color,2021.2.3,Win32,60.15037594,,,,,,,,8,Ontime,long,k,1,1.9083,5,2,22,3,1,,,,,
0.28,,,,,,,,,k,purple,55ae64defdf99b3f864653e7,2021-09-27_16h09.33.908,forced_choiceRT_color,2021.2.3,Win32,60.15037594,,,,,,,,8,Ontime,long,k,1,1.9212,5,3,23,3,1,,,,,
1.07,,,,,,,,,f,blue,55ae64defdf99b3f864653e7,2021-09-27_16h09.33.908,forced_choiceRT_color,2021.2.3,Win32,60.15037594,,,,,,,,8,Fast,long,f,1,1.8861,6,0,24,1,1,,,,,
0.04,,,,,,,,,j,red,55ae64defdf99b3f864653e7,2021-09-27_16h09.33.908,forced_choiceRT_color,2021.2.3,Win32,60.15037594,,,,,,,,8,Fast,long,j,1,1.8817,6,1,25,2,1,,,,,
0.83,,,,,,,,,d,orange,55ae64defdf99b3f864653e7,2021-09-27_16h09.33.908,forced_choiceRT_color,2021.2.3,Win32,60.15037594,,,,,,,,8,Ontime,long,f,0,2.0413,6,2,26,0,1,,,,,
1.44,,,,,,,,,j,red,55ae64defdf99b3f864653e7,2021-09-27_16h09.33.908,forced_choiceRT_color,2021.2.3,Win32,60.15037594,,,,,,,,8,Slow,long,j,1,2.1261,6,3,27,2,1,,,,,
0.85,,,,,,,,,f,blue,55ae64defdf99b3f864653e7,2021-09-27_16h09.33.908,forced_choiceRT_color,2021.2.3,Win32,60.15037594,,,,,,,,8,Fast,long,f,1,1.8993,7,0,28,1,1,,,,,
1.42,,,,,,,,,f,blue,55ae64defdf99b3f864653e7,2021-09-27_16h09.33.908,forced_choiceRT_color,2021.2.3,Win32,60.15037594,,,,,,,,8,Ontime,long,f,1,2.0306,7,1,29,1,1,,,,,
0.01,,,,,,,,,d,orange,55ae64defdf99b3f864653e7,2021-09-27_16h09.33.908,forced_choiceRT_color,2021.2.3,Win32,60.15037594,,,,,,,,8,Ontime,long,d,1,1.9726,7,2,30,0,1,,,,,
1.73,,,,,,,,,d,orange,55ae64defdf99b3f864653e7,2021-09-27_16h09.33.908,forced_choiceRT_color,2021.2.3,Win32,60.15037594,,,,,,,,8,Slow,long,j,0,2.1424,7,3,31,0,1,,,,,
0.94,,,,,,,,,k,purple,55ae64defdf99b3f864653e7,2021-09-27_16h09.33.908,forced_choiceRT_color,2021.2.3,Win32,60.15037594,,,,,,,,8,Ontime,long,k,1,1.9704,8,0,32,3,1,,,,,
1.75,,,,,,,,,k,purple,55ae64defdf99b3f864653e7,2021-09-27_16h09.33.908,forced_choiceRT_color,2021.2.3,Win32,60.15037594,,,,,,,,8,Slow,long,k,1,2.3116,8,1,33,3,1,,,,,
0.96,,,,,,,,,j,red,55ae64defdf99b3f864653e7,2021-09-27_16h09.33.908,forced_choiceRT_color,2021.2.3,Win32,60.15037594,,,,,,,,8,Fast,long,j,1,1.8775,8,2,34,2,1,,,,,
0.99,,,,,,,,,f,blue,55ae64defdf99b3f864653e7,2021-09-27_16h09.33.908,forced_choiceRT_color,2021.2.3,Win32,60.15037594,,,,,,,,8,Ontime,long,f,1,1.9644,8,3,35,1,1,,,,,
1.08,,,,,,,,,f,blue,55ae64defdf99b3f864653e7,2021-09-27_16h09.33.908,forced_choiceRT_color,2021.2.3,Win32,60.15037594,,,,,,,,8,Fast,long,f,1,1.8836,9,0,36,1,1,,,,,
0.87,,,,,,,,,k,purple,55ae64defdf99b3f864653e7,2021-09-27_16h09.33.908,forced_choiceRT_color,2021.2.3,Win32,60.15037594,,,,,,,,8,Ontime,long,k,1,1.9468,9,1,37,3,1,,,,,
0.94,,,,,,,,,j,red,55ae64defdf99b3f864653e7,2021-09-27_16h09.33.908,forced_choiceRT_color,2021.2.3,Win32,60.15037594,,,,,,,,8,Ontime,long,j,1,1.9756,9,2,38,2,1,,,,,
1.82,,,,,,,,,f,blue,55ae64defdf99b3f864653e7,2021-09-27_16h09.33.908,forced_choiceRT_color,2021.2.3,Win32,60.15037594,,,,,,,,8,Slow,long,f,1,2.3434,9,3,39,1,1,,,,,
,,,,,,,,,,,55ae64defdf99b3f864653e7,2021-09-27_16h09.33.908,forced_choiceRT_color,2021.2.3,Win32,60.15037594,,,,,,,,,,,,,,,,,,,7,0,7,0,1
1.65,,,,,,,,,j,red,55ae64defdf99b3f864653e7,2021-09-27_16h09.33.908,forced_choiceRT_color,2021.2.3,Win32,60.15037594,,,,,,,,9,Slow,long,j,1,2.1534,0,0,0,2,1,,,,,
1.75,,,,,,,,,d,orange,55ae64defdf99b3f864653e7,2021-09-27_16h09.33.908,forced_choiceRT_color,2021.2.3,Win32,60.15037594,,,,,,,,9,Ontime,long,k,0,2.0318,0,1,1,0,1,,,,,
0.97,,,,,,,,,j,red,55ae64defdf99b3f864653e7,2021-09-27_16h09.33.908,forced_choiceRT_color,2021.2.3,Win32,60.15037594,,,,,,,,9,Ontime,long,j,1,1.9772,0,2,2,2,1,,,,,
0.07,,,,,,,,,d,orange,55ae64defdf99b3f864653e7,2021-09-27_16h09.33.908,forced_choiceRT_color,2021.2.3,Win32,60.15037594,,,,,,,,9,Ontime,long,d,1,1.9878,0,3,3,0,1,,,,,
0.78,,,,,,,,,j,red,55ae64defdf99b3f864653e7,2021-09-27_16h09.33.908,forced_choiceRT_color,2021.2.3,Win32,60.15037594,,,,,,,,9,Ontime,long,j,1,1.9573,1,0,4,2,1,,,,,
0.12,,,,,,,,,d,orange,55ae64defdf99b3f864653e7,2021-09-27_16h09.33.908,forced_choiceRT_color,2021.2.3,Win32,60.15037594,,,,,,,,9,Ontime,long,d,1,1.9734,1,1,5,0,1,,,,,
0.06,,,,,,,,,f,blue,55ae64defdf99b3f864653e7,2021-09-27_16h09.33.908,forced_choiceRT_color,2021.2.3,Win32,60.15037594,,,,,,,,9,Ontime,long,j,0,1.9185,1,2,6,1,1,,,,,
1.25,,,,,,,,,d,orange,55ae64defdf99b3f864653e7,2021-09-27_16h09.33.908,forced_choiceRT_color,2021.2.3,Win32,60.15037594,,,,,,,,9,Ontime,long,f,0,1.9158,1,3,7,0,1,,,,,
1.04,,,,,,,,,k,purple,55ae64defdf99b3f864653e7,2021-09-27_16h09.33.908,forced_choiceRT_color,2021.2.3,Win32,60.15037594,,,,,,,,9,Ontime,long,k,1,2.0681,2,0,8,3,1,,,,,
0.99,,,,,,,,,f,blue,55ae64defdf99b3f864653e7,2021-09-27_16h09.33.908,forced_choiceRT_color,2021.2.3,Win32,60.15037594,,,,,,,,9,Ontime,long,f,1,2.0121,2,1,9,1,1,,,,,
0.46,,,,,,,,,k,purple,55ae64defdf99b3f864653e7,2021-09-27_16h09.33.908,forced_choiceRT_color,2021.2.3,Win32,60.15037594,,,,,,,,9,Ontime,long,k,1,1.9245,2,2,10,3,1,,,,,
0.12,,,,,,,,,f,blue,55ae64defdf99b3f864653e7,2021-09-27_16h09.33.908,forced_choiceRT_color,2021.2.3,Win32,60.15037594,,,,,,,,9,Ontime,long,f,1,2.0129,2,3,11,1,1,,,,,
0.95,,,,,,,,,j,red,55ae64defdf99b3f864653e7,2021-09-27_16h09.33.908,forced_choiceRT_color,2021.2.3,Win32,60.15037594,,,,,,,,9,Ontime,long,j,1,2.0239,3,0,12,2,1,,,,,
0.2,,,,,,,,,d,orange,55ae64defdf99b3f864653e7,2021-09-27_16h09.33.908,forced_choiceRT_color,2021.2.3,Win32,60.15037594,,,,,,,,9,Ontime,long,d,1,2.0348,3,1,13,0,1,,,,,
0.25,,,,,,,,,k,purple,55ae64defdf99b3f864653e7,2021-09-27_16h09.33.908,forced_choiceRT_color,2021.2.3,Win32,60.15037594,,,,,,,,9,Ontime,long,k,1,1.901,3,2,14,3,1,,,,,
0.75,,,,,,,,,f,blue,55ae64defdf99b3f864653e7,2021-09-27_16h09.33.908,forced_choiceRT_color,2021.2.3,Win32,60.15037594,,,,,,,,9,Fast,long,f,1,1.8647,3,3,15,1,1,,,,,
1.41,,,,,,,,,d,orange,55ae64defdf99b3f864653e7,2021-09-27_16h09.33.908,forced_choiceRT_color,2021.2.3,Win32,60.15037594,,,,,,,,9,Ontime,long,d,1,2.0516,4,0,16,0,1,,,,,
0.31,,,,,,,,,d,orange,55ae64defdf99b3f864653e7,2021-09-27_16h09.33.908,forced_choiceRT_color,2021.2.3,Win32,60.15037594,,,,,,,,9,Ontime,long,d,1,1.9336,4,1,17,0,1,,,,,
1.21,,,,,,,,,j,red,55ae64defdf99b3f864653e7,2021-09-27_16h09.33.908,forced_choiceRT_color,2021.2.3,Win32,60.15037594,,,,,,,,9,Ontime,long,j,1,1.9251,4,2,18,2,1,,,,,
1.37,,,,,,,,,f,blue,55ae64defdf99b3f864653e7,2021-09-27_16h09.33.908,forced_choiceRT_color,2021.2.3,Win32,60.15037594,,,,,,,,9,Ontime,long,f,1,1.9645,4,3,19,1,1,,,,,
0.78,,,,,,,,,j,red,55ae64defdf99b3f864653e7,2021-09-27_16h09.33.908,forced_choiceRT_color,2021.2.3,Win32,60.15037594,,,,,,,,9,Fast,long,j,1,1.8647,5,0,20,2,1,,,,,
1.05,,,,,,,,,d,orange,55ae64defdf99b3f864653e7,2021-09-27_16h09.33.908,forced_choiceRT_color,2021.2.3,Win32,60.15037594,,,,,,,,9,Ontime,long,d,1,1.9952,5,1,21,0,1,,,,,
1.72,,,,,,,,,j,red,55ae64defdf99b3f864653e7,2021-09-27_16h09.33.908,forced_choiceRT_color,2021.2.3,Win32,60.15037594,,,,,,,,9,Slow,long,j,1,2.2529,5,2,22,2,1,,,,,
0.94,,,,,,,,,k,purple,55ae64defdf99b3f864653e7,2021-09-27_16h09.33.908,forced_choiceRT_color,2021.2.3,Win32,60.15037594,,,,,,,,9,Ontime,long,k,1,1.9937,5,3,23,3,1,,,,,
1.84,,,,,,,,,f,blue,55ae64defdf99b3f864653e7,2021-09-27_16h09.33.908,forced_choiceRT_color,2021.2.3,Win32,60.15037594,,,,,,,,9,Slow,long,j,0,2.3726,6,0,24,1,1,,,,,
0.45,,,,,,,,,d,orange,55ae64defdf99b3f864653e7,2021-09-27_16h09.33.908,forced_choiceRT_color,2021.2.3,Win32,60.15037594,,,,,,,,9,Ontime,long,d,1,1.9886,6,1,25,0,1,,,,,
1.94,,,,,,,,,k,purple,55ae64defdf99b3f864653e7,2021-09-27_16h09.33.908,forced_choiceRT_color,2021.2.3,Win32,60.15037594,,,,,,,,9,Slow,long,j,0,2.2804,6,2,26,3,1,,,,,
1.6,,,,,,,,,k,purple,55ae64defdf99b3f864653e7,2021-09-27_16h09.33.908,forced_choiceRT_color,2021.2.3,Win32,60.15037594,,,,,,,,9,Slow,long,k,1,2.2158,6,3,27,3,1,,,,,
0.04,,,,,,,,,j,red,55ae64defdf99b3f864653e7,2021-09-27_16h09.33.908,forced_choiceRT_color,2021.2.3,Win32,60.15037594,,,,,,,,9,Fast,long,j,1,1.8554,7,0,28,2,1,,,,,
0.26,,,,,,,,,f,blue,55ae64defdf99b3f864653e7,2021-09-27_16h09.33.908,forced_choiceRT_color,2021.2.3,Win32,60.15037594,,,,,,,,9,Ontime,long,f,1,2.0017,7,1,29,1,1,,,,,
1.48,,,,,,,,,k,purple,55ae64defdf99b3f864653e7,2021-09-27_16h09.33.908,forced_choiceRT_color,2021.2.3,Win32,60.15037594,,,,,,,,9,Slow,long,k,1,2.1332,7,2,30,3,1,,,,,
0.22,,,,,,,,,j,red,55ae64defdf99b3f864653e7,2021-09-27_16h09.33.908,forced_choiceRT_color,2021.2.3,Win32,60.15037594,,,,,,,,9,Fast,long,j,1,1.8511,7,3,31,2,1,,,,,
0.75,,,,,,,,,k,purple,55ae64defdf99b3f864653e7,2021-09-27_16h09.33.908,forced_choiceRT_color,2021.2.3,Win32,60.15037594,,,,,,,,9,Ontime,long,k,1,1.9411,8,0,32,3,1,,,,,
0.59,,,,,,,,,f,blue,55ae64defdf99b3f864653e7,2021-09-27_16h09.33.908,forced_choiceRT_color,2021.2.3,Win32,60.15037594,,,,,,,,9,Ontime,long,f,1,1.9639,8,1,33,1,1,,,,,
0.83,,,,,,,,,f,blue,55ae64defdf99b3f864653e7,2021-09-27_16h09.33.908,forced_choiceRT_color,2021.2.3,Win32,60.15037594,,,,,,,,9,Ontime,long,f,1,2.0478,8,2,34,1,1,,,,,
0.57,,,,,,,,,k,purple,55ae64defdf99b3f864653e7,2021-09-27_16h09.33.908,forced_choiceRT_color,2021.2.3,Win32,60.15037594,,,,,,,,9,Ontime,long,k,1,1.9483,8,3,35,3,1,,,,,
0.83,,,,,,,,,j,red,55ae64defdf99b3f864653e7,2021-09-27_16h09.33.908,forced_choiceRT_color,2021.2.3,Win32,60.15037594,,,,,,,,9,Fast,long,j,1,1.8142,9,0,36,2,1,,,,,
1.2,,,,,,,,,k,purple,55ae64defdf99b3f864653e7,2021-09-27_16h09.33.908,forced_choiceRT_color,2021.2.3,Win32,60.15037594,,,,,,,,9,Ontime,long,k,1,1.9469,9,1,37,3,1,,,,,
1.88,,,,,,,,,d,orange,55ae64defdf99b3f864653e7,2021-09-27_16h09.33.908,forced_choiceRT_color,2021.2.3,Win32,60.15037594,,,,,,,,9,Slow,long,k,0,2.1601,9,2,38,0,1,,,,,
1.56,,,,,,,,,f,blue,55ae64defdf99b3f864653e7,2021-09-27_16h09.33.908,forced_choiceRT_color,2021.2.3,Win32,60.15037594,,,,,,,,9,Slow,long,f,1,2.1307,9,3,39,1,1,,,,,
,,,,,,,,,,,55ae64defdf99b3f864653e7,2021-09-27_16h09.33.908,forced_choiceRT_color,2021.2.3,Win32,60.15037594,,,,,,,,,,,,,,,,,,,8,0,8,0,1
1.64,,,,,,,,,k,purple,55ae64defdf99b3f864653e7,2021-09-27_16h09.33.908,forced_choiceRT_color,2021.2.3,Win32,60.15037594,,,,,,,,10,Slow,long,k,1,2.1163,0,0,0,3,1,,,,,
1.75,,,,,,,,,d,orange,55ae64defdf99b3f864653e7,2021-09-27_16h09.33.908,forced_choiceRT_color,2021.2.3,Win32,60.15037594,,,,,,,,10,Slow,long,d,1,2.35,0,1,1,0,1,,,,,
1.24,,,,,,,,,k,purple,55ae64defdf99b3f864653e7,2021-09-27_16h09.33.908,forced_choiceRT_color,2021.2.3,Win32,60.15037594,,,,,,,,10,Fast,long,k,1,1.8147,0,2,2,3,1,,,,,
1.98,,,,,,,,,f,blue,55ae64defdf99b3f864653e7,2021-09-27_16h09.33.908,forced_choiceRT_color,2021.2.3,Win32,60.15037594,,,,,,,,10,Slow,long,f,1,2.5108,0,3,3,1,1,,,,,
0.03,,,,,,,,,j,red,55ae64defdf99b3f864653e7,2021-09-27_16h09.33.908,forced_choiceRT_color,2021.2.3,Win32,60.15037594,,,,,,,,10,Fast,long,j,1,1.8944,1,0,4,2,1,,,,,
0.56,,,,,,,,,d,orange,55ae64defdf99b3f864653e7,2021-09-27_16h09.33.908,forced_choiceRT_color,2021.2.3,Win32,60.15037594,,,,,,,,10,Fast,long,d,1,1.8952,1,1,5,0,1,,,,,
0.7,,,,,,,,,d,orange,55ae64defdf99b3f864653e7,2021-09-27_16h09.33.908,forced_choiceRT_color,2021.2.3,Win32,60.15037594,,,,,,,,10,Ontime,long,d,1,1.9612,1,2,6,0,1,,,,,
0.73,,,,,,,,,k,purple,55ae64defdf99b3f864653e7,2021-09-27_16h09.33.908,forced_choiceRT_color,2021.2.3,Win32,60.15037594,,,,,,,,10,Ontime,long,j,0,1.9809,1,3,7,3,1,,,,,
1.17,,,,,,,,,k,purple,55ae64defdf99b3f864653e7,2021-09-27_16h09.33.908,forced_choiceRT_color,2021.2.3,Win32,60.15037594,,,,,,,,10,Ontime,long,k,1,1.9628,2,0,8,3,1,,,,,
1.98,,,,,,,,,d,orange,55ae64defdf99b3f864653e7,2021-09-27_16h09.33.908,forced_choiceRT_color,2021.2.3,Win32,60.15037594,,,,,,,,10,Slow,long,d,1,2.5322,2,1,9,0,1,,,,,
0.84,,,,,,,,,f,blue,55ae64defdf99b3f864653e7,2021-09-27_16h09.33.908,forced_choiceRT_color,2021.2.3,Win32,60.15037594,,,,,,,,10,Fast,long,f,1,1.7654,2,2,10,1,1,,,,,
0.17,,,,,,,,,f,blue,55ae64defdf99b3f864653e7,2021-09-27_16h09.33.908,forced_choiceRT_color,2021.2.3,Win32,60.15037594,,,,,,,,10,Ontime,long,f,1,1.9311,2,3,11,1,1,,,,,
1.17,,,,,,,,,f,blue,55ae64defdf99b3f864653e7,2021-09-27_16h09.33.908,forced_choiceRT_color,2021.2.3,Win32,60.15037594,,,,,,,,10,Ontime,long,f,1,2.0017,3,0,12,1,1,,,,,
0.41,,,,,,,,,f,blue,55ae64defdf99b3f864653e7,2021-09-27_16h09.33.908,forced_choiceRT_color,2021.2.3,Win32,60.15037594,,,,,,,,10,Ontime,long,f,1,1.9281,3,1,13,1,1,,,,,
0.62,,,,,,,,,j,red,55ae64defdf99b3f864653e7,2021-09-27_16h09.33.908,forced_choiceRT_color,2021.2.3,Win32,60.15037594,,,,,,,,10,Ontime,long,j,1,1.98,3,2,14,2,1,,,,,
1.41,,,,,,,,,d,orange,55ae64defdf99b3f864653e7,2021-09-27_16h09.33.908,forced_choiceRT_color,2021.2.3,Win32,60.15037594,,,,,,,,10,Ontime,long,k,0,2.0141,3,3,15,0,1,,,,,
1.45,,,,,,,,,d,orange,55ae64defdf99b3f864653e7,2021-09-27_16h09.33.908,forced_choiceRT_color,2021.2.3,Win32,60.15037594,,,,,,,,10,Ontime,long,d,1,1.9803,4,0,16,0,1,,,,,
0.73,,,,,,,,,d,orange,55ae64defdf99b3f864653e7,2021-09-27_16h09.33.908,forced_choiceRT_color,2021.2.3,Win32,60.15037594,,,,,,,,10,Ontime,long,d,1,1.9804,4,1,17,0,1,,,,,
1.13,,,,,,,,,j,red,55ae64defdf99b3f864653e7,2021-09-27_16h09.33.908,forced_choiceRT_color,2021.2.3,Win32,60.15037594,,,,,,,,10,Fast,long,j,1,1.899,4,2,18,2,1,,,,,
1.69,,,,,,,,,f,blue,55ae64defdf99b3f864653e7,2021-09-27_16h09.33.908,forced_choiceRT_color,2021.2.3,Win32,60.15037594,,,,,,,,10,Slow,long,f,1,2.2832,4,3,19,1,1,,,,,
1.15,,,,,,,,,j,red,55ae64defdf99b3f864653e7,2021-09-27_16h09.33.908,forced_choiceRT_color,2021.2.3,Win32,60.15037594,,,,,,,,10,Ontime,long,j,1,1.9792,5,0,20,2,1,,,,,
1.75,,,,,,,,,d,orange,55ae64defdf99b3f864653e7,2021-09-27_16h09.33.908,forced_choiceRT_color,2021.2.3,Win32,60.15037594,,,,,,,,10,Slow,long,d,1,2.1992,5,1,21,0,1,,,,,
0.64,,,,,,,,,k,purple,55ae64defdf99b3f864653e7,2021-09-27_16h09.33.908,forced_choiceRT_color,2021.2.3,Win32,60.15037594,,,,,,,,10,Ontime,long,k,1,1.9135,5,2,22,3,1,,,,,
1.78,,,,,,,,,j,red,55ae64defdf99b3f864653e7,2021-09-27_16h09.33.908,forced_choiceRT_color,2021.2.3,Win32,60.15037594,,,,,,,,10,Slow,long,j,1,2.3811,5,3,23,2,1,,,,,
0.29,,,,,,,,,k,purple,55ae64defdf99b3f864653e7,2021-09-27_16h09.33.908,forced_choiceRT_color,2021.2.3,Win32,60.15037594,,,,,,,,10,Ontime,long,k,1,1.9451,6,0,24,3,1,,,,,
0.55,,,,,,,,,f,blue,55ae64defdf99b3f864653e7,2021-09-27_16h09.33.908,forced_choiceRT_color,2021.2.3,Win32,60.15037594,,,,,,,,10,Ontime,long,f,1,1.9831,6,1,25,1,1,,,,,
0.47,,,,,,,,,j,red,55ae64defdf99b3f864653e7,2021-09-27_16h09.33.908,forced_choiceRT_color,2021.2.3,Win32,60.15037594,,,,,,,,10,Ontime,long,j,1,1.9831,6,2,26,2,1,,,,,
0.77,,,,,,,,,j,red,55ae64defdf99b3f864653e7,2021-09-27_16h09.33.908,forced_choiceRT_color,2021.2.3,Win32,60.15037594,,,,,,,,10,Ontime,long,j,1,2.0078,6,3,27,2,1,,,,,
1.88,,,,,,,,,k,purple,55ae64defdf99b3f864653e7,2021-09-27_16h09.33.908,forced_choiceRT_color,2021.2.3,Win32,60.15037594,,,,,,,,10,Slow,long,k,1,2.464,7,0,28,3,1,,,,,
0.57,,,,,,,,,j,red,55ae64defdf99b3f864653e7,2021-09-27_16h09.33.908,forced_choiceRT_color,2021.2.3,Win32,60.15037594,,,,,,,,10,Ontime,long,j,1,1.9567,7,1,29,2,1,,,,,
1.97,,,,,,,,,j,red,55ae64defdf99b3f864653e7,2021-09-27_16h09.33.908,forced_choiceRT_color,2021.2.3,Win32,60.15037594,,,,,,,,10,Slow,long,j,1,2.5965,7,2,30,2,1,,,,,
1.85,,,,,,,,,k,purple,55ae64defdf99b3f864653e7,2021-09-27_16h09.33.908,forced_choiceRT_color,2021.2.3,Win32,60.15037594,,,,,,,,10,Slow,long,j,0,2.2937,7,3,31,3,1,,,,,
1.98,,,,,,,,,k,purple,55ae64defdf99b3f864653e7,2021-09-27_16h09.33.908,forced_choiceRT_color,2021.2.3,Win32,60.15037594,,,,,,,,10,Slow,long,k,1,2.3262,8,0,32,3,1,,,,,
0.46,,,,,,,,,d,orange,55ae64defdf99b3f864653e7,2021-09-27_16h09.33.908,forced_choiceRT_color,2021.2.3,Win32,60.15037594,,,,,,,,10,Ontime,long,d,1,1.908,8,1,33,0,1,,,,,
1.88,,,,,,,,,f,blue,55ae64defdf99b3f864653e7,2021-09-27_16h09.33.908,forced_choiceRT_color,2021.2.3,Win32,60.15037594,,,,,,,,10,Slow,long,j,0,2.394,8,2,34,1,1,,,,,
1.84,,,,,,,,,f,blue,55ae64defdf99b3f864653e7,2021-09-27_16h09.33.908,forced_choiceRT_color,2021.2.3,Win32,60.15037594,,,,,,,,10,Slow,long,f,1,2.3196,8,3,35,1,1,,,,,
0.33,,,,,,,,,k,purple,55ae64defdf99b3f864653e7,2021-09-27_16h09.33.908,forced_choiceRT_color,2021.2.3,Win32,60.15037594,,,,,,,,10,Ontime,long,k,1,2.0128,9,0,36,3,1,,,,,
1.53,,,,,,,,,j,red,55ae64defdf99b3f864653e7,2021-09-27_16h09.33.908,forced_choiceRT_color,2021.2.3,Win32,60.15037594,,,,,,,,10,Ontime,long,j,1,2.0588,9,1,37,2,1,,,,,
1.37,,,,,,,,,d,orange,55ae64defdf99b3f864653e7,2021-09-27_16h09.33.908,forced_choiceRT_color,2021.2.3,Win32,60.15037594,,,,,,,,10,Ontime,long,f,0,1.9412,9,2,38,0,1,,,,,
1.3,,,,,,,,,f,blue,55ae64defdf99b3f864653e7,2021-09-27_16h09.33.908,forced_choiceRT_color,2021.2.3,Win32,60.15037594,,,,,,,,10,Fast,long,f,1,1.88,9,3,39,1,1,,,,,
,,,,,,,,,,,55ae64defdf99b3f864653e7,2021-09-27_16h09.33.908,forced_choiceRT_color,2021.2.3,Win32,60.15037594,,,,,,,,,,,,,,,,,,,9,0,9,0,1
