IP_Addresss,target_onset,trial_resp_sp.keys,trial_resp_sp.corr,trial_resp_sp.rt,trials_train_loop.thisRepN,trials_train_loop.thisTrialN,trials_train_loop.thisN,trials_train_loop.thisIndex,trials_train_loop.ran,correct_key,color,participant,date,expName,psychopyVersion,OS,frameRate,trial_resp_timing.keys,trial_resp_timing.rt,trials_train_timing.thisRepN,trials_train_timing.thisTrialN,trials_train_timing.thisN,trials_train_timing.thisIndex,trials_train_timing.ran,block_id,ontime,feedback_cond,forcedRT_resp.keys,forcedRT_resp.corr,forcedRT_resp.rt,trials.thisRepN,trials.thisTrialN,trials.thisN,trials.thisIndex,trials.ran,blocks.thisRepN,blocks.thisTrialN,blocks.thisN,blocks.thisIndex,blocks.ran
160.3.219.12,0,d,1,0.7768,0,0,0,0,1,d,orange,5798be2b913c710001976173,2021-09-27_12h45.29.527,forced_choiceRT_color,2021.2.3,Win32,59.93766483,,,,,,,,,,,,,,,,,,,,,,,
,0,f,1,0.7316,0,1,1,1,1,f,blue,5798be2b913c710001976173,2021-09-27_12h45.29.527,forced_choiceRT_color,2021.2.3,Win32,59.93766483,,,,,,,,,,,,,,,,,,,,,,,
,0,f,1,0.6289,0,2,2,1,1,f,blue,5798be2b913c710001976173,2021-09-27_12h45.29.527,forced_choiceRT_color,2021.2.3,Win32,59.93766483,,,,,,,,,,,,,,,,,,,,,,,
,0,d,1,0.5699,0,3,3,0,1,d,orange,5798be2b913c710001976173,2021-09-27_12h45.29.527,forced_choiceRT_color,2021.2.3,Win32,59.93766483,,,,,,,,,,,,,,,,,,,,,,,
,0,f,1,0.6241,1,0,4,1,1,f,blue,5798be2b913c710001976173,2021-09-27_12h45.29.527,forced_choiceRT_color,2021.2.3,Win32,59.93766483,,,,,,,,,,,,,,,,,,,,,,,
,0,d,1,0.4668,1,1,5,0,1,d,orange,5798be2b913c710001976173,2021-09-27_12h45.29.527,forced_choiceRT_color,2021.2.3,Win32,59.93766483,,,,,,,,,,,,,,,,,,,,,,,
,0,d,1,0.4279,1,2,6,0,1,d,orange,5798be2b913c710001976173,2021-09-27_12h45.29.527,forced_choiceRT_color,2021.2.3,Win32,59.93766483,,,,,,,,,,,,,,,,,,,,,,,
,0,f,1,0.51,1,3,7,1,1,f,blue,5798be2b913c710001976173,2021-09-27_12h45.29.527,forced_choiceRT_color,2021.2.3,Win32,59.93766483,,,,,,,,,,,,,,,,,,,,,,,
,0,j,1,0.6021,2,0,8,2,1,j,red,5798be2b913c710001976173,2021-09-27_12h45.29.527,forced_choiceRT_color,2021.2.3,Win32,59.93766483,,,,,,,,,,,,,,,,,,,,,,,
,0,k,1,0.4262,2,1,9,3,1,k,purple,5798be2b913c710001976173,2021-09-27_12h45.29.527,forced_choiceRT_color,2021.2.3,Win32,59.93766483,,,,,,,,,,,,,,,,,,,,,,,
,0,d,1,0.5003,2,2,10,0,1,d,orange,5798be2b913c710001976173,2021-09-27_12h45.29.527,forced_choiceRT_color,2021.2.3,Win32,59.93766483,,,,,,,,,,,,,,,,,,,,,,,
,0,d,1,0.4108,2,3,11,0,1,d,orange,5798be2b913c710001976173,2021-09-27_12h45.29.527,forced_choiceRT_color,2021.2.3,Win32,59.93766483,,,,,,,,,,,,,,,,,,,,,,,
,0,d,1,0.3572,3,0,12,0,1,d,orange,5798be2b913c710001976173,2021-09-27_12h45.29.527,forced_choiceRT_color,2021.2.3,Win32,59.93766483,,,,,,,,,,,,,,,,,,,,,,,
,0,f,1,0.5609,3,1,13,1,1,f,blue,5798be2b913c710001976173,2021-09-27_12h45.29.527,forced_choiceRT_color,2021.2.3,Win32,59.93766483,,,,,,,,,,,,,,,,,,,,,,,
,0,k,1,0.626,3,2,14,3,1,k,purple,5798be2b913c710001976173,2021-09-27_12h45.29.527,forced_choiceRT_color,2021.2.3,Win32,59.93766483,,,,,,,,,,,,,,,,,,,,,,,
,0,d,1,0.7024,3,3,15,0,1,d,orange,5798be2b913c710001976173,2021-09-27_12h45.29.527,forced_choiceRT_color,2021.2.3,Win32,59.93766483,,,,,,,,,,,,,,,,,,,,,,,
,0,f,1,0.5193,4,0,16,1,1,f,blue,5798be2b913c710001976173,2021-09-27_12h45.29.527,forced_choiceRT_color,2021.2.3,Win32,59.93766483,,,,,,,,,,,,,,,,,,,,,,,
,0,k,1,0.5481,4,1,17,3,1,k,purple,5798be2b913c710001976173,2021-09-27_12h45.29.527,forced_choiceRT_color,2021.2.3,Win32,59.93766483,,,,,,,,,,,,,,,,,,,,,,,
,0,d,1,0.5038,4,2,18,0,1,d,orange,5798be2b913c710001976173,2021-09-27_12h45.29.527,forced_choiceRT_color,2021.2.3,Win32,59.93766483,,,,,,,,,,,,,,,,,,,,,,,
,0,k,1,0.5374,4,3,19,3,1,k,purple,5798be2b913c710001976173,2021-09-27_12h45.29.527,forced_choiceRT_color,2021.2.3,Win32,59.93766483,,,,,,,,,,,,,,,,,,,,,,,
,0,j,1,0.5689,5,0,20,2,1,j,red,5798be2b913c710001976173,2021-09-27_12h45.29.527,forced_choiceRT_color,2021.2.3,Win32,59.93766483,,,,,,,,,,,,,,,,,,,,,,,
,0,k,1,0.5033,5,1,21,3,1,k,purple,5798be2b913c710001976173,2021-09-27_12h45.29.527,forced_choiceRT_color,2021.2.3,Win32,59.93766483,,,,,,,,,,,,,,,,,,,,,,,
,0,k,1,0.4346,5,2,22,3,1,k,purple,5798be2b913c710001976173,2021-09-27_12h45.29.527,forced_choiceRT_color,2021.2.3,Win32,59.93766483,,,,,,,,,,,,,,,,,,,,,,,
,0,j,1,0.5203,5,3,23,2,1,j,red,5798be2b913c710001976173,2021-09-27_12h45.29.527,forced_choiceRT_color,2021.2.3,Win32,59.93766483,,,,,,,,,,,,,,,,,,,,,,,
,0,d,0,0.506,6,0,24,1,1,f,blue,5798be2b913c710001976173,2021-09-27_12h45.29.527,forced_choiceRT_color,2021.2.3,Win32,59.93766483,,,,,,,,,,,,,,,,,,,,,,,
,0,j,1,0.5822,6,1,25,2,1,j,red,5798be2b913c710001976173,2021-09-27_12h45.29.527,forced_choiceRT_color,2021.2.3,Win32,59.93766483,,,,,,,,,,,,,,,,,,,,,,,
,0,j,1,0.46,6,2,26,2,1,j,red,5798be2b913c710001976173,2021-09-27_12h45.29.527,forced_choiceRT_color,2021.2.3,Win32,59.93766483,,,,,,,,,,,,,,,,,,,,,,,
,0,j,1,0.331,6,3,27,2,1,j,red,5798be2b913c710001976173,2021-09-27_12h45.29.527,forced_choiceRT_color,2021.2.3,Win32,59.93766483,,,,,,,,,,,,,,,,,,,,,,,
,0,f,1,0.5552,7,0,28,1,1,f,blue,5798be2b913c710001976173,2021-09-27_12h45.29.527,forced_choiceRT_color,2021.2.3,Win32,59.93766483,,,,,,,,,,,,,,,,,,,,,,,
,0,j,1,0.549,7,1,29,2,1,j,red,5798be2b913c710001976173,2021-09-27_12h45.29.527,forced_choiceRT_color,2021.2.3,Win32,59.93766483,,,,,,,,,,,,,,,,,,,,,,,
,0,f,1,0.5646,7,2,30,1,1,f,blue,5798be2b913c710001976173,2021-09-27_12h45.29.527,forced_choiceRT_color,2021.2.3,Win32,59.93766483,,,,,,,,,,,,,,,,,,,,,,,
,0,k,1,0.5061,7,3,31,3,1,k,purple,5798be2b913c710001976173,2021-09-27_12h45.29.527,forced_choiceRT_color,2021.2.3,Win32,59.93766483,,,,,,,,,,,,,,,,,,,,,,,
,0,f,1,0.6241,8,0,32,1,1,f,blue,5798be2b913c710001976173,2021-09-27_12h45.29.527,forced_choiceRT_color,2021.2.3,Win32,59.93766483,,,,,,,,,,,,,,,,,,,,,,,
,0,j,1,0.5702,8,1,33,2,1,j,red,5798be2b913c710001976173,2021-09-27_12h45.29.527,forced_choiceRT_color,2021.2.3,Win32,59.93766483,,,,,,,,,,,,,,,,,,,,,,,
,0,d,1,0.5025,8,2,34,0,1,d,orange,5798be2b913c710001976173,2021-09-27_12h45.29.527,forced_choiceRT_color,2021.2.3,Win32,59.93766483,,,,,,,,,,,,,,,,,,,,,,,
,0,f,1,0.5754,8,3,35,1,1,f,blue,5798be2b913c710001976173,2021-09-27_12h45.29.527,forced_choiceRT_color,2021.2.3,Win32,59.93766483,,,,,,,,,,,,,,,,,,,,,,,
,0,d,1,0.516,9,0,36,0,1,d,orange,5798be2b913c710001976173,2021-09-27_12h45.29.527,forced_choiceRT_color,2021.2.3,Win32,59.93766483,,,,,,,,,,,,,,,,,,,,,,,
,0,d,1,0.4902,9,1,37,0,1,d,orange,5798be2b913c710001976173,2021-09-27_12h45.29.527,forced_choiceRT_color,2021.2.3,Win32,59.93766483,,,,,,,,,,,,,,,,,,,,,,,
,0,j,0,0.4651,9,2,38,1,1,f,blue,5798be2b913c710001976173,2021-09-27_12h45.29.527,forced_choiceRT_color,2021.2.3,Win32,59.93766483,,,,,,,,,,,,,,,,,,,,,,,
,0,j,1,0.4701,9,3,39,2,1,j,red,5798be2b913c710001976173,2021-09-27_12h45.29.527,forced_choiceRT_color,2021.2.3,Win32,59.93766483,,,,,,,,,,,,,,,,,,,,,,,
,0,j,1,0.3751,10,0,40,2,1,j,red,5798be2b913c710001976173,2021-09-27_12h45.29.527,forced_choiceRT_color,2021.2.3,Win32,59.93766483,,,,,,,,,,,,,,,,,,,,,,,
,0,j,1,0.3354,10,1,41,2,1,j,red,5798be2b913c710001976173,2021-09-27_12h45.29.527,forced_choiceRT_color,2021.2.3,Win32,59.93766483,,,,,,,,,,,,,,,,,,,,,,,
,0,d,1,0.4714,10,2,42,0,1,d,orange,5798be2b913c710001976173,2021-09-27_12h45.29.527,forced_choiceRT_color,2021.2.3,Win32,59.93766483,,,,,,,,,,,,,,,,,,,,,,,
,0,k,1,0.4191,10,3,43,3,1,k,purple,5798be2b913c710001976173,2021-09-27_12h45.29.527,forced_choiceRT_color,2021.2.3,Win32,59.93766483,,,,,,,,,,,,,,,,,,,,,,,
,0,f,1,0.472,11,0,44,1,1,f,blue,5798be2b913c710001976173,2021-09-27_12h45.29.527,forced_choiceRT_color,2021.2.3,Win32,59.93766483,,,,,,,,,,,,,,,,,,,,,,,
,0,d,1,0.5014,11,1,45,0,1,d,orange,5798be2b913c710001976173,2021-09-27_12h45.29.527,forced_choiceRT_color,2021.2.3,Win32,59.93766483,,,,,,,,,,,,,,,,,,,,,,,
,0,k,1,0.5231,11,2,46,3,1,k,purple,5798be2b913c710001976173,2021-09-27_12h45.29.527,forced_choiceRT_color,2021.2.3,Win32,59.93766483,,,,,,,,,,,,,,,,,,,,,,,
,0,k,1,0.3709,11,3,47,3,1,k,purple,5798be2b913c710001976173,2021-09-27_12h45.29.527,forced_choiceRT_color,2021.2.3,Win32,59.93766483,,,,,,,,,,,,,,,,,,,,,,,
,0,f,1,0.4528,12,0,48,1,1,f,blue,5798be2b913c710001976173,2021-09-27_12h45.29.527,forced_choiceRT_color,2021.2.3,Win32,59.93766483,,,,,,,,,,,,,,,,,,,,,,,
,0,d,1,0.4592,12,1,49,0,1,d,orange,5798be2b913c710001976173,2021-09-27_12h45.29.527,forced_choiceRT_color,2021.2.3,Win32,59.93766483,,,,,,,,,,,,,,,,,,,,,,,
,0,k,0,0.4365,12,2,50,2,1,j,red,5798be2b913c710001976173,2021-09-27_12h45.29.527,forced_choiceRT_color,2021.2.3,Win32,59.93766483,,,,,,,,,,,,,,,,,,,,,,,
,0,k,1,0.4108,12,3,51,3,1,k,purple,5798be2b913c710001976173,2021-09-27_12h45.29.527,forced_choiceRT_color,2021.2.3,Win32,59.93766483,,,,,,,,,,,,,,,,,,,,,,,
,0,j,1,0.5224,13,0,52,2,1,j,red,5798be2b913c710001976173,2021-09-27_12h45.29.527,forced_choiceRT_color,2021.2.3,Win32,59.93766483,,,,,,,,,,,,,,,,,,,,,,,
,0,j,1,0.3702,13,1,53,2,1,j,red,5798be2b913c710001976173,2021-09-27_12h45.29.527,forced_choiceRT_color,2021.2.3,Win32,59.93766483,,,,,,,,,,,,,,,,,,,,,,,
,0,f,1,0.3959,13,2,54,1,1,f,blue,5798be2b913c710001976173,2021-09-27_12h45.29.527,forced_choiceRT_color,2021.2.3,Win32,59.93766483,,,,,,,,,,,,,,,,,,,,,,,
,0,k,1,0.4652,13,3,55,3,1,k,purple,5798be2b913c710001976173,2021-09-27_12h45.29.527,forced_choiceRT_color,2021.2.3,Win32,59.93766483,,,,,,,,,,,,,,,,,,,,,,,
,0,k,1,0.3898,14,0,56,3,1,k,purple,5798be2b913c710001976173,2021-09-27_12h45.29.527,forced_choiceRT_color,2021.2.3,Win32,59.93766483,,,,,,,,,,,,,,,,,,,,,,,
,0,j,1,0.5224,14,1,57,2,1,j,red,5798be2b913c710001976173,2021-09-27_12h45.29.527,forced_choiceRT_color,2021.2.3,Win32,59.93766483,,,,,,,,,,,,,,,,,,,,,,,
,0,k,1,0.5058,14,2,58,3,1,k,purple,5798be2b913c710001976173,2021-09-27_12h45.29.527,forced_choiceRT_color,2021.2.3,Win32,59.93766483,,,,,,,,,,,,,,,,,,,,,,,
,0,k,1,0.4042,14,3,59,3,1,k,purple,5798be2b913c710001976173,2021-09-27_12h45.29.527,forced_choiceRT_color,2021.2.3,Win32,59.93766483,,,,,,,,,,,,,,,,,,,,,,,
,,,,,,,,,,,,5798be2b913c710001976173,2021-09-27_12h45.29.527,forced_choiceRT_color,2021.2.3,Win32,59.93766483,j,2.1659,0,0,0,0,1,,,,,,,,,,,,,,,,
,,,,,,,,,,,,5798be2b913c710001976173,2021-09-27_12h45.29.527,forced_choiceRT_color,2021.2.3,Win32,59.93766483,j,1.6994,1,0,1,0,1,,,,,,,,,,,,,,,,
,,,,,,,,,,,,5798be2b913c710001976173,2021-09-27_12h45.29.527,forced_choiceRT_color,2021.2.3,Win32,59.93766483,j,2.0666,2,0,2,0,1,,,,,,,,,,,,,,,,
,,,,,,,,,,,,5798be2b913c710001976173,2021-09-27_12h45.29.527,forced_choiceRT_color,2021.2.3,Win32,59.93766483,j,2.0392,3,0,3,0,1,,,,,,,,,,,,,,,,
,,,,,,,,,,,,5798be2b913c710001976173,2021-09-27_12h45.29.527,forced_choiceRT_color,2021.2.3,Win32,59.93766483,k,2.0838,4,0,4,0,1,,,,,,,,,,,,,,,,
,,,,,,,,,,,,5798be2b913c710001976173,2021-09-27_12h45.29.527,forced_choiceRT_color,2021.2.3,Win32,59.93766483,d,2.0757,5,0,5,0,1,,,,,,,,,,,,,,,,
,,,,,,,,,,,,5798be2b913c710001976173,2021-09-27_12h45.29.527,forced_choiceRT_color,2021.2.3,Win32,59.93766483,f,2.0582,6,0,6,0,1,,,,,,,,,,,,,,,,
,,,,,,,,,,,,5798be2b913c710001976173,2021-09-27_12h45.29.527,forced_choiceRT_color,2021.2.3,Win32,59.93766483,d,2.0788,7,0,7,0,1,,,,,,,,,,,,,,,,
,,,,,,,,,,,,5798be2b913c710001976173,2021-09-27_12h45.29.527,forced_choiceRT_color,2021.2.3,Win32,59.93766483,d,2.1024,8,0,8,0,1,,,,,,,,,,,,,,,,
,,,,,,,,,,,,5798be2b913c710001976173,2021-09-27_12h45.29.527,forced_choiceRT_color,2021.2.3,Win32,59.93766483,f,2.0464,9,0,9,0,1,,,,,,,,,,,,,,,,
,,,,,,,,,,,,5798be2b913c710001976173,2021-09-27_12h45.29.527,forced_choiceRT_color,2021.2.3,Win32,59.93766483,j,2.0541,10,0,10,0,1,,,,,,,,,,,,,,,,
,,,,,,,,,,,,5798be2b913c710001976173,2021-09-27_12h45.29.527,forced_choiceRT_color,2021.2.3,Win32,59.93766483,k,2.1185,11,0,11,0,1,,,,,,,,,,,,,,,,
,,,,,,,,,,,,5798be2b913c710001976173,2021-09-27_12h45.29.527,forced_choiceRT_color,2021.2.3,Win32,59.93766483,k,2.076,12,0,12,0,1,,,,,,,,,,,,,,,,
,,,,,,,,,,,,5798be2b913c710001976173,2021-09-27_12h45.29.527,forced_choiceRT_color,2021.2.3,Win32,59.93766483,k,2.1188,13,0,13,0,1,,,,,,,,,,,,,,,,
,,,,,,,,,,,,5798be2b913c710001976173,2021-09-27_12h45.29.527,forced_choiceRT_color,2021.2.3,Win32,59.93766483,k,2.0436,14,0,14,0,1,,,,,,,,,,,,,,,,
,,,,,,,,,,,,5798be2b913c710001976173,2021-09-27_12h45.29.527,forced_choiceRT_color,2021.2.3,Win32,59.93766483,j,2.0723,15,0,15,0,1,,,,,,,,,,,,,,,,
,,,,,,,,,,,,5798be2b913c710001976173,2021-09-27_12h45.29.527,forced_choiceRT_color,2021.2.3,Win32,59.93766483,d,2.0615,16,0,16,0,1,,,,,,,,,,,,,,,,
,,,,,,,,,,,,5798be2b913c710001976173,2021-09-27_12h45.29.527,forced_choiceRT_color,2021.2.3,Win32,59.93766483,f,2.089,17,0,17,0,1,,,,,,,,,,,,,,,,
,,,,,,,,,,,,5798be2b913c710001976173,2021-09-27_12h45.29.527,forced_choiceRT_color,2021.2.3,Win32,59.93766483,j,2.102,18,0,18,0,1,,,,,,,,,,,,,,,,
,,,,,,,,,,,,5798be2b913c710001976173,2021-09-27_12h45.29.527,forced_choiceRT_color,2021.2.3,Win32,59.93766483,k,2.0367,19,0,19,0,1,,,,,,,,,,,,,,,,
,1.74,,,,,,,,,j,red,5798be2b913c710001976173,2021-09-27_12h45.29.527,forced_choiceRT_color,2021.2.3,Win32,59.93766483,,,,,,,,1,Slow,long,k,0,2.1997,0,0,0,2,1,,,,,
,1.55,,,,,,,,,k,purple,5798be2b913c710001976173,2021-09-27_12h45.29.527,forced_choiceRT_color,2021.2.3,Win32,59.93766483,,,,,,,,1,Ontime,long,k,1,2.0995,0,1,1,3,1,,,,,
,1.09,,,,,,,,,k,purple,5798be2b913c710001976173,2021-09-27_12h45.29.527,forced_choiceRT_color,2021.2.3,Win32,59.93766483,,,,,,,,1,Ontime,long,k,1,2.0229,0,2,2,3,1,,,,,
,1.21,,,,,,,,,f,blue,5798be2b913c710001976173,2021-09-27_12h45.29.527,forced_choiceRT_color,2021.2.3,Win32,59.93766483,,,,,,,,1,Slow,long,d,0,2.1377,0,3,3,1,1,,,,,
,0.24,,,,,,,,,f,blue,5798be2b913c710001976173,2021-09-27_12h45.29.527,forced_choiceRT_color,2021.2.3,Win32,59.93766483,,,,,,,,1,Ontime,long,d,0,2.0947,1,0,4,1,1,,,,,
,1.97,,,,,,,,,j,red,5798be2b913c710001976173,2021-09-27_12h45.29.527,forced_choiceRT_color,2021.2.3,Win32,59.93766483,,,,,,,,1,Slow,long,k,0,2.3102,1,1,5,2,1,,,,,
,1.23,,,,,,,,,f,blue,5798be2b913c710001976173,2021-09-27_12h45.29.527,forced_choiceRT_color,2021.2.3,Win32,59.93766483,,,,,,,,1,Slow,long,d,0,2.1254,1,2,6,1,1,,,,,
,0.62,,,,,,,,,f,blue,5798be2b913c710001976173,2021-09-27_12h45.29.527,forced_choiceRT_color,2021.2.3,Win32,59.93766483,,,,,,,,1,Ontime,long,d,0,2.0752,1,3,7,1,1,,,,,
,0.03,,,,,,,,,j,red,5798be2b913c710001976173,2021-09-27_12h45.29.527,forced_choiceRT_color,2021.2.3,Win32,59.93766483,,,,,,,,1,Ontime,long,j,1,2.0041,2,0,8,2,1,,,,,
,0.07,,,,,,,,,d,orange,5798be2b913c710001976173,2021-09-27_12h45.29.527,forced_choiceRT_color,2021.2.3,Win32,59.93766483,,,,,,,,1,Ontime,long,f,0,2.0416,2,1,9,0,1,,,,,
,1.51,,,,,,,,,k,purple,5798be2b913c710001976173,2021-09-27_12h45.29.527,forced_choiceRT_color,2021.2.3,Win32,59.93766483,,,,,,,,1,Slow,long,k,1,2.2429,2,2,10,3,1,,,,,
,0.18,,,,,,,,,j,red,5798be2b913c710001976173,2021-09-27_12h45.29.527,forced_choiceRT_color,2021.2.3,Win32,59.93766483,,,,,,,,1,Ontime,long,j,1,2.0662,2,3,11,2,1,,,,,
,0.17,,,,,,,,,d,orange,5798be2b913c710001976173,2021-09-27_12h45.29.527,forced_choiceRT_color,2021.2.3,Win32,59.93766483,,,,,,,,1,Ontime,long,d,1,2.0523,3,0,12,0,1,,,,,
,1.01,,,,,,,,,f,blue,5798be2b913c710001976173,2021-09-27_12h45.29.527,forced_choiceRT_color,2021.2.3,Win32,59.93766483,,,,,,,,1,Ontime,long,f,1,2.008,3,1,13,1,1,,,,,
,1.01,,,,,,,,,k,purple,5798be2b913c710001976173,2021-09-27_12h45.29.527,forced_choiceRT_color,2021.2.3,Win32,59.93766483,,,,,,,,1,Ontime,long,k,1,2.0664,3,2,14,3,1,,,,,
,1.24,,,,,,,,,d,orange,5798be2b913c710001976173,2021-09-27_12h45.29.527,forced_choiceRT_color,2021.2.3,Win32,59.93766483,,,,,,,,1,Ontime,long,d,1,2.0011,3,3,15,0,1,,,,,
,0.46,,,,,,,,,k,purple,5798be2b913c710001976173,2021-09-27_12h45.29.527,forced_choiceRT_color,2021.2.3,Win32,59.93766483,,,,,,,,1,Ontime,long,k,1,2.0164,4,0,16,3,1,,,,,
,1.54,,,,,,,,,d,orange,5798be2b913c710001976173,2021-09-27_12h45.29.527,forced_choiceRT_color,2021.2.3,Win32,59.93766483,,,,,,,,1,Slow,long,d,1,2.1353,4,1,17,0,1,,,,,
,1.16,,,,,,,,,j,red,5798be2b913c710001976173,2021-09-27_12h45.29.527,forced_choiceRT_color,2021.2.3,Win32,59.93766483,,,,,,,,1,Slow,long,j,1,2.1315,4,2,18,2,1,,,,,
,1.74,,,,,,,,,f,blue,5798be2b913c710001976173,2021-09-27_12h45.29.527,forced_choiceRT_color,2021.2.3,Win32,59.93766483,,,,,,,,1,Slow,long,d,0,2.1558,4,3,19,1,1,,,,,
,0.42,,,,,,,,,k,purple,5798be2b913c710001976173,2021-09-27_12h45.29.527,forced_choiceRT_color,2021.2.3,Win32,59.93766483,,,,,,,,1,Ontime,long,k,1,2.0413,5,0,20,3,1,,,,,
,0.35,,,,,,,,,j,red,5798be2b913c710001976173,2021-09-27_12h45.29.527,forced_choiceRT_color,2021.2.3,Win32,59.93766483,,,,,,,,1,Ontime,long,j,1,2.0023,5,1,21,2,1,,,,,
,1.08,,,,,,,,,f,blue,5798be2b913c710001976173,2021-09-27_12h45.29.527,forced_choiceRT_color,2021.2.3,Win32,59.93766483,,,,,,,,1,Ontime,long,f,1,2.0371,5,2,22,1,1,,,,,
,1.17,,,,,,,,,k,purple,5798be2b913c710001976173,2021-09-27_12h45.29.527,forced_choiceRT_color,2021.2.3,Win32,59.93766483,,,,,,,,1,Ontime,long,k,1,2.083,5,3,23,3,1,,,,,
,1.77,,,,,,,,,d,orange,5798be2b913c710001976173,2021-09-27_12h45.29.527,forced_choiceRT_color,2021.2.3,Win32,59.93766483,,,,,,,,1,Slow,long,d,1,2.2325,6,0,24,0,1,,,,,
,0.15,,,,,,,,,f,blue,5798be2b913c710001976173,2021-09-27_12h45.29.527,forced_choiceRT_color,2021.2.3,Win32,59.93766483,,,,,,,,1,Ontime,long,f,1,2.054,6,1,25,1,1,,,,,
,0.84,,,,,,,,,d,orange,5798be2b913c710001976173,2021-09-27_12h45.29.527,forced_choiceRT_color,2021.2.3,Win32,59.93766483,,,,,,,,1,Ontime,long,k,0,2.0161,6,2,26,0,1,,,,,
,1.66,,,,,,,,,k,purple,5798be2b913c710001976173,2021-09-27_12h45.29.527,forced_choiceRT_color,2021.2.3,Win32,59.93766483,,,,,,,,1,Slow,long,k,1,2.1654,6,3,27,3,1,,,,,
,0.8,,,,,,,,,j,red,5798be2b913c710001976173,2021-09-27_12h45.29.527,forced_choiceRT_color,2021.2.3,Win32,59.93766483,,,,,,,,1,Ontime,long,j,1,2.0256,7,0,28,2,1,,,,,
,0.46,,,,,,,,,d,orange,5798be2b913c710001976173,2021-09-27_12h45.29.527,forced_choiceRT_color,2021.2.3,Win32,59.93766483,,,,,,,,1,Ontime,long,d,1,2.0359,7,1,29,0,1,,,,,
,1.31,,,,,,,,,k,purple,5798be2b913c710001976173,2021-09-27_12h45.29.527,forced_choiceRT_color,2021.2.3,Win32,59.93766483,,,,,,,,1,Ontime,long,k,1,2.0396,7,2,30,3,1,,,,,
,0.3,,,,,,,,,k,purple,5798be2b913c710001976173,2021-09-27_12h45.29.527,forced_choiceRT_color,2021.2.3,Win32,59.93766483,,,,,,,,1,Ontime,long,k,1,2.0847,7,3,31,3,1,,,,,
,0.55,,,,,,,,,j,red,5798be2b913c710001976173,2021-09-27_12h45.29.527,forced_choiceRT_color,2021.2.3,Win32,59.93766483,,,,,,,,1,Ontime,long,j,1,2.0407,8,0,32,2,1,,,,,
,0.84,,,,,,,,,f,blue,5798be2b913c710001976173,2021-09-27_12h45.29.527,forced_choiceRT_color,2021.2.3,Win32,59.93766483,,,,,,,,1,Ontime,long,f,1,2.0679,8,1,33,1,1,,,,,
,0.75,,,,,,,,,d,orange,5798be2b913c710001976173,2021-09-27_12h45.29.527,forced_choiceRT_color,2021.2.3,Win32,59.93766483,,,,,,,,1,Slow,long,d,1,2.1183,8,2,34,0,1,,,,,
,1.97,,,,,,,,,j,red,5798be2b913c710001976173,2021-09-27_12h45.29.527,forced_choiceRT_color,2021.2.3,Win32,59.93766483,,,,,,,,1,Slow,long,f,0,2.2751,8,3,35,2,1,,,,,
,0.87,,,,,,,,,d,orange,5798be2b913c710001976173,2021-09-27_12h45.29.527,forced_choiceRT_color,2021.2.3,Win32,59.93766483,,,,,,,,1,Ontime,long,d,1,2.003,9,0,36,0,1,,,,,
,0.88,,,,,,,,,f,blue,5798be2b913c710001976173,2021-09-27_12h45.29.527,forced_choiceRT_color,2021.2.3,Win32,59.93766483,,,,,,,,1,Ontime,long,j,0,2.0371,9,1,37,1,1,,,,,
,1.73,,,,,,,,,d,orange,5798be2b913c710001976173,2021-09-27_12h45.29.527,forced_choiceRT_color,2021.2.3,Win32,59.93766483,,,,,,,,1,Slow,long,f,0,2.1987,9,2,38,0,1,,,,,
,0.25,,,,,,,,,j,red,5798be2b913c710001976173,2021-09-27_12h45.29.527,forced_choiceRT_color,2021.2.3,Win32,59.93766483,,,,,,,,1,Slow,long,j,1,2.1065,9,3,39,2,1,,,,,
,,,,,,,,,,,,5798be2b913c710001976173,2021-09-27_12h45.29.527,forced_choiceRT_color,2021.2.3,Win32,59.93766483,,,,,,,,,,,,,,,,,,,0,0,0,0,1
,1.16,,,,,,,,,d,orange,5798be2b913c710001976173,2021-09-27_12h45.29.527,forced_choiceRT_color,2021.2.3,Win32,59.93766483,,,,,,,,2,Ontime,long,d,1,2.0668,0,0,0,0,1,,,,,
,1.8,,,,,,,,,j,red,5798be2b913c710001976173,2021-09-27_12h45.29.527,forced_choiceRT_color,2021.2.3,Win32,59.93766483,,,,,,,,2,Slow,long,k,0,2.2515,0,1,1,2,1,,,,,
,1.29,,,,,,,,,j,red,5798be2b913c710001976173,2021-09-27_12h45.29.527,forced_choiceRT_color,2021.2.3,Win32,59.93766483,,,,,,,,2,Ontime,long,j,1,2.0856,0,2,2,2,1,,,,,
,0.12,,,,,,,,,k,purple,5798be2b913c710001976173,2021-09-27_12h45.29.527,forced_choiceRT_color,2021.2.3,Win32,59.93766483,,,,,,,,2,Slow,long,k,1,2.1166,0,3,3,3,1,,,,,
,0.84,,,,,,,,,j,red,5798be2b913c710001976173,2021-09-27_12h45.29.527,forced_choiceRT_color,2021.2.3,Win32,59.93766483,,,,,,,,2,Ontime,long,j,1,2.0002,1,0,4,2,1,,,,,
,0.08,,,,,,,,,k,purple,5798be2b913c710001976173,2021-09-27_12h45.29.527,forced_choiceRT_color,2021.2.3,Win32,59.93766483,,,,,,,,2,Ontime,long,k,1,2.0257,1,1,5,3,1,,,,,
,1.58,,,,,,,,,k,purple,5798be2b913c710001976173,2021-09-27_12h45.29.527,forced_choiceRT_color,2021.2.3,Win32,59.93766483,,,,,,,,2,Slow,long,k,1,2.1885,1,2,6,3,1,,,,,
,0.32,,,,,,,,,f,blue,5798be2b913c710001976173,2021-09-27_12h45.29.527,forced_choiceRT_color,2021.2.3,Win32,59.93766483,,,,,,,,2,Ontime,long,d,0,2.0038,1,3,7,1,1,,,,,
,0.7,,,,,,,,,f,blue,5798be2b913c710001976173,2021-09-27_12h45.29.527,forced_choiceRT_color,2021.2.3,Win32,59.93766483,,,,,,,,2,Ontime,long,f,1,1.9702,2,0,8,1,1,,,,,
,0.54,,,,,,,,,f,blue,5798be2b913c710001976173,2021-09-27_12h45.29.527,forced_choiceRT_color,2021.2.3,Win32,59.93766483,,,,,,,,2,Slow,long,f,1,2.1004,2,1,9,1,1,,,,,
,0.11,,,,,,,,,k,purple,5798be2b913c710001976173,2021-09-27_12h45.29.527,forced_choiceRT_color,2021.2.3,Win32,59.93766483,,,,,,,,2,Fast,long,k,1,1.7093,2,2,10,3,1,,,,,
,1.05,,,,,,,,,j,red,5798be2b913c710001976173,2021-09-27_12h45.29.527,forced_choiceRT_color,2021.2.3,Win32,59.93766483,,,,,,,,2,Slow,long,j,1,2.1182,2,3,11,2,1,,,,,
,1.84,,,,,,,,,f,blue,5798be2b913c710001976173,2021-09-27_12h45.29.527,forced_choiceRT_color,2021.2.3,Win32,59.93766483,,,,,,,,2,Slow,long,d,0,2.1991,3,0,12,1,1,,,,,
,1.89,,,,,,,,,j,red,5798be2b913c710001976173,2021-09-27_12h45.29.527,forced_choiceRT_color,2021.2.3,Win32,59.93766483,,,,,,,,2,Slow,long,k,0,2.2061,3,1,13,2,1,,,,,
,1.06,,,,,,,,,d,orange,5798be2b913c710001976173,2021-09-27_12h45.29.527,forced_choiceRT_color,2021.2.3,Win32,59.93766483,,,,,,,,2,Ontime,long,d,1,2.0336,3,2,14,0,1,,,,,
,0.88,,,,,,,,,k,purple,5798be2b913c710001976173,2021-09-27_12h45.29.527,forced_choiceRT_color,2021.2.3,Win32,59.93766483,,,,,,,,2,Ontime,long,k,1,1.9814,3,3,15,3,1,,,,,
,0.06,,,,,,,,,k,purple,5798be2b913c710001976173,2021-09-27_12h45.29.527,forced_choiceRT_color,2021.2.3,Win32,59.93766483,,,,,,,,2,Ontime,long,k,1,1.9844,4,0,16,3,1,,,,,
,1.14,,,,,,,,,f,blue,5798be2b913c710001976173,2021-09-27_12h45.29.527,forced_choiceRT_color,2021.2.3,Win32,59.93766483,,,,,,,,2,Ontime,long,d,0,1.9882,4,1,17,1,1,,,,,
,1.22,,,,,,,,,d,orange,5798be2b913c710001976173,2021-09-27_12h45.29.527,forced_choiceRT_color,2021.2.3,Win32,59.93766483,,,,,,,,2,Ontime,long,d,1,1.9856,4,2,18,0,1,,,,,
,1.82,,,,,,,,,j,red,5798be2b913c710001976173,2021-09-27_12h45.29.527,forced_choiceRT_color,2021.2.3,Win32,59.93766483,,,,,,,,2,Slow,long,d,0,2.1391,4,3,19,2,1,,,,,
,1.01,,,,,,,,,j,red,5798be2b913c710001976173,2021-09-27_12h45.29.527,forced_choiceRT_color,2021.2.3,Win32,59.93766483,,,,,,,,2,Fast,long,j,1,1.5487,5,0,20,2,1,,,,,
,1.78,,,,,,,,,f,blue,5798be2b913c710001976173,2021-09-27_12h45.29.527,forced_choiceRT_color,2021.2.3,Win32,59.93766483,,,,,,,,2,Slow,long,j,0,2.2015,5,1,21,1,1,,,,,
,0.62,,,,,,,,,d,orange,5798be2b913c710001976173,2021-09-27_12h45.29.527,forced_choiceRT_color,2021.2.3,Win32,59.93766483,,,,,,,,2,Ontime,long,d,1,1.9655,5,2,22,0,1,,,,,
,1.98,,,,,,,,,j,red,5798be2b913c710001976173,2021-09-27_12h45.29.527,forced_choiceRT_color,2021.2.3,Win32,59.93766483,,,,,,,,2,Ontime,long,k,0,2.058,5,3,23,2,1,,,,,
,0.37,,,,,,,,,k,purple,5798be2b913c710001976173,2021-09-27_12h45.29.527,forced_choiceRT_color,2021.2.3,Win32,59.93766483,,,,,,,,2,Ontime,long,k,1,1.9263,6,0,24,3,1,,,,,
,0.17,,,,,,,,,j,red,5798be2b913c710001976173,2021-09-27_12h45.29.527,forced_choiceRT_color,2021.2.3,Win32,59.93766483,,,,,,,,2,Ontime,long,f,0,2.0101,6,1,25,2,1,,,,,
,1.95,,,,,,,,,k,purple,5798be2b913c710001976173,2021-09-27_12h45.29.527,forced_choiceRT_color,2021.2.3,Win32,59.93766483,,,,,,,,2,Ontime,long,j,0,2.0688,6,2,26,3,1,,,,,
,1.97,,,,,,,,,j,red,5798be2b913c710001976173,2021-09-27_12h45.29.527,forced_choiceRT_color,2021.2.3,Win32,59.93766483,,,,,,,,2,Ontime,long,d,0,2.0747,6,3,27,2,1,,,,,
,1.92,,,,,,,,,d,orange,5798be2b913c710001976173,2021-09-27_12h45.29.527,forced_choiceRT_color,2021.2.3,Win32,59.93766483,,,,,,,,2,Ontime,long,k,0,2.039,7,0,28,0,1,,,,,
,0.86,,,,,,,,,f,blue,5798be2b913c710001976173,2021-09-27_12h45.29.527,forced_choiceRT_color,2021.2.3,Win32,59.93766483,,,,,,,,2,Slow,long,d,0,2.1321,7,1,29,1,1,,,,,
,0.06,,,,,,,,,d,orange,5798be2b913c710001976173,2021-09-27_12h45.29.527,forced_choiceRT_color,2021.2.3,Win32,59.93766483,,,,,,,,2,Ontime,long,d,1,2.0768,7,2,30,0,1,,,,,
,1.24,,,,,,,,,d,orange,5798be2b913c710001976173,2021-09-27_12h45.29.527,forced_choiceRT_color,2021.2.3,Win32,59.93766483,,,,,,,,2,Ontime,long,d,1,1.9705,7,3,31,0,1,,,,,
,1.48,,,,,,,,,d,orange,5798be2b913c710001976173,2021-09-27_12h45.29.527,forced_choiceRT_color,2021.2.3,Win32,59.93766483,,,,,,,,2,Ontime,long,d,1,2.032,8,0,32,0,1,,,,,
,0.51,,,,,,,,,f,blue,5798be2b913c710001976173,2021-09-27_12h45.29.527,forced_choiceRT_color,2021.2.3,Win32,59.93766483,,,,,,,,2,Ontime,long,f,1,1.9516,8,1,33,1,1,,,,,
,1.47,,,,,,,,,f,blue,5798be2b913c710001976173,2021-09-27_12h45.29.527,forced_choiceRT_color,2021.2.3,Win32,59.93766483,,,,,,,,2,Fast,long,j,0,1.7922,8,2,34,1,1,,,,,
,0.37,,,,,,,,,f,blue,5798be2b913c710001976173,2021-09-27_12h45.29.527,forced_choiceRT_color,2021.2.3,Win32,59.93766483,,,,,,,,2,Ontime,long,f,1,2.0007,8,3,35,1,1,,,,,
,0.98,,,,,,,,,k,purple,5798be2b913c710001976173,2021-09-27_12h45.29.527,forced_choiceRT_color,2021.2.3,Win32,59.93766483,,,,,,,,2,Ontime,long,k,1,1.952,9,0,36,3,1,,,,,
,1.61,,,,,,,,,d,orange,5798be2b913c710001976173,2021-09-27_12h45.29.527,forced_choiceRT_color,2021.2.3,Win32,59.93766483,,,,,,,,2,Slow,long,d,1,2.1078,9,1,37,0,1,,,,,
,1.15,,,,,,,,,d,orange,5798be2b913c710001976173,2021-09-27_12h45.29.527,forced_choiceRT_color,2021.2.3,Win32,59.93766483,,,,,,,,2,Ontime,long,d,1,1.9838,9,2,38,0,1,,,,,
,1.35,,,,,,,,,k,purple,5798be2b913c710001976173,2021-09-27_12h45.29.527,forced_choiceRT_color,2021.2.3,Win32,59.93766483,,,,,,,,2,Ontime,long,k,1,1.969,9,3,39,3,1,,,,,
,,,,,,,,,,,,5798be2b913c710001976173,2021-09-27_12h45.29.527,forced_choiceRT_color,2021.2.3,Win32,59.93766483,,,,,,,,,,,,,,,,,,,1,0,1,0,1
,0.37,,,,,,,,,j,red,5798be2b913c710001976173,2021-09-27_12h45.29.527,forced_choiceRT_color,2021.2.3,Win32,59.93766483,,,,,,,,3,Ontime,long,j,1,2.062,0,0,0,2,1,,,,,
,0.13,,,,,,,,,d,orange,5798be2b913c710001976173,2021-09-27_12h45.29.527,forced_choiceRT_color,2021.2.3,Win32,59.93766483,,,,,,,,3,Ontime,long,d,1,1.9869,0,1,1,0,1,,,,,
,0.04,,,,,,,,,j,red,5798be2b913c710001976173,2021-09-27_12h45.29.527,forced_choiceRT_color,2021.2.3,Win32,59.93766483,,,,,,,,3,Ontime,long,j,1,1.9863,0,2,2,2,1,,,,,
,1.93,,,,,,,,,f,blue,5798be2b913c710001976173,2021-09-27_12h45.29.527,forced_choiceRT_color,2021.2.3,Win32,59.93766483,,,,,,,,3,Ontime,long,k,0,2.0756,0,3,3,1,1,,,,,
,1.12,,,,,,,,,f,blue,5798be2b913c710001976173,2021-09-27_12h45.29.527,forced_choiceRT_color,2021.2.3,Win32,59.93766483,,,,,,,,3,Ontime,long,d,0,1.9866,1,0,4,1,1,,,,,
,1.71,,,,,,,,,k,purple,5798be2b913c710001976173,2021-09-27_12h45.29.527,forced_choiceRT_color,2021.2.3,Win32,59.93766483,,,,,,,,3,Slow,long,j,0,2.1191,1,1,5,3,1,,,,,
,0.15,,,,,,,,,f,blue,5798be2b913c710001976173,2021-09-27_12h45.29.527,forced_choiceRT_color,2021.2.3,Win32,59.93766483,,,,,,,,3,Ontime,long,f,1,1.9996,1,2,6,1,1,,,,,
,1.71,,,,,,,,,j,red,5798be2b913c710001976173,2021-09-27_12h45.29.527,forced_choiceRT_color,2021.2.3,Win32,59.93766483,,,,,,,,3,Ontime,long,k,0,2.0977,1,3,7,2,1,,,,,
,0.27,,,,,,,,,k,purple,5798be2b913c710001976173,2021-09-27_12h45.29.527,forced_choiceRT_color,2021.2.3,Win32,59.93766483,,,,,,,,3,Ontime,long,k,1,1.9989,2,0,8,3,1,,,,,
,1.15,,,,,,,,,k,purple,5798be2b913c710001976173,2021-09-27_12h45.29.527,forced_choiceRT_color,2021.2.3,Win32,59.93766483,,,,,,,,3,Ontime,long,k,1,2.0057,2,1,9,3,1,,,,,
,1.45,,,,,,,,,d,orange,5798be2b913c710001976173,2021-09-27_12h45.29.527,forced_choiceRT_color,2021.2.3,Win32,59.93766483,,,,,,,,3,Slow,long,d,1,2.1508,2,2,10,0,1,,,,,
,0.23,,,,,,,,,j,red,5798be2b913c710001976173,2021-09-27_12h45.29.527,forced_choiceRT_color,2021.2.3,Win32,59.93766483,,,,,,,,3,Ontime,long,j,1,2.0396,2,3,11,2,1,,,,,
,0.33,,,,,,,,,d,orange,5798be2b913c710001976173,2021-09-27_12h45.29.527,forced_choiceRT_color,2021.2.3,Win32,59.93766483,,,,,,,,3,Ontime,long,d,1,2.0527,3,0,12,0,1,,,,,
,0.36,,,,,,,,,f,blue,5798be2b913c710001976173,2021-09-27_12h45.29.527,forced_choiceRT_color,2021.2.3,Win32,59.93766483,,,,,,,,3,Ontime,long,f,1,2.0232,3,1,13,1,1,,,,,
,0.39,,,,,,,,,k,purple,5798be2b913c710001976173,2021-09-27_12h45.29.527,forced_choiceRT_color,2021.2.3,Win32,59.93766483,,,,,,,,3,Ontime,long,k,1,2.0188,3,2,14,3,1,,,,,
,1.66,,,,,,,,,j,red,5798be2b913c710001976173,2021-09-27_12h45.29.527,forced_choiceRT_color,2021.2.3,Win32,59.93766483,,,,,,,,3,Slow,long,f,0,2.1487,3,3,15,2,1,,,,,
,1.94,,,,,,,,,f,blue,5798be2b913c710001976173,2021-09-27_12h45.29.527,forced_choiceRT_color,2021.2.3,Win32,59.93766483,,,,,,,,3,Slow,long,d,0,2.1332,4,0,16,1,1,,,,,
,1.54,,,,,,,,,j,red,5798be2b913c710001976173,2021-09-27_12h45.29.527,forced_choiceRT_color,2021.2.3,Win32,59.93766483,,,,,,,,3,Fast,long,j,1,1.8843,4,1,17,2,1,,,,,
,0.65,,,,,,,,,k,purple,5798be2b913c710001976173,2021-09-27_12h45.29.527,forced_choiceRT_color,2021.2.3,Win32,59.93766483,,,,,,,,3,Ontime,long,k,1,1.9852,4,2,18,3,1,,,,,
,1.2,,,,,,,,,f,blue,5798be2b913c710001976173,2021-09-27_12h45.29.527,forced_choiceRT_color,2021.2.3,Win32,59.93766483,,,,,,,,3,Slow,long,f,1,2.1166,4,3,19,1,1,,,,,
,0.5,,,,,,,,,d,orange,5798be2b913c710001976173,2021-09-27_12h45.29.527,forced_choiceRT_color,2021.2.3,Win32,59.93766483,,,,,,,,3,Ontime,long,d,1,2.0179,5,0,20,0,1,,,,,
,0.94,,,,,,,,,f,blue,5798be2b913c710001976173,2021-09-27_12h45.29.527,forced_choiceRT_color,2021.2.3,Win32,59.93766483,,,,,,,,3,Slow,long,j,0,2.114,5,1,21,1,1,,,,,
,0.91,,,,,,,,,k,purple,5798be2b913c710001976173,2021-09-27_12h45.29.527,forced_choiceRT_color,2021.2.3,Win32,59.93766483,,,,,,,,3,Ontime,long,k,1,2.0033,5,2,22,3,1,,,,,
,1.17,,,,,,,,,f,blue,5798be2b913c710001976173,2021-09-27_12h45.29.527,forced_choiceRT_color,2021.2.3,Win32,59.93766483,,,,,,,,3,Ontime,long,f,1,2.0487,5,3,23,1,1,,,,,
,0.16,,,,,,,,,j,red,5798be2b913c710001976173,2021-09-27_12h45.29.527,forced_choiceRT_color,2021.2.3,Win32,59.93766483,,,,,,,,3,Ontime,long,j,1,2.0684,6,0,24,2,1,,,,,
,0.48,,,,,,,,,f,blue,5798be2b913c710001976173,2021-09-27_12h45.29.527,forced_choiceRT_color,2021.2.3,Win32,59.93766483,,,,,,,,3,Ontime,long,f,1,2.056,6,1,25,1,1,,,,,
,0.67,,,,,,,,,j,red,5798be2b913c710001976173,2021-09-27_12h45.29.527,forced_choiceRT_color,2021.2.3,Win32,59.93766483,,,,,,,,3,Ontime,long,j,1,2.0504,6,2,26,2,1,,,,,
,1.14,,,,,,,,,d,orange,5798be2b913c710001976173,2021-09-27_12h45.29.527,forced_choiceRT_color,2021.2.3,Win32,59.93766483,,,,,,,,3,Ontime,long,d,1,2.0373,6,3,27,0,1,,,,,
,0.66,,,,,,,,,k,purple,5798be2b913c710001976173,2021-09-27_12h45.29.527,forced_choiceRT_color,2021.2.3,Win32,59.93766483,,,,,,,,3,Ontime,long,k,1,1.9996,7,0,28,3,1,,,,,
,0.38,,,,,,,,,d,orange,5798be2b913c710001976173,2021-09-27_12h45.29.527,forced_choiceRT_color,2021.2.3,Win32,59.93766483,,,,,,,,3,Ontime,long,d,1,2.0396,7,1,29,0,1,,,,,
,0.91,,,,,,,,,d,orange,5798be2b913c710001976173,2021-09-27_12h45.29.527,forced_choiceRT_color,2021.2.3,Win32,59.93766483,,,,,,,,3,Ontime,long,d,1,1.9822,7,2,30,0,1,,,,,
,0.75,,,,,,,,,f,blue,5798be2b913c710001976173,2021-09-27_12h45.29.527,forced_choiceRT_color,2021.2.3,Win32,59.93766483,,,,,,,,3,Ontime,long,j,0,1.9925,7,3,31,1,1,,,,,
,0.76,,,,,,,,,d,orange,5798be2b913c710001976173,2021-09-27_12h45.29.527,forced_choiceRT_color,2021.2.3,Win32,59.93766483,,,,,,,,3,Ontime,long,d,1,2.016,8,0,32,0,1,,,,,
,0.9,,,,,,,,,k,purple,5798be2b913c710001976173,2021-09-27_12h45.29.527,forced_choiceRT_color,2021.2.3,Win32,59.93766483,,,,,,,,3,Ontime,long,k,1,2.0491,8,1,33,3,1,,,,,
,1.72,,,,,,,,,k,purple,5798be2b913c710001976173,2021-09-27_12h45.29.527,forced_choiceRT_color,2021.2.3,Win32,59.93766483,,,,,,,,3,Slow,long,k,1,2.1486,8,2,34,3,1,,,,,
,0.17,,,,,,,,,d,orange,5798be2b913c710001976173,2021-09-27_12h45.29.527,forced_choiceRT_color,2021.2.3,Win32,59.93766483,,,,,,,,3,Ontime,long,d,1,1.9875,8,3,35,0,1,,,,,
,0.73,,,,,,,,,k,purple,5798be2b913c710001976173,2021-09-27_12h45.29.527,forced_choiceRT_color,2021.2.3,Win32,59.93766483,,,,,,,,3,Ontime,long,k,1,2.0084,9,0,36,3,1,,,,,
,1.11,,,,,,,,,j,red,5798be2b913c710001976173,2021-09-27_12h45.29.527,forced_choiceRT_color,2021.2.3,Win32,59.93766483,,,,,,,,3,Ontime,long,d,0,2.0831,9,1,37,2,1,,,,,
,1.81,,,,,,,,,j,red,5798be2b913c710001976173,2021-09-27_12h45.29.527,forced_choiceRT_color,2021.2.3,Win32,59.93766483,,,,,,,,3,Ontime,long,k,0,2.0226,9,2,38,2,1,,,,,
,1.4,,,,,,,,,d,orange,5798be2b913c710001976173,2021-09-27_12h45.29.527,forced_choiceRT_color,2021.2.3,Win32,59.93766483,,,,,,,,3,Ontime,long,d,1,1.9743,9,3,39,0,1,,,,,
,,,,,,,,,,,,5798be2b913c710001976173,2021-09-27_12h45.29.527,forced_choiceRT_color,2021.2.3,Win32,59.93766483,,,,,,,,,,,,,,,,,,,2,0,2,0,1
,0.11,,,,,,,,,k,purple,5798be2b913c710001976173,2021-09-27_12h45.29.527,forced_choiceRT_color,2021.2.3,Win32,59.93766483,,,,,,,,4,Ontime,long,k,1,2.0361,0,0,0,3,1,,,,,
,0.97,,,,,,,,,d,orange,5798be2b913c710001976173,2021-09-27_12h45.29.527,forced_choiceRT_color,2021.2.3,Win32,59.93766483,,,,,,,,4,Slow,long,d,1,2.3107,0,1,1,0,1,,,,,
,0.91,,,,,,,,,k,purple,5798be2b913c710001976173,2021-09-27_12h45.29.527,forced_choiceRT_color,2021.2.3,Win32,59.93766483,,,,,,,,4,Ontime,long,k,1,1.9931,0,2,2,3,1,,,,,
,0.28,,,,,,,,,k,purple,5798be2b913c710001976173,2021-09-27_12h45.29.527,forced_choiceRT_color,2021.2.3,Win32,59.93766483,,,,,,,,4,Ontime,long,k,1,1.9328,0,3,3,3,1,,,,,
,1.65,,,,,,,,,k,purple,5798be2b913c710001976173,2021-09-27_12h45.29.527,forced_choiceRT_color,2021.2.3,Win32,59.93766483,,,,,,,,4,Ontime,long,j,0,2.0313,1,0,4,3,1,,,,,
,0.19,,,,,,,,,k,purple,5798be2b913c710001976173,2021-09-27_12h45.29.527,forced_choiceRT_color,2021.2.3,Win32,59.93766483,,,,,,,,4,Ontime,long,k,1,2.005,1,1,5,3,1,,,,,
,1.41,,,,,,,,,f,blue,5798be2b913c710001976173,2021-09-27_12h45.29.527,forced_choiceRT_color,2021.2.3,Win32,59.93766483,,,,,,,,4,Ontime,long,j,0,2.0342,1,2,6,1,1,,,,,
,1.47,,,,,,,,,k,purple,5798be2b913c710001976173,2021-09-27_12h45.29.527,forced_choiceRT_color,2021.2.3,Win32,59.93766483,,,,,,,,4,Ontime,long,k,1,2.0357,1,3,7,3,1,,,,,
,1.77,,,,,,,,,f,blue,5798be2b913c710001976173,2021-09-27_12h45.29.527,forced_choiceRT_color,2021.2.3,Win32,59.93766483,,,,,,,,4,Ontime,long,k,0,2.0765,2,0,8,1,1,,,,,
,1.62,,,,,,,,,j,red,5798be2b913c710001976173,2021-09-27_12h45.29.527,forced_choiceRT_color,2021.2.3,Win32,59.93766483,,,,,,,,4,Slow,long,k,0,2.1214,2,1,9,2,1,,,,,
,1.69,,,,,,,,,f,blue,5798be2b913c710001976173,2021-09-27_12h45.29.527,forced_choiceRT_color,2021.2.3,Win32,59.93766483,,,,,,,,4,Ontime,long,f,1,2.0648,2,2,10,1,1,,,,,
,0.29,,,,,,,,,f,blue,5798be2b913c710001976173,2021-09-27_12h45.29.527,forced_choiceRT_color,2021.2.3,Win32,59.93766483,,,,,,,,4,Ontime,long,f,1,2.0057,2,3,11,1,1,,,,,
,1.69,,,,,,,,,k,purple,5798be2b913c710001976173,2021-09-27_12h45.29.527,forced_choiceRT_color,2021.2.3,Win32,59.93766483,,,,,,,,4,Ontime,long,j,0,2.0855,3,0,12,3,1,,,,,
,0.04,,,,,,,,,f,blue,5798be2b913c710001976173,2021-09-27_12h45.29.527,forced_choiceRT_color,2021.2.3,Win32,59.93766483,,,,,,,,4,Ontime,long,f,1,2.0677,3,1,13,1,1,,,,,
,1.15,,,,,,,,,f,blue,5798be2b913c710001976173,2021-09-27_12h45.29.527,forced_choiceRT_color,2021.2.3,Win32,59.93766483,,,,,,,,4,Ontime,long,f,1,2.0522,3,2,14,1,1,,,,,
,1.72,,,,,,,,,d,orange,5798be2b913c710001976173,2021-09-27_12h45.29.527,forced_choiceRT_color,2021.2.3,Win32,59.93766483,,,,,,,,4,Slow,long,d,1,2.2327,3,3,15,0,1,,,,,
,1.02,,,,,,,,,d,orange,5798be2b913c710001976173,2021-09-27_12h45.29.527,forced_choiceRT_color,2021.2.3,Win32,59.93766483,,,,,,,,4,Ontime,long,d,1,2.0324,4,0,16,0,1,,,,,
,0.49,,,,,,,,,j,red,5798be2b913c710001976173,2021-09-27_12h45.29.527,forced_choiceRT_color,2021.2.3,Win32,59.93766483,,,,,,,,4,Ontime,long,j,1,1.9873,4,1,17,2,1,,,,,
,0.43,,,,,,,,,d,orange,5798be2b913c710001976173,2021-09-27_12h45.29.527,forced_choiceRT_color,2021.2.3,Win32,59.93766483,,,,,,,,4,Ontime,long,d,1,2.0025,4,2,18,0,1,,,,,
,1,,,,,,,,,j,red,5798be2b913c710001976173,2021-09-27_12h45.29.527,forced_choiceRT_color,2021.2.3,Win32,59.93766483,,,,,,,,4,Ontime,long,j,1,1.9169,4,3,19,2,1,,,,,
,1.26,,,,,,,,,j,red,5798be2b913c710001976173,2021-09-27_12h45.29.527,forced_choiceRT_color,2021.2.3,Win32,59.93766483,,,,,,,,4,Ontime,long,j,1,2.0834,5,0,20,2,1,,,,,
,1.24,,,,,,,,,d,orange,5798be2b913c710001976173,2021-09-27_12h45.29.527,forced_choiceRT_color,2021.2.3,Win32,59.93766483,,,,,,,,4,Ontime,long,d,1,1.986,5,1,21,0,1,,,,,
,0.9,,,,,,,,,d,orange,5798be2b913c710001976173,2021-09-27_12h45.29.527,forced_choiceRT_color,2021.2.3,Win32,59.93766483,,,,,,,,4,Ontime,long,d,1,2.0688,5,2,22,0,1,,,,,
,0.49,,,,,,,,,d,orange,5798be2b913c710001976173,2021-09-27_12h45.29.527,forced_choiceRT_color,2021.2.3,Win32,59.93766483,,,,,,,,4,Ontime,long,d,1,2.016,5,3,23,0,1,,,,,
,1.91,,,,,,,,,j,red,5798be2b913c710001976173,2021-09-27_12h45.29.527,forced_choiceRT_color,2021.2.3,Win32,59.93766483,,,,,,,,4,Slow,long,k,0,2.103,6,0,24,2,1,,,,,
,1.45,,,,,,,,,j,red,5798be2b913c710001976173,2021-09-27_12h45.29.527,forced_choiceRT_color,2021.2.3,Win32,59.93766483,,,,,,,,4,Ontime,long,j,1,1.972,6,1,25,2,1,,,,,
,0.93,,,,,,,,,j,red,5798be2b913c710001976173,2021-09-27_12h45.29.527,forced_choiceRT_color,2021.2.3,Win32,59.93766483,,,,,,,,4,Ontime,long,j,1,2.0529,6,2,26,2,1,,,,,
,1.65,,,,,,,,,f,blue,5798be2b913c710001976173,2021-09-27_12h45.29.527,forced_choiceRT_color,2021.2.3,Win32,59.93766483,,,,,,,,4,Ontime,long,d,0,2.033,6,3,27,1,1,,,,,
,1.14,,,,,,,,,f,blue,5798be2b913c710001976173,2021-09-27_12h45.29.527,forced_choiceRT_color,2021.2.3,Win32,59.93766483,,,,,,,,4,Ontime,long,d,0,1.987,7,0,28,1,1,,,,,
,1.81,,,,,,,,,d,orange,5798be2b913c710001976173,2021-09-27_12h45.29.527,forced_choiceRT_color,2021.2.3,Win32,59.93766483,,,,,,,,4,Ontime,long,k,0,2.031,7,1,29,0,1,,,,,
,0.93,,,,,,,,,j,red,5798be2b913c710001976173,2021-09-27_12h45.29.527,forced_choiceRT_color,2021.2.3,Win32,59.93766483,,,,,,,,4,Ontime,long,j,1,2,7,2,30,2,1,,,,,
,0.02,,,,,,,,,k,purple,5798be2b913c710001976173,2021-09-27_12h45.29.527,forced_choiceRT_color,2021.2.3,Win32,59.93766483,,,,,,,,4,Ontime,long,k,1,2.0363,7,3,31,3,1,,,,,
,0.68,,,,,,,,,f,blue,5798be2b913c710001976173,2021-09-27_12h45.29.527,forced_choiceRT_color,2021.2.3,Win32,59.93766483,,,,,,,,4,Ontime,long,f,1,2.0245,8,0,32,1,1,,,,,
,1.17,,,,,,,,,d,orange,5798be2b913c710001976173,2021-09-27_12h45.29.527,forced_choiceRT_color,2021.2.3,Win32,59.93766483,,,,,,,,4,Ontime,long,d,1,2.0162,8,1,33,0,1,,,,,
,0.57,,,,,,,,,k,purple,5798be2b913c710001976173,2021-09-27_12h45.29.527,forced_choiceRT_color,2021.2.3,Win32,59.93766483,,,,,,,,4,Ontime,long,k,1,2.0107,8,2,34,3,1,,,,,
,1.25,,,,,,,,,j,red,5798be2b913c710001976173,2021-09-27_12h45.29.527,forced_choiceRT_color,2021.2.3,Win32,59.93766483,,,,,,,,4,Ontime,long,j,1,2.0516,8,3,35,2,1,,,,,
,0.69,,,,,,,,,f,blue,5798be2b913c710001976173,2021-09-27_12h45.29.527,forced_choiceRT_color,2021.2.3,Win32,59.93766483,,,,,,,,4,Ontime,long,f,1,2.0183,9,0,36,1,1,,,,,
,0.55,,,,,,,,,k,purple,5798be2b913c710001976173,2021-09-27_12h45.29.527,forced_choiceRT_color,2021.2.3,Win32,59.93766483,,,,,,,,4,Ontime,long,k,1,2.0861,9,1,37,3,1,,,,,
,0.91,,,,,,,,,j,red,5798be2b913c710001976173,2021-09-27_12h45.29.527,forced_choiceRT_color,2021.2.3,Win32,59.93766483,,,,,,,,4,Ontime,long,j,1,2.0143,9,2,38,2,1,,,,,
,0.91,,,,,,,,,d,orange,5798be2b913c710001976173,2021-09-27_12h45.29.527,forced_choiceRT_color,2021.2.3,Win32,59.93766483,,,,,,,,4,Ontime,long,d,1,1.9021,9,3,39,0,1,,,,,
,,,,,,,,,,,,5798be2b913c710001976173,2021-09-27_12h45.29.527,forced_choiceRT_color,2021.2.3,Win32,59.93766483,,,,,,,,,,,,,,,,,,,3,0,3,0,1
,0.64,,,,,,,,,j,red,5798be2b913c710001976173,2021-09-27_12h45.29.527,forced_choiceRT_color,2021.2.3,Win32,59.93766483,,,,,,,,5,Ontime,long,j,1,1.9882,0,0,0,2,1,,,,,
,0.83,,,,,,,,,j,red,5798be2b913c710001976173,2021-09-27_12h45.29.527,forced_choiceRT_color,2021.2.3,Win32,59.93766483,,,,,,,,5,Fast,long,j,1,1.5684,0,1,1,2,1,,,,,
,1.38,,,,,,,,,j,red,5798be2b913c710001976173,2021-09-27_12h45.29.527,forced_choiceRT_color,2021.2.3,Win32,59.93766483,,,,,,,,5,Ontime,long,j,1,2.0509,0,2,2,2,1,,,,,
,0.4,,,,,,,,,j,red,5798be2b913c710001976173,2021-09-27_12h45.29.527,forced_choiceRT_color,2021.2.3,Win32,59.93766483,,,,,,,,5,Ontime,long,j,1,2.0176,0,3,3,2,1,,,,,
,1.27,,,,,,,,,f,blue,5798be2b913c710001976173,2021-09-27_12h45.29.527,forced_choiceRT_color,2021.2.3,Win32,59.93766483,,,,,,,,5,Slow,long,d,0,2.1149,1,0,4,1,1,,,,,
,1.16,,,,,,,,,f,blue,5798be2b913c710001976173,2021-09-27_12h45.29.527,forced_choiceRT_color,2021.2.3,Win32,59.93766483,,,,,,,,5,Ontime,long,f,1,1.9577,1,1,5,1,1,,,,,
,0.31,,,,,,,,,j,red,5798be2b913c710001976173,2021-09-27_12h45.29.527,forced_choiceRT_color,2021.2.3,Win32,59.93766483,,,,,,,,5,Ontime,long,j,1,2.0151,1,2,6,2,1,,,,,
,1.78,,,,,,,,,k,purple,5798be2b913c710001976173,2021-09-27_12h45.29.527,forced_choiceRT_color,2021.2.3,Win32,59.93766483,,,,,,,,5,Slow,long,d,0,2.1104,1,3,7,3,1,,,,,
,1.75,,,,,,,,,k,purple,5798be2b913c710001976173,2021-09-27_12h45.29.527,forced_choiceRT_color,2021.2.3,Win32,59.93766483,,,,,,,,5,Ontime,long,f,0,2.0095,2,0,8,3,1,,,,,
,0.54,,,,,,,,,k,purple,5798be2b913c710001976173,2021-09-27_12h45.29.527,forced_choiceRT_color,2021.2.3,Win32,59.93766483,,,,,,,,5,Ontime,long,k,1,2.0543,2,1,9,3,1,,,,,
,1.88,,,,,,,,,k,purple,5798be2b913c710001976173,2021-09-27_12h45.29.527,forced_choiceRT_color,2021.2.3,Win32,59.93766483,,,,,,,,5,Ontime,long,j,0,2.0045,2,2,10,3,1,,,,,
,1.62,,,,,,,,,f,blue,5798be2b913c710001976173,2021-09-27_12h45.29.527,forced_choiceRT_color,2021.2.3,Win32,59.93766483,,,,,,,,5,Ontime,long,d,0,2.0348,2,3,11,1,1,,,,,
,0.31,,,,,,,,,d,orange,5798be2b913c710001976173,2021-09-27_12h45.29.527,forced_choiceRT_color,2021.2.3,Win32,59.93766483,,,,,,,,5,Ontime,long,d,1,2.0104,3,0,12,0,1,,,,,
,0.5,,,,,,,,,d,orange,5798be2b913c710001976173,2021-09-27_12h45.29.527,forced_choiceRT_color,2021.2.3,Win32,59.93766483,,,,,,,,5,Ontime,long,d,1,1.9867,3,1,13,0,1,,,,,
,1.24,,,,,,,,,d,orange,5798be2b913c710001976173,2021-09-27_12h45.29.527,forced_choiceRT_color,2021.2.3,Win32,59.93766483,,,,,,,,5,Fast,long,d,1,1.898,3,2,14,0,1,,,,,
,0.13,,,,,,,,,j,red,5798be2b913c710001976173,2021-09-27_12h45.29.527,forced_choiceRT_color,2021.2.3,Win32,59.93766483,,,,,,,,5,Ontime,long,j,1,2.0594,3,3,15,2,1,,,,,
,0.27,,,,,,,,,k,purple,5798be2b913c710001976173,2021-09-27_12h45.29.527,forced_choiceRT_color,2021.2.3,Win32,59.93766483,,,,,,,,5,Ontime,long,k,1,2.0728,4,0,16,3,1,,,,,
,0.31,,,,,,,,,f,blue,5798be2b913c710001976173,2021-09-27_12h45.29.527,forced_choiceRT_color,2021.2.3,Win32,59.93766483,,,,,,,,5,Ontime,long,f,1,2.0338,4,1,17,1,1,,,,,
,1.72,,,,,,,,,d,orange,5798be2b913c710001976173,2021-09-27_12h45.29.527,forced_choiceRT_color,2021.2.3,Win32,59.93766483,,,,,,,,5,Slow,long,f,0,2.1135,4,2,18,0,1,,,,,
,1.43,,,,,,,,,k,purple,5798be2b913c710001976173,2021-09-27_12h45.29.527,forced_choiceRT_color,2021.2.3,Win32,59.93766483,,,,,,,,5,Ontime,long,k,1,1.9274,4,3,19,3,1,,,,,
,1.77,,,,,,,,,j,red,5798be2b913c710001976173,2021-09-27_12h45.29.527,forced_choiceRT_color,2021.2.3,Win32,59.93766483,,,,,,,,5,Slow,long,k,0,2.1581,5,0,20,2,1,,,,,
,0.26,,,,,,,,,f,blue,5798be2b913c710001976173,2021-09-27_12h45.29.527,forced_choiceRT_color,2021.2.3,Win32,59.93766483,,,,,,,,5,Ontime,long,f,1,2.0584,5,1,21,1,1,,,,,
,0.3,,,,,,,,,j,red,5798be2b913c710001976173,2021-09-27_12h45.29.527,forced_choiceRT_color,2021.2.3,Win32,59.93766483,,,,,,,,5,Ontime,long,j,1,2.0221,5,2,22,2,1,,,,,
,0.95,,,,,,,,,k,purple,5798be2b913c710001976173,2021-09-27_12h45.29.527,forced_choiceRT_color,2021.2.3,Win32,59.93766483,,,,,,,,5,Ontime,long,k,1,1.9843,5,3,23,3,1,,,,,
,0.54,,,,,,,,,f,blue,5798be2b913c710001976173,2021-09-27_12h45.29.527,forced_choiceRT_color,2021.2.3,Win32,59.93766483,,,,,,,,5,Ontime,long,f,1,1.9998,6,0,24,1,1,,,,,
,0.07,,,,,,,,,j,red,5798be2b913c710001976173,2021-09-27_12h45.29.527,forced_choiceRT_color,2021.2.3,Win32,59.93766483,,,,,,,,5,Ontime,long,j,1,1.968,6,1,25,2,1,,,,,
,1.42,,,,,,,,,k,purple,5798be2b913c710001976173,2021-09-27_12h45.29.527,forced_choiceRT_color,2021.2.3,Win32,59.93766483,,,,,,,,5,Ontime,long,k,1,2.0671,6,2,26,3,1,,,,,
,0.65,,,,,,,,,d,orange,5798be2b913c710001976173,2021-09-27_12h45.29.527,forced_choiceRT_color,2021.2.3,Win32,59.93766483,,,,,,,,5,Ontime,long,d,1,1.9819,6,3,27,0,1,,,,,
,0.4,,,,,,,,,k,purple,5798be2b913c710001976173,2021-09-27_12h45.29.527,forced_choiceRT_color,2021.2.3,Win32,59.93766483,,,,,,,,5,Ontime,long,k,1,1.967,7,0,28,3,1,,,,,
,1.53,,,,,,,,,f,blue,5798be2b913c710001976173,2021-09-27_12h45.29.527,forced_choiceRT_color,2021.2.3,Win32,59.93766483,,,,,,,,5,Ontime,long,j,0,2.0496,7,1,29,1,1,,,,,
,0.64,,,,,,,,,f,blue,5798be2b913c710001976173,2021-09-27_12h45.29.527,forced_choiceRT_color,2021.2.3,Win32,59.93766483,,,,,,,,5,Ontime,long,f,1,2.0657,7,2,30,1,1,,,,,
,1.51,,,,,,,,,d,orange,5798be2b913c710001976173,2021-09-27_12h45.29.527,forced_choiceRT_color,2021.2.3,Win32,59.93766483,,,,,,,,5,Ontime,long,d,1,2.0667,7,3,31,0,1,,,,,
,0.97,,,,,,,,,d,orange,5798be2b913c710001976173,2021-09-27_12h45.29.527,forced_choiceRT_color,2021.2.3,Win32,59.93766483,,,,,,,,5,Ontime,long,d,1,2.0071,8,0,32,0,1,,,,,
,1.68,,,,,,,,,k,purple,5798be2b913c710001976173,2021-09-27_12h45.29.527,forced_choiceRT_color,2021.2.3,Win32,59.93766483,,,,,,,,5,Slow,long,k,1,2.1656,8,1,33,3,1,,,,,
,0.79,,,,,,,,,j,red,5798be2b913c710001976173,2021-09-27_12h45.29.527,forced_choiceRT_color,2021.2.3,Win32,59.93766483,,,,,,,,5,Ontime,long,j,1,1.9818,8,2,34,2,1,,,,,
,1.51,,,,,,,,,f,blue,5798be2b913c710001976173,2021-09-27_12h45.29.527,forced_choiceRT_color,2021.2.3,Win32,59.93766483,,,,,,,,5,Ontime,long,f,1,2.0395,8,3,35,1,1,,,,,
,0.56,,,,,,,,,f,blue,5798be2b913c710001976173,2021-09-27_12h45.29.527,forced_choiceRT_color,2021.2.3,Win32,59.93766483,,,,,,,,5,Ontime,long,f,1,1.9695,9,0,36,1,1,,,,,
,1.89,,,,,,,,,d,orange,5798be2b913c710001976173,2021-09-27_12h45.29.527,forced_choiceRT_color,2021.2.3,Win32,59.93766483,,,,,,,,5,Slow,long,k,0,2.1228,9,1,37,0,1,,,,,
,0.92,,,,,,,,,d,orange,5798be2b913c710001976173,2021-09-27_12h45.29.527,forced_choiceRT_color,2021.2.3,Win32,59.93766483,,,,,,,,5,Ontime,long,d,1,2.0355,9,2,38,0,1,,,,,
,1.22,,,,,,,,,d,orange,5798be2b913c710001976173,2021-09-27_12h45.29.527,forced_choiceRT_color,2021.2.3,Win32,59.93766483,,,,,,,,5,Ontime,long,d,1,2.0013,9,3,39,0,1,,,,,
,,,,,,,,,,,,5798be2b913c710001976173,2021-09-27_12h45.29.527,forced_choiceRT_color,2021.2.3,Win32,59.93766483,,,,,,,,,,,,,,,,,,,4,0,4,0,1
,1.81,,,,,,,,,j,red,5798be2b913c710001976173,2021-09-27_12h45.29.527,forced_choiceRT_color,2021.2.3,Win32,59.93766483,,,,,,,,6,Slow,long,f,0,2.1304,0,0,0,2,1,,,,,
,0.1,,,,,,,,,k,purple,5798be2b913c710001976173,2021-09-27_12h45.29.527,forced_choiceRT_color,2021.2.3,Win32,59.93766483,,,,,,,,6,Ontime,long,k,1,2.0321,0,1,1,3,1,,,,,
,0.57,,,,,,,,,d,orange,5798be2b913c710001976173,2021-09-27_12h45.29.527,forced_choiceRT_color,2021.2.3,Win32,59.93766483,,,,,,,,6,Ontime,long,d,1,2.0541,0,2,2,0,1,,,,,
,1.01,,,,,,,,,f,blue,5798be2b913c710001976173,2021-09-27_12h45.29.527,forced_choiceRT_color,2021.2.3,Win32,59.93766483,,,,,,,,6,Ontime,long,f,1,2.0309,0,3,3,1,1,,,,,
,0.36,,,,,,,,,j,red,5798be2b913c710001976173,2021-09-27_12h45.29.527,forced_choiceRT_color,2021.2.3,Win32,59.93766483,,,,,,,,6,Ontime,long,j,1,1.9888,1,0,4,2,1,,,,,
,0.49,,,,,,,,,k,purple,5798be2b913c710001976173,2021-09-27_12h45.29.527,forced_choiceRT_color,2021.2.3,Win32,59.93766483,,,,,,,,6,Ontime,long,k,1,1.9747,1,1,5,3,1,,,,,
,1.62,,,,,,,,,f,blue,5798be2b913c710001976173,2021-09-27_12h45.29.527,forced_choiceRT_color,2021.2.3,Win32,59.93766483,,,,,,,,6,Slow,long,j,0,2.1506,1,2,6,1,1,,,,,
,1.11,,,,,,,,,d,orange,5798be2b913c710001976173,2021-09-27_12h45.29.527,forced_choiceRT_color,2021.2.3,Win32,59.93766483,,,,,,,,6,Ontime,long,d,1,2.0174,1,3,7,0,1,,,,,
,0.94,,,,,,,,,f,blue,5798be2b913c710001976173,2021-09-27_12h45.29.527,forced_choiceRT_color,2021.2.3,Win32,59.93766483,,,,,,,,6,Ontime,long,f,1,2.0913,2,0,8,1,1,,,,,
,0.79,,,,,,,,,f,blue,5798be2b913c710001976173,2021-09-27_12h45.29.527,forced_choiceRT_color,2021.2.3,Win32,59.93766483,,,,,,,,6,Ontime,long,f,1,1.9703,2,1,9,1,1,,,,,
,1.56,,,,,,,,,j,red,5798be2b913c710001976173,2021-09-27_12h45.29.527,forced_choiceRT_color,2021.2.3,Win32,59.93766483,,,,,,,,6,Slow,long,j,1,2.3356,2,2,10,2,1,,,,,
,0.3,,,,,,,,,f,blue,5798be2b913c710001976173,2021-09-27_12h45.29.527,forced_choiceRT_color,2021.2.3,Win32,59.93766483,,,,,,,,6,Ontime,long,f,1,2.0162,2,3,11,1,1,,,,,
,0.52,,,,,,,,,d,orange,5798be2b913c710001976173,2021-09-27_12h45.29.527,forced_choiceRT_color,2021.2.3,Win32,59.93766483,,,,,,,,6,Ontime,long,d,1,1.923,3,0,12,0,1,,,,,
,1.55,,,,,,,,,j,red,5798be2b913c710001976173,2021-09-27_12h45.29.527,forced_choiceRT_color,2021.2.3,Win32,59.93766483,,,,,,,,6,Ontime,long,j,1,2.0247,3,1,13,2,1,,,,,
,0.56,,,,,,,,,d,orange,5798be2b913c710001976173,2021-09-27_12h45.29.527,forced_choiceRT_color,2021.2.3,Win32,59.93766483,,,,,,,,6,Ontime,long,d,1,2.0219,3,2,14,0,1,,,,,
,0.51,,,,,,,,,k,purple,5798be2b913c710001976173,2021-09-27_12h45.29.527,forced_choiceRT_color,2021.2.3,Win32,59.93766483,,,,,,,,6,Ontime,long,k,1,2.0682,3,3,15,3,1,,,,,
,1.92,,,,,,,,,k,purple,5798be2b913c710001976173,2021-09-27_12h45.29.527,forced_choiceRT_color,2021.2.3,Win32,59.93766483,,,,,,,,6,Ontime,long,j,0,2.067,4,0,16,3,1,,,,,
,0.04,,,,,,,,,j,red,5798be2b913c710001976173,2021-09-27_12h45.29.527,forced_choiceRT_color,2021.2.3,Win32,59.93766483,,,,,,,,6,Ontime,long,j,1,2.0359,4,1,17,2,1,,,,,
,1.35,,,,,,,,,k,purple,5798be2b913c710001976173,2021-09-27_12h45.29.527,forced_choiceRT_color,2021.2.3,Win32,59.93766483,,,,,,,,6,Ontime,long,k,1,2.002,4,2,18,3,1,,,,,
,1.44,,,,,,,,,f,blue,5798be2b913c710001976173,2021-09-27_12h45.29.527,forced_choiceRT_color,2021.2.3,Win32,59.93766483,,,,,,,,6,Ontime,long,f,1,2.0699,4,3,19,1,1,,,,,
,0.2,,,,,,,,,k,purple,5798be2b913c710001976173,2021-09-27_12h45.29.527,forced_choiceRT_color,2021.2.3,Win32,59.93766483,,,,,,,,6,Ontime,long,k,1,2.0152,5,0,20,3,1,,,,,
,1.31,,,,,,,,,k,purple,5798be2b913c710001976173,2021-09-27_12h45.29.527,forced_choiceRT_color,2021.2.3,Win32,59.93766483,,,,,,,,6,Ontime,long,k,1,2.0023,5,1,21,3,1,,,,,
,0.01,,,,,,,,,d,orange,5798be2b913c710001976173,2021-09-27_12h45.29.527,forced_choiceRT_color,2021.2.3,Win32,59.93766483,,,,,,,,6,Ontime,long,d,1,2.0243,5,2,22,0,1,,,,,
,0.26,,,,,,,,,k,purple,5798be2b913c710001976173,2021-09-27_12h45.29.527,forced_choiceRT_color,2021.2.3,Win32,59.93766483,,,,,,,,6,Ontime,long,k,1,1.9924,5,3,23,3,1,,,,,
,0.52,,,,,,,,,j,red,5798be2b913c710001976173,2021-09-27_12h45.29.527,forced_choiceRT_color,2021.2.3,Win32,59.93766483,,,,,,,,6,Ontime,long,j,1,2.0499,6,0,24,2,1,,,,,
,0.71,,,,,,,,,f,blue,5798be2b913c710001976173,2021-09-27_12h45.29.527,forced_choiceRT_color,2021.2.3,Win32,59.93766483,,,,,,,,6,Ontime,long,f,1,2.0425,6,1,25,1,1,,,,,
,0.33,,,,,,,,,f,blue,5798be2b913c710001976173,2021-09-27_12h45.29.527,forced_choiceRT_color,2021.2.3,Win32,59.93766483,,,,,,,,6,Ontime,long,f,1,2.0331,6,2,26,1,1,,,,,
,1.93,,,,,,,,,j,red,5798be2b913c710001976173,2021-09-27_12h45.29.527,forced_choiceRT_color,2021.2.3,Win32,59.93766483,,,,,,,,6,Ontime,long,k,0,2.0877,6,3,27,2,1,,,,,
,1.39,,,,,,,,,k,purple,5798be2b913c710001976173,2021-09-27_12h45.29.527,forced_choiceRT_color,2021.2.3,Win32,59.93766483,,,,,,,,6,Ontime,long,k,1,2.0074,7,0,28,3,1,,,,,
,1.06,,,,,,,,,d,orange,5798be2b913c710001976173,2021-09-27_12h45.29.527,forced_choiceRT_color,2021.2.3,Win32,59.93766483,,,,,,,,6,Ontime,long,d,1,2.0219,7,1,29,0,1,,,,,
,1.94,,,,,,,,,d,orange,5798be2b913c710001976173,2021-09-27_12h45.29.527,forced_choiceRT_color,2021.2.3,Win32,59.93766483,,,,,,,,6,Ontime,long,j,0,2.0764,7,2,30,0,1,,,,,
,1.01,,,,,,,,,j,red,5798be2b913c710001976173,2021-09-27_12h45.29.527,forced_choiceRT_color,2021.2.3,Win32,59.93766483,,,,,,,,6,Ontime,long,f,0,2.0242,7,3,31,2,1,,,,,
,1.48,,,,,,,,,d,orange,5798be2b913c710001976173,2021-09-27_12h45.29.527,forced_choiceRT_color,2021.2.3,Win32,59.93766483,,,,,,,,6,Ontime,long,d,1,2.0414,8,0,32,0,1,,,,,
,0.27,,,,,,,,,f,blue,5798be2b913c710001976173,2021-09-27_12h45.29.527,forced_choiceRT_color,2021.2.3,Win32,59.93766483,,,,,,,,6,Ontime,long,f,1,2.047,8,1,33,1,1,,,,,
,1.65,,,,,,,,,d,orange,5798be2b913c710001976173,2021-09-27_12h45.29.527,forced_choiceRT_color,2021.2.3,Win32,59.93766483,,,,,,,,6,Slow,long,d,1,2.1224,8,2,34,0,1,,,,,
,1.51,,,,,,,,,j,red,5798be2b913c710001976173,2021-09-27_12h45.29.527,forced_choiceRT_color,2021.2.3,Win32,59.93766483,,,,,,,,6,Ontime,long,j,1,2.0499,8,3,35,2,1,,,,,
,1.73,,,,,,,,,d,orange,5798be2b913c710001976173,2021-09-27_12h45.29.527,forced_choiceRT_color,2021.2.3,Win32,59.93766483,,,,,,,,6,Ontime,long,d,1,2.0887,9,0,36,0,1,,,,,
,0.77,,,,,,,,,j,red,5798be2b913c710001976173,2021-09-27_12h45.29.527,forced_choiceRT_color,2021.2.3,Win32,59.93766483,,,,,,,,6,Ontime,long,j,1,2.022,9,1,37,2,1,,,,,
,0.95,,,,,,,,,f,blue,5798be2b913c710001976173,2021-09-27_12h45.29.527,forced_choiceRT_color,2021.2.3,Win32,59.93766483,,,,,,,,6,Ontime,long,f,1,2.051,9,2,38,1,1,,,,,
,1.04,,,,,,,,,k,purple,5798be2b913c710001976173,2021-09-27_12h45.29.527,forced_choiceRT_color,2021.2.3,Win32,59.93766483,,,,,,,,6,Ontime,long,k,1,2.0008,9,3,39,3,1,,,,,
,,,,,,,,,,,,5798be2b913c710001976173,2021-09-27_12h45.29.527,forced_choiceRT_color,2021.2.3,Win32,59.93766483,,,,,,,,,,,,,,,,,,,5,0,5,0,1
,1.5,,,,,,,,,d,orange,5798be2b913c710001976173,2021-09-27_12h45.29.527,forced_choiceRT_color,2021.2.3,Win32,59.93766483,,,,,,,,7,Ontime,long,d,1,2.048,0,0,0,0,1,,,,,
,0.71,,,,,,,,,f,blue,5798be2b913c710001976173,2021-09-27_12h45.29.527,forced_choiceRT_color,2021.2.3,Win32,59.93766483,,,,,,,,7,Slow,long,f,1,2.1041,0,1,1,1,1,,,,,
,1.66,,,,,,,,,j,red,5798be2b913c710001976173,2021-09-27_12h45.29.527,forced_choiceRT_color,2021.2.3,Win32,59.93766483,,,,,,,,7,Ontime,long,j,1,2.042,0,2,2,2,1,,,,,
,0.98,,,,,,,,,j,red,5798be2b913c710001976173,2021-09-27_12h45.29.527,forced_choiceRT_color,2021.2.3,Win32,59.93766483,,,,,,,,7,Ontime,long,j,1,1.987,0,3,3,2,1,,,,,
,1.25,,,,,,,,,d,orange,5798be2b913c710001976173,2021-09-27_12h45.29.527,forced_choiceRT_color,2021.2.3,Win32,59.93766483,,,,,,,,7,Ontime,long,d,1,1.9709,1,0,4,0,1,,,,,
,0.89,,,,,,,,,j,red,5798be2b913c710001976173,2021-09-27_12h45.29.527,forced_choiceRT_color,2021.2.3,Win32,59.93766483,,,,,,,,7,Ontime,long,j,1,1.9681,1,1,5,2,1,,,,,
,1.78,,,,,,,,,d,orange,5798be2b913c710001976173,2021-09-27_12h45.29.527,forced_choiceRT_color,2021.2.3,Win32,59.93766483,,,,,,,,7,Slow,long,f,0,2.1903,1,2,6,0,1,,,,,
,0.64,,,,,,,,,f,blue,5798be2b913c710001976173,2021-09-27_12h45.29.527,forced_choiceRT_color,2021.2.3,Win32,59.93766483,,,,,,,,7,Ontime,long,f,1,1.9972,1,3,7,1,1,,,,,
,1.14,,,,,,,,,k,purple,5798be2b913c710001976173,2021-09-27_12h45.29.527,forced_choiceRT_color,2021.2.3,Win32,59.93766483,,,,,,,,7,Ontime,long,k,1,2.0007,2,0,8,3,1,,,,,
,0.97,,,,,,,,,f,blue,5798be2b913c710001976173,2021-09-27_12h45.29.527,forced_choiceRT_color,2021.2.3,Win32,59.93766483,,,,,,,,7,Ontime,long,f,1,1.9387,2,1,9,1,1,,,,,
,1.82,,,,,,,,,d,orange,5798be2b913c710001976173,2021-09-27_12h45.29.527,forced_choiceRT_color,2021.2.3,Win32,59.93766483,,,,,,,,7,Slow,long,d,1,2.1168,2,2,10,0,1,,,,,
,1.52,,,,,,,,,f,blue,5798be2b913c710001976173,2021-09-27_12h45.29.527,forced_choiceRT_color,2021.2.3,Win32,59.93766483,,,,,,,,7,Slow,long,f,1,2.1007,2,3,11,1,1,,,,,
,0.11,,,,,,,,,k,purple,5798be2b913c710001976173,2021-09-27_12h45.29.527,forced_choiceRT_color,2021.2.3,Win32,59.93766483,,,,,,,,7,Ontime,long,k,1,2.0421,3,0,12,3,1,,,,,
,0.15,,,,,,,,,f,blue,5798be2b913c710001976173,2021-09-27_12h45.29.527,forced_choiceRT_color,2021.2.3,Win32,59.93766483,,,,,,,,7,Ontime,long,f,1,2.0664,3,1,13,1,1,,,,,
,1.79,,,,,,,,,j,red,5798be2b913c710001976173,2021-09-27_12h45.29.527,forced_choiceRT_color,2021.2.3,Win32,59.93766483,,,,,,,,7,Slow,long,j,1,2.1214,3,2,14,2,1,,,,,
,0.47,,,,,,,,,f,blue,5798be2b913c710001976173,2021-09-27_12h45.29.527,forced_choiceRT_color,2021.2.3,Win32,59.93766483,,,,,,,,7,Ontime,long,f,1,2.0551,3,3,15,1,1,,,,,
,0.35,,,,,,,,,d,orange,5798be2b913c710001976173,2021-09-27_12h45.29.527,forced_choiceRT_color,2021.2.3,Win32,59.93766483,,,,,,,,7,Ontime,long,d,1,1.9802,4,0,16,0,1,,,,,
,0.49,,,,,,,,,d,orange,5798be2b913c710001976173,2021-09-27_12h45.29.527,forced_choiceRT_color,2021.2.3,Win32,59.93766483,,,,,,,,7,Ontime,long,d,1,2.0178,4,1,17,0,1,,,,,
,0.73,,,,,,,,,f,blue,5798be2b913c710001976173,2021-09-27_12h45.29.527,forced_choiceRT_color,2021.2.3,Win32,59.93766483,,,,,,,,7,Ontime,long,f,1,1.935,4,2,18,1,1,,,,,
,1.57,,,,,,,,,k,purple,5798be2b913c710001976173,2021-09-27_12h45.29.527,forced_choiceRT_color,2021.2.3,Win32,59.93766483,,,,,,,,7,Ontime,long,k,1,1.9902,4,3,19,3,1,,,,,
,1.86,,,,,,,,,f,blue,5798be2b913c710001976173,2021-09-27_12h45.29.527,forced_choiceRT_color,2021.2.3,Win32,59.93766483,,,,,,,,7,Ontime,long,j,0,2.0862,5,0,20,1,1,,,,,
,1.61,,,,,,,,,k,purple,5798be2b913c710001976173,2021-09-27_12h45.29.527,forced_choiceRT_color,2021.2.3,Win32,59.93766483,,,,,,,,7,Ontime,long,d,0,2.0499,5,1,21,3,1,,,,,
,0.52,,,,,,,,,k,purple,5798be2b913c710001976173,2021-09-27_12h45.29.527,forced_choiceRT_color,2021.2.3,Win32,59.93766483,,,,,,,,7,Ontime,long,k,1,1.9846,5,2,22,3,1,,,,,
,0.83,,,,,,,,,f,blue,5798be2b913c710001976173,2021-09-27_12h45.29.527,forced_choiceRT_color,2021.2.3,Win32,59.93766483,,,,,,,,7,Ontime,long,f,1,1.9572,5,3,23,1,1,,,,,
,1.6,,,,,,,,,k,purple,5798be2b913c710001976173,2021-09-27_12h45.29.527,forced_choiceRT_color,2021.2.3,Win32,59.93766483,,,,,,,,7,Ontime,long,k,1,1.9534,6,0,24,3,1,,,,,
,1.71,,,,,,,,,j,red,5798be2b913c710001976173,2021-09-27_12h45.29.527,forced_choiceRT_color,2021.2.3,Win32,59.93766483,,,,,,,,7,Slow,long,j,1,2.1384,6,1,25,2,1,,,,,
,0.46,,,,,,,,,j,red,5798be2b913c710001976173,2021-09-27_12h45.29.527,forced_choiceRT_color,2021.2.3,Win32,59.93766483,,,,,,,,7,Ontime,long,j,1,2.0013,6,2,26,2,1,,,,,
,1.01,,,,,,,,,d,orange,5798be2b913c710001976173,2021-09-27_12h45.29.527,forced_choiceRT_color,2021.2.3,Win32,59.93766483,,,,,,,,7,Ontime,long,d,1,1.9812,6,3,27,0,1,,,,,
,0.46,,,,,,,,,d,orange,5798be2b913c710001976173,2021-09-27_12h45.29.527,forced_choiceRT_color,2021.2.3,Win32,59.93766483,,,,,,,,7,Ontime,long,d,1,1.9825,7,0,28,0,1,,,,,
,0.76,,,,,,,,,j,red,5798be2b913c710001976173,2021-09-27_12h45.29.527,forced_choiceRT_color,2021.2.3,Win32,59.93766483,,,,,,,,7,Ontime,long,j,1,1.936,7,1,29,2,1,,,,,
,1.49,,,,,,,,,j,red,5798be2b913c710001976173,2021-09-27_12h45.29.527,forced_choiceRT_color,2021.2.3,Win32,59.93766483,,,,,,,,7,Ontime,long,j,1,1.982,7,2,30,2,1,,,,,
,1.36,,,,,,,,,k,purple,5798be2b913c710001976173,2021-09-27_12h45.29.527,forced_choiceRT_color,2021.2.3,Win32,59.93766483,,,,,,,,7,Slow,long,k,1,2.2037,7,3,31,3,1,,,,,
,0.16,,,,,,,,,j,red,5798be2b913c710001976173,2021-09-27_12h45.29.527,forced_choiceRT_color,2021.2.3,Win32,59.93766483,,,,,,,,7,Ontime,long,j,1,1.9375,8,0,32,2,1,,,,,
,1.57,,,,,,,,,d,orange,5798be2b913c710001976173,2021-09-27_12h45.29.527,forced_choiceRT_color,2021.2.3,Win32,59.93766483,,,,,,,,7,Ontime,long,d,1,1.9395,8,1,33,0,1,,,,,
,1.64,,,,,,,,,k,purple,5798be2b913c710001976173,2021-09-27_12h45.29.527,forced_choiceRT_color,2021.2.3,Win32,59.93766483,,,,,,,,7,Slow,long,k,1,2.3238,8,2,34,3,1,,,,,
,1.4,,,,,,,,,k,purple,5798be2b913c710001976173,2021-09-27_12h45.29.527,forced_choiceRT_color,2021.2.3,Win32,59.93766483,,,,,,,,7,Ontime,long,k,1,1.9818,8,3,35,3,1,,,,,
,1.26,,,,,,,,,j,red,5798be2b913c710001976173,2021-09-27_12h45.29.527,forced_choiceRT_color,2021.2.3,Win32,59.93766483,,,,,,,,7,Ontime,long,j,1,1.9041,9,0,36,2,1,,,,,
,1.76,,,,,,,,,d,orange,5798be2b913c710001976173,2021-09-27_12h45.29.527,forced_choiceRT_color,2021.2.3,Win32,59.93766483,,,,,,,,7,Ontime,long,k,0,1.9841,9,1,37,0,1,,,,,
,0.83,,,,,,,,,f,blue,5798be2b913c710001976173,2021-09-27_12h45.29.527,forced_choiceRT_color,2021.2.3,Win32,59.93766483,,,,,,,,7,Ontime,long,f,1,1.9873,9,2,38,1,1,,,,,
,1.08,,,,,,,,,k,purple,5798be2b913c710001976173,2021-09-27_12h45.29.527,forced_choiceRT_color,2021.2.3,Win32,59.93766483,,,,,,,,7,Ontime,long,k,1,1.9848,9,3,39,3,1,,,,,
,,,,,,,,,,,,5798be2b913c710001976173,2021-09-27_12h45.29.527,forced_choiceRT_color,2021.2.3,Win32,59.93766483,,,,,,,,,,,,,,,,,,,6,0,6,0,1
,1.52,,,,,,,,,d,orange,5798be2b913c710001976173,2021-09-27_12h45.29.527,forced_choiceRT_color,2021.2.3,Win32,59.93766483,,,,,,,,8,Ontime,long,d,1,2.009,0,0,0,0,1,,,,,
,1.7,,,,,,,,,k,purple,5798be2b913c710001976173,2021-09-27_12h45.29.527,forced_choiceRT_color,2021.2.3,Win32,59.93766483,,,,,,,,8,Ontime,long,j,0,2.0686,0,1,1,3,1,,,,,
,0.09,,,,,,,,,j,red,5798be2b913c710001976173,2021-09-27_12h45.29.527,forced_choiceRT_color,2021.2.3,Win32,59.93766483,,,,,,,,8,Ontime,long,j,1,2.0305,0,2,2,2,1,,,,,
,0.12,,,,,,,,,j,red,5798be2b913c710001976173,2021-09-27_12h45.29.527,forced_choiceRT_color,2021.2.3,Win32,59.93766483,,,,,,,,8,Ontime,long,j,1,2.0081,0,3,3,2,1,,,,,
,1.45,,,,,,,,,j,red,5798be2b913c710001976173,2021-09-27_12h45.29.527,forced_choiceRT_color,2021.2.3,Win32,59.93766483,,,,,,,,8,Ontime,long,j,1,2.016,1,0,4,2,1,,,,,
,1.68,,,,,,,,,k,purple,5798be2b913c710001976173,2021-09-27_12h45.29.527,forced_choiceRT_color,2021.2.3,Win32,59.93766483,,,,,,,,8,Ontime,long,d,0,2.0823,1,1,5,3,1,,,,,
,1.1,,,,,,,,,k,purple,5798be2b913c710001976173,2021-09-27_12h45.29.527,forced_choiceRT_color,2021.2.3,Win32,59.93766483,,,,,,,,8,Ontime,long,k,1,2.0186,1,2,6,3,1,,,,,
,1.84,,,,,,,,,k,purple,5798be2b913c710001976173,2021-09-27_12h45.29.527,forced_choiceRT_color,2021.2.3,Win32,59.93766483,,,,,,,,8,Ontime,long,k,1,2.0709,1,3,7,3,1,,,,,
,1.92,,,,,,,,,j,red,5798be2b913c710001976173,2021-09-27_12h45.29.527,forced_choiceRT_color,2021.2.3,Win32,59.93766483,,,,,,,,8,Ontime,long,k,0,2.0875,2,0,8,2,1,,,,,
,0.77,,,,,,,,,f,blue,5798be2b913c710001976173,2021-09-27_12h45.29.527,forced_choiceRT_color,2021.2.3,Win32,59.93766483,,,,,,,,8,Ontime,long,f,1,2.0015,2,1,9,1,1,,,,,
,1.03,,,,,,,,,f,blue,5798be2b913c710001976173,2021-09-27_12h45.29.527,forced_choiceRT_color,2021.2.3,Win32,59.93766483,,,,,,,,8,Ontime,long,f,1,1.9861,2,2,10,1,1,,,,,
,0.2,,,,,,,,,f,blue,5798be2b913c710001976173,2021-09-27_12h45.29.527,forced_choiceRT_color,2021.2.3,Win32,59.93766483,,,,,,,,8,Ontime,long,f,1,2.0022,2,3,11,1,1,,,,,
,0.71,,,,,,,,,j,red,5798be2b913c710001976173,2021-09-27_12h45.29.527,forced_choiceRT_color,2021.2.3,Win32,59.93766483,,,,,,,,8,Ontime,long,j,1,1.979,3,0,12,2,1,,,,,
,0.94,,,,,,,,,j,red,5798be2b913c710001976173,2021-09-27_12h45.29.527,forced_choiceRT_color,2021.2.3,Win32,59.93766483,,,,,,,,8,Ontime,long,j,1,1.9962,3,1,13,2,1,,,,,
,0.44,,,,,,,,,f,blue,5798be2b913c710001976173,2021-09-27_12h45.29.527,forced_choiceRT_color,2021.2.3,Win32,59.93766483,,,,,,,,8,Ontime,long,f,1,2.0355,3,2,14,1,1,,,,,
,0.31,,,,,,,,,k,purple,5798be2b913c710001976173,2021-09-27_12h45.29.527,forced_choiceRT_color,2021.2.3,Win32,59.93766483,,,,,,,,8,Ontime,long,k,1,2.0169,3,3,15,3,1,,,,,
,1.41,,,,,,,,,k,purple,5798be2b913c710001976173,2021-09-27_12h45.29.527,forced_choiceRT_color,2021.2.3,Win32,59.93766483,,,,,,,,8,Ontime,long,k,1,2.0087,4,0,16,3,1,,,,,
,0.65,,,,,,,,,k,purple,5798be2b913c710001976173,2021-09-27_12h45.29.527,forced_choiceRT_color,2021.2.3,Win32,59.93766483,,,,,,,,8,Ontime,long,k,1,1.9997,4,1,17,3,1,,,,,
,0.02,,,,,,,,,d,orange,5798be2b913c710001976173,2021-09-27_12h45.29.527,forced_choiceRT_color,2021.2.3,Win32,59.93766483,,,,,,,,8,Ontime,long,d,1,2.0323,4,2,18,0,1,,,,,
,1.01,,,,,,,,,f,blue,5798be2b913c710001976173,2021-09-27_12h45.29.527,forced_choiceRT_color,2021.2.3,Win32,59.93766483,,,,,,,,8,Ontime,long,f,1,1.9844,4,3,19,1,1,,,,,
,1.86,,,,,,,,,j,red,5798be2b913c710001976173,2021-09-27_12h45.29.527,forced_choiceRT_color,2021.2.3,Win32,59.93766483,,,,,,,,8,Ontime,long,k,0,2.0166,5,0,20,2,1,,,,,
,1.32,,,,,,,,,k,purple,5798be2b913c710001976173,2021-09-27_12h45.29.527,forced_choiceRT_color,2021.2.3,Win32,59.93766483,,,,,,,,8,Ontime,long,k,1,1.9833,5,1,21,3,1,,,,,
,0.39,,,,,,,,,d,orange,5798be2b913c710001976173,2021-09-27_12h45.29.527,forced_choiceRT_color,2021.2.3,Win32,59.93766483,,,,,,,,8,Ontime,long,d,1,1.9522,5,2,22,0,1,,,,,
,1.88,,,,,,,,,j,red,5798be2b913c710001976173,2021-09-27_12h45.29.527,forced_choiceRT_color,2021.2.3,Win32,59.93766483,,,,,,,,8,Ontime,long,k,0,2.006,5,3,23,2,1,,,,,
,0.54,,,,,,,,,d,orange,5798be2b913c710001976173,2021-09-27_12h45.29.527,forced_choiceRT_color,2021.2.3,Win32,59.93766483,,,,,,,,8,Ontime,long,d,1,1.9926,6,0,24,0,1,,,,,
,0.25,,,,,,,,,d,orange,5798be2b913c710001976173,2021-09-27_12h45.29.527,forced_choiceRT_color,2021.2.3,Win32,59.93766483,,,,,,,,8,Ontime,long,d,1,1.958,6,1,25,0,1,,,,,
,0.35,,,,,,,,,j,red,5798be2b913c710001976173,2021-09-27_12h45.29.527,forced_choiceRT_color,2021.2.3,Win32,59.93766483,,,,,,,,8,Ontime,long,j,1,2.0697,6,2,26,2,1,,,,,
,1.14,,,,,,,,,f,blue,5798be2b913c710001976173,2021-09-27_12h45.29.527,forced_choiceRT_color,2021.2.3,Win32,59.93766483,,,,,,,,8,Ontime,long,f,1,2.0191,6,3,27,1,1,,,,,
,1.9,,,,,,,,,d,orange,5798be2b913c710001976173,2021-09-27_12h45.29.527,forced_choiceRT_color,2021.2.3,Win32,59.93766483,,,,,,,,8,Ontime,long,k,0,2.0375,7,0,28,0,1,,,,,
,0.11,,,,,,,,,d,orange,5798be2b913c710001976173,2021-09-27_12h45.29.527,forced_choiceRT_color,2021.2.3,Win32,59.93766483,,,,,,,,8,Ontime,long,d,1,2.0239,7,1,29,0,1,,,,,
,1.13,,,,,,,,,d,orange,5798be2b913c710001976173,2021-09-27_12h45.29.527,forced_choiceRT_color,2021.2.3,Win32,59.93766483,,,,,,,,8,Ontime,long,d,1,1.9894,7,2,30,0,1,,,,,
,0.55,,,,,,,,,k,purple,5798be2b913c710001976173,2021-09-27_12h45.29.527,forced_choiceRT_color,2021.2.3,Win32,59.93766483,,,,,,,,8,Ontime,long,k,1,2.0253,7,3,31,3,1,,,,,
,1.05,,,,,,,,,j,red,5798be2b913c710001976173,2021-09-27_12h45.29.527,forced_choiceRT_color,2021.2.3,Win32,59.93766483,,,,,,,,8,Ontime,long,j,1,2.0046,8,0,32,2,1,,,,,
,0.17,,,,,,,,,f,blue,5798be2b913c710001976173,2021-09-27_12h45.29.527,forced_choiceRT_color,2021.2.3,Win32,59.93766483,,,,,,,,8,Ontime,long,f,1,1.9783,8,1,33,1,1,,,,,
,0.65,,,,,,,,,f,blue,5798be2b913c710001976173,2021-09-27_12h45.29.527,forced_choiceRT_color,2021.2.3,Win32,59.93766483,,,,,,,,8,Ontime,long,f,1,2.0653,8,2,34,1,1,,,,,
,0.49,,,,,,,,,d,orange,5798be2b913c710001976173,2021-09-27_12h45.29.527,forced_choiceRT_color,2021.2.3,Win32,59.93766483,,,,,,,,8,Ontime,long,d,1,1.9792,8,3,35,0,1,,,,,
,0.18,,,,,,,,,d,orange,5798be2b913c710001976173,2021-09-27_12h45.29.527,forced_choiceRT_color,2021.2.3,Win32,59.93766483,,,,,,,,8,Ontime,long,d,1,1.999,9,0,36,0,1,,,,,
,1.12,,,,,,,,,f,blue,5798be2b913c710001976173,2021-09-27_12h45.29.527,forced_choiceRT_color,2021.2.3,Win32,59.93766483,,,,,,,,8,Ontime,long,f,1,2.0066,9,1,37,1,1,,,,,
,1.82,,,,,,,,,k,purple,5798be2b913c710001976173,2021-09-27_12h45.29.527,forced_choiceRT_color,2021.2.3,Win32,59.93766483,,,,,,,,8,Slow,long,k,1,2.1764,9,2,38,3,1,,,,,
,1.46,,,,,,,,,f,blue,5798be2b913c710001976173,2021-09-27_12h45.29.527,forced_choiceRT_color,2021.2.3,Win32,59.93766483,,,,,,,,8,Ontime,long,f,1,2.0186,9,3,39,1,1,,,,,
,,,,,,,,,,,,5798be2b913c710001976173,2021-09-27_12h45.29.527,forced_choiceRT_color,2021.2.3,Win32,59.93766483,,,,,,,,,,,,,,,,,,,7,0,7,0,1
,0.69,,,,,,,,,k,purple,5798be2b913c710001976173,2021-09-27_12h45.29.527,forced_choiceRT_color,2021.2.3,Win32,59.93766483,,,,,,,,9,Ontime,long,k,1,1.9628,0,0,0,3,1,,,,,
,0.47,,,,,,,,,f,blue,5798be2b913c710001976173,2021-09-27_12h45.29.527,forced_choiceRT_color,2021.2.3,Win32,59.93766483,,,,,,,,9,Ontime,long,f,1,1.9813,0,1,1,1,1,,,,,
,1.45,,,,,,,,,j,red,5798be2b913c710001976173,2021-09-27_12h45.29.527,forced_choiceRT_color,2021.2.3,Win32,59.93766483,,,,,,,,9,Ontime,long,j,1,1.9762,0,2,2,2,1,,,,,
,0.62,,,,,,,,,d,orange,5798be2b913c710001976173,2021-09-27_12h45.29.527,forced_choiceRT_color,2021.2.3,Win32,59.93766483,,,,,,,,9,Ontime,long,d,1,2.0008,0,3,3,0,1,,,,,
,0.17,,,,,,,,,f,blue,5798be2b913c710001976173,2021-09-27_12h45.29.527,forced_choiceRT_color,2021.2.3,Win32,59.93766483,,,,,,,,9,Ontime,long,f,1,1.9976,1,0,4,1,1,,,,,
,0.38,,,,,,,,,d,orange,5798be2b913c710001976173,2021-09-27_12h45.29.527,forced_choiceRT_color,2021.2.3,Win32,59.93766483,,,,,,,,9,Ontime,long,d,1,2.0017,1,1,5,0,1,,,,,
,1.35,,,,,,,,,j,red,5798be2b913c710001976173,2021-09-27_12h45.29.527,forced_choiceRT_color,2021.2.3,Win32,59.93766483,,,,,,,,9,Ontime,long,f,0,2.0758,1,2,6,2,1,,,,,
,0.32,,,,,,,,,k,purple,5798be2b913c710001976173,2021-09-27_12h45.29.527,forced_choiceRT_color,2021.2.3,Win32,59.93766483,,,,,,,,9,Ontime,long,k,1,2.04,1,3,7,3,1,,,,,
,0.56,,,,,,,,,f,blue,5798be2b913c710001976173,2021-09-27_12h45.29.527,forced_choiceRT_color,2021.2.3,Win32,59.93766483,,,,,,,,9,Ontime,long,f,1,2.0343,2,0,8,1,1,,,,,
,0.63,,,,,,,,,f,blue,5798be2b913c710001976173,2021-09-27_12h45.29.527,forced_choiceRT_color,2021.2.3,Win32,59.93766483,,,,,,,,9,Ontime,long,f,1,1.9181,2,1,9,1,1,,,,,
,0.01,,,,,,,,,k,purple,5798be2b913c710001976173,2021-09-27_12h45.29.527,forced_choiceRT_color,2021.2.3,Win32,59.93766483,,,,,,,,9,Ontime,long,k,1,1.9689,2,2,10,3,1,,,,,
,0.08,,,,,,,,,k,purple,5798be2b913c710001976173,2021-09-27_12h45.29.527,forced_choiceRT_color,2021.2.3,Win32,59.93766483,,,,,,,,9,Ontime,long,k,1,1.9852,2,3,11,3,1,,,,,
,1.21,,,,,,,,,d,orange,5798be2b913c710001976173,2021-09-27_12h45.29.527,forced_choiceRT_color,2021.2.3,Win32,59.93766483,,,,,,,,9,Ontime,long,d,1,1.9918,3,0,12,0,1,,,,,
,0.6,,,,,,,,,j,red,5798be2b913c710001976173,2021-09-27_12h45.29.527,forced_choiceRT_color,2021.2.3,Win32,59.93766483,,,,,,,,9,Ontime,long,j,1,2.0359,3,1,13,2,1,,,,,
,0.1,,,,,,,,,k,purple,5798be2b913c710001976173,2021-09-27_12h45.29.527,forced_choiceRT_color,2021.2.3,Win32,59.93766483,,,,,,,,9,Ontime,long,k,1,1.9364,3,2,14,3,1,,,,,
,1.43,,,,,,,,,d,orange,5798be2b913c710001976173,2021-09-27_12h45.29.527,forced_choiceRT_color,2021.2.3,Win32,59.93766483,,,,,,,,9,Ontime,long,d,1,1.9214,3,3,15,0,1,,,,,
,1.86,,,,,,,,,k,purple,5798be2b913c710001976173,2021-09-27_12h45.29.527,forced_choiceRT_color,2021.2.3,Win32,59.93766483,,,,,,,,9,Ontime,long,k,1,2.0552,4,0,16,3,1,,,,,
,0.53,,,,,,,,,j,red,5798be2b913c710001976173,2021-09-27_12h45.29.527,forced_choiceRT_color,2021.2.3,Win32,59.93766483,,,,,,,,9,Ontime,long,j,1,1.9801,4,1,17,2,1,,,,,
,1.57,,,,,,,,,j,red,5798be2b913c710001976173,2021-09-27_12h45.29.527,forced_choiceRT_color,2021.2.3,Win32,59.93766483,,,,,,,,9,Ontime,long,j,1,2.026,4,2,18,2,1,,,,,
,1.72,,,,,,,,,d,orange,5798be2b913c710001976173,2021-09-27_12h45.29.527,forced_choiceRT_color,2021.2.3,Win32,59.93766483,,,,,,,,9,Ontime,long,f,0,1.9924,4,3,19,0,1,,,,,
,0.1,,,,,,,,,f,blue,5798be2b913c710001976173,2021-09-27_12h45.29.527,forced_choiceRT_color,2021.2.3,Win32,59.93766483,,,,,,,,9,Ontime,long,f,1,2.0345,5,0,20,1,1,,,,,
,1.99,,,,,,,,,j,red,5798be2b913c710001976173,2021-09-27_12h45.29.527,forced_choiceRT_color,2021.2.3,Win32,59.93766483,,,,,,,,9,Ontime,long,k,0,1.9476,5,1,21,2,1,,,,,
,0.16,,,,,,,,,d,orange,5798be2b913c710001976173,2021-09-27_12h45.29.527,forced_choiceRT_color,2021.2.3,Win32,59.93766483,,,,,,,,9,Ontime,long,d,1,2.0344,5,2,22,0,1,,,,,
,1.23,,,,,,,,,f,blue,5798be2b913c710001976173,2021-09-27_12h45.29.527,forced_choiceRT_color,2021.2.3,Win32,59.93766483,,,,,,,,9,Ontime,long,f,1,2.0188,5,3,23,1,1,,,,,
,1.51,,,,,,,,,k,purple,5798be2b913c710001976173,2021-09-27_12h45.29.527,forced_choiceRT_color,2021.2.3,Win32,59.93766483,,,,,,,,9,Ontime,long,k,1,2.0852,6,0,24,3,1,,,,,
,0.18,,,,,,,,,f,blue,5798be2b913c710001976173,2021-09-27_12h45.29.527,forced_choiceRT_color,2021.2.3,Win32,59.93766483,,,,,,,,9,Ontime,long,f,1,2.0503,6,1,25,1,1,,,,,
,1.67,,,,,,,,,j,red,5798be2b913c710001976173,2021-09-27_12h45.29.527,forced_choiceRT_color,2021.2.3,Win32,59.93766483,,,,,,,,9,Ontime,long,k,0,2.0175,6,2,26,2,1,,,,,
,1.13,,,,,,,,,f,blue,5798be2b913c710001976173,2021-09-27_12h45.29.527,forced_choiceRT_color,2021.2.3,Win32,59.93766483,,,,,,,,9,Ontime,long,f,1,1.9852,6,3,27,1,1,,,,,
,0.74,,,,,,,,,j,red,5798be2b913c710001976173,2021-09-27_12h45.29.527,forced_choiceRT_color,2021.2.3,Win32,59.93766483,,,,,,,,9,Ontime,long,j,1,1.9525,7,0,28,2,1,,,,,
,1.02,,,,,,,,,d,orange,5798be2b913c710001976173,2021-09-27_12h45.29.527,forced_choiceRT_color,2021.2.3,Win32,59.93766483,,,,,,,,9,Ontime,long,d,1,1.9545,7,1,29,0,1,,,,,
,1.26,,,,,,,,,d,orange,5798be2b913c710001976173,2021-09-27_12h45.29.527,forced_choiceRT_color,2021.2.3,Win32,59.93766483,,,,,,,,9,Ontime,long,d,1,2.026,7,2,30,0,1,,,,,
,1.28,,,,,,,,,d,orange,5798be2b913c710001976173,2021-09-27_12h45.29.527,forced_choiceRT_color,2021.2.3,Win32,59.93766483,,,,,,,,9,Ontime,long,d,1,2.036,7,3,31,0,1,,,,,
,0.12,,,,,,,,,k,purple,5798be2b913c710001976173,2021-09-27_12h45.29.527,forced_choiceRT_color,2021.2.3,Win32,59.93766483,,,,,,,,9,Ontime,long,k,1,2.0003,8,0,32,3,1,,,,,
,1.97,,,,,,,,,k,purple,5798be2b913c710001976173,2021-09-27_12h45.29.527,forced_choiceRT_color,2021.2.3,Win32,59.93766483,,,,,,,,9,Ontime,long,f,0,2.0167,8,1,33,3,1,,,,,
,0.71,,,,,,,,,d,orange,5798be2b913c710001976173,2021-09-27_12h45.29.527,forced_choiceRT_color,2021.2.3,Win32,59.93766483,,,,,,,,9,Ontime,long,d,1,2.0239,8,2,34,0,1,,,,,
,1.8,,,,,,,,,k,purple,5798be2b913c710001976173,2021-09-27_12h45.29.527,forced_choiceRT_color,2021.2.3,Win32,59.93766483,,,,,,,,9,Slow,long,k,1,2.1544,8,3,35,3,1,,,,,
,0.68,,,,,,,,,j,red,5798be2b913c710001976173,2021-09-27_12h45.29.527,forced_choiceRT_color,2021.2.3,Win32,59.93766483,,,,,,,,9,Ontime,long,j,1,1.9576,9,0,36,2,1,,,,,
,0.21,,,,,,,,,f,blue,5798be2b913c710001976173,2021-09-27_12h45.29.527,forced_choiceRT_color,2021.2.3,Win32,59.93766483,,,,,,,,9,Ontime,long,f,1,2.0503,9,1,37,1,1,,,,,
,0.17,,,,,,,,,f,blue,5798be2b913c710001976173,2021-09-27_12h45.29.527,forced_choiceRT_color,2021.2.3,Win32,59.93766483,,,,,,,,9,Ontime,long,f,1,2.0016,9,2,38,1,1,,,,,
,0.67,,,,,,,,,j,red,5798be2b913c710001976173,2021-09-27_12h45.29.527,forced_choiceRT_color,2021.2.3,Win32,59.93766483,,,,,,,,9,Ontime,long,j,1,1.9342,9,3,39,2,1,,,,,
,,,,,,,,,,,,5798be2b913c710001976173,2021-09-27_12h45.29.527,forced_choiceRT_color,2021.2.3,Win32,59.93766483,,,,,,,,,,,,,,,,,,,8,0,8,0,1
,0.84,,,,,,,,,d,orange,5798be2b913c710001976173,2021-09-27_12h45.29.527,forced_choiceRT_color,2021.2.3,Win32,59.93766483,,,,,,,,10,Slow,long,d,1,2.2149,0,0,0,0,1,,,,,
,0.35,,,,,,,,,d,orange,5798be2b913c710001976173,2021-09-27_12h45.29.527,forced_choiceRT_color,2021.2.3,Win32,59.93766483,,,,,,,,10,Ontime,long,d,1,1.933,0,1,1,0,1,,,,,
,1.58,,,,,,,,,j,red,5798be2b913c710001976173,2021-09-27_12h45.29.527,forced_choiceRT_color,2021.2.3,Win32,59.93766483,,,,,,,,10,Ontime,long,k,0,1.9754,0,2,2,2,1,,,,,
,1.15,,,,,,,,,d,orange,5798be2b913c710001976173,2021-09-27_12h45.29.527,forced_choiceRT_color,2021.2.3,Win32,59.93766483,,,,,,,,10,Ontime,long,d,1,2.0508,0,3,3,0,1,,,,,
,0.25,,,,,,,,,d,orange,5798be2b913c710001976173,2021-09-27_12h45.29.527,forced_choiceRT_color,2021.2.3,Win32,59.93766483,,,,,,,,10,Ontime,long,d,1,2.0544,1,0,4,0,1,,,,,
,0.75,,,,,,,,,k,purple,5798be2b913c710001976173,2021-09-27_12h45.29.527,forced_choiceRT_color,2021.2.3,Win32,59.93766483,,,,,,,,10,Ontime,long,k,1,2.0206,1,1,5,3,1,,,,,
,0.1,,,,,,,,,k,purple,5798be2b913c710001976173,2021-09-27_12h45.29.527,forced_choiceRT_color,2021.2.3,Win32,59.93766483,,,,,,,,10,Ontime,long,k,1,2.0584,1,2,6,3,1,,,,,
,1.88,,,,,,,,,d,orange,5798be2b913c710001976173,2021-09-27_12h45.29.527,forced_choiceRT_color,2021.2.3,Win32,59.93766483,,,,,,,,10,Ontime,long,j,0,2.0234,1,3,7,0,1,,,,,
,0.23,,,,,,,,,f,blue,5798be2b913c710001976173,2021-09-27_12h45.29.527,forced_choiceRT_color,2021.2.3,Win32,59.93766483,,,,,,,,10,Ontime,long,f,1,1.9675,2,0,8,1,1,,,,,
,1.07,,,,,,,,,d,orange,5798be2b913c710001976173,2021-09-27_12h45.29.527,forced_choiceRT_color,2021.2.3,Win32,59.93766483,,,,,,,,10,Ontime,long,d,1,1.9858,2,1,9,0,1,,,,,
,0.22,,,,,,,,,f,blue,5798be2b913c710001976173,2021-09-27_12h45.29.527,forced_choiceRT_color,2021.2.3,Win32,59.93766483,,,,,,,,10,Ontime,long,f,1,1.9844,2,2,10,1,1,,,,,
,0.44,,,,,,,,,k,purple,5798be2b913c710001976173,2021-09-27_12h45.29.527,forced_choiceRT_color,2021.2.3,Win32,59.93766483,,,,,,,,10,Ontime,long,k,1,2.051,2,3,11,3,1,,,,,
,0.04,,,,,,,,,j,red,5798be2b913c710001976173,2021-09-27_12h45.29.527,forced_choiceRT_color,2021.2.3,Win32,59.93766483,,,,,,,,10,Ontime,long,j,1,1.9656,3,0,12,2,1,,,,,
,0.42,,,,,,,,,f,blue,5798be2b913c710001976173,2021-09-27_12h45.29.527,forced_choiceRT_color,2021.2.3,Win32,59.93766483,,,,,,,,10,Ontime,long,f,1,2.0161,3,1,13,1,1,,,,,
,0.41,,,,,,,,,d,orange,5798be2b913c710001976173,2021-09-27_12h45.29.527,forced_choiceRT_color,2021.2.3,Win32,59.93766483,,,,,,,,10,Ontime,long,d,1,2.0039,3,2,14,0,1,,,,,
,1.51,,,,,,,,,f,blue,5798be2b913c710001976173,2021-09-27_12h45.29.527,forced_choiceRT_color,2021.2.3,Win32,59.93766483,,,,,,,,10,Ontime,long,d,0,1.9841,3,3,15,1,1,,,,,
,1.57,,,,,,,,,j,red,5798be2b913c710001976173,2021-09-27_12h45.29.527,forced_choiceRT_color,2021.2.3,Win32,59.93766483,,,,,,,,10,Slow,long,j,1,2.1055,4,0,16,2,1,,,,,
,1.66,,,,,,,,,k,purple,5798be2b913c710001976173,2021-09-27_12h45.29.527,forced_choiceRT_color,2021.2.3,Win32,59.93766483,,,,,,,,10,Slow,long,j,0,2.5513,4,1,17,3,1,,,,,
,0.08,,,,,,,,,j,red,5798be2b913c710001976173,2021-09-27_12h45.29.527,forced_choiceRT_color,2021.2.3,Win32,59.93766483,,,,,,,,10,Slow,long,j,1,4.953,4,2,18,2,1,,,,,
,1.91,,,,,,,,,f,blue,5798be2b913c710001976173,2021-09-27_12h45.29.527,forced_choiceRT_color,2021.2.3,Win32,59.93766483,,,,,,,,10,Slow,long,k,0,2.1161,4,3,19,1,1,,,,,
,1.88,,,,,,,,,f,blue,5798be2b913c710001976173,2021-09-27_12h45.29.527,forced_choiceRT_color,2021.2.3,Win32,59.93766483,,,,,,,,10,Ontime,long,f,1,2.0761,5,0,20,1,1,,,,,
,1.72,,,,,,,,,d,orange,5798be2b913c710001976173,2021-09-27_12h45.29.527,forced_choiceRT_color,2021.2.3,Win32,59.93766483,,,,,,,,10,Ontime,long,d,1,2.059,5,1,21,0,1,,,,,
,1.71,,,,,,,,,f,blue,5798be2b913c710001976173,2021-09-27_12h45.29.527,forced_choiceRT_color,2021.2.3,Win32,59.93766483,,,,,,,,10,Slow,long,f,1,2.1319,5,2,22,1,1,,,,,
,1.29,,,,,,,,,d,orange,5798be2b913c710001976173,2021-09-27_12h45.29.527,forced_choiceRT_color,2021.2.3,Win32,59.93766483,,,,,,,,10,Ontime,long,d,1,1.9091,5,3,23,0,1,,,,,
,0.72,,,,,,,,,j,red,5798be2b913c710001976173,2021-09-27_12h45.29.527,forced_choiceRT_color,2021.2.3,Win32,59.93766483,,,,,,,,10,Ontime,long,j,1,1.9345,6,0,24,2,1,,,,,
,0.86,,,,,,,,,f,blue,5798be2b913c710001976173,2021-09-27_12h45.29.527,forced_choiceRT_color,2021.2.3,Win32,59.93766483,,,,,,,,10,Ontime,long,f,1,2.0574,6,1,25,1,1,,,,,
,1.56,,,,,,,,,j,red,5798be2b913c710001976173,2021-09-27_12h45.29.527,forced_choiceRT_color,2021.2.3,Win32,59.93766483,,,,,,,,10,Ontime,long,j,1,2.0309,6,2,26,2,1,,,,,
,1.3,,,,,,,,,f,blue,5798be2b913c710001976173,2021-09-27_12h45.29.527,forced_choiceRT_color,2021.2.3,Win32,59.93766483,,,,,,,,10,Ontime,long,f,1,2.0524,6,3,27,1,1,,,,,
,1.82,,,,,,,,,j,red,5798be2b913c710001976173,2021-09-27_12h45.29.527,forced_choiceRT_color,2021.2.3,Win32,59.93766483,,,,,,,,10,Slow,long,j,1,2.1443,7,0,28,2,1,,,,,
,0.53,,,,,,,,,k,purple,5798be2b913c710001976173,2021-09-27_12h45.29.527,forced_choiceRT_color,2021.2.3,Win32,59.93766483,,,,,,,,10,Ontime,long,k,1,1.9767,7,1,29,3,1,,,,,
,0.21,,,,,,,,,k,purple,5798be2b913c710001976173,2021-09-27_12h45.29.527,forced_choiceRT_color,2021.2.3,Win32,59.93766483,,,,,,,,10,Ontime,long,k,1,2.0405,7,2,30,3,1,,,,,
,1.86,,,,,,,,,j,red,5798be2b913c710001976173,2021-09-27_12h45.29.527,forced_choiceRT_color,2021.2.3,Win32,59.93766483,,,,,,,,10,Ontime,long,j,1,2.0381,7,3,31,2,1,,,,,
,1.51,,,,,,,,,k,purple,5798be2b913c710001976173,2021-09-27_12h45.29.527,forced_choiceRT_color,2021.2.3,Win32,59.93766483,,,,,,,,10,Ontime,long,k,1,2.0185,8,0,32,3,1,,,,,
,1.81,,,,,,,,,f,blue,5798be2b913c710001976173,2021-09-27_12h45.29.527,forced_choiceRT_color,2021.2.3,Win32,59.93766483,,,,,,,,10,Ontime,long,j,0,2.0653,8,1,33,1,1,,,,,
,1.54,,,,,,,,,j,red,5798be2b913c710001976173,2021-09-27_12h45.29.527,forced_choiceRT_color,2021.2.3,Win32,59.93766483,,,,,,,,10,Ontime,long,j,1,2.0661,8,2,34,2,1,,,,,
,0.91,,,,,,,,,k,purple,5798be2b913c710001976173,2021-09-27_12h45.29.527,forced_choiceRT_color,2021.2.3,Win32,59.93766483,,,,,,,,10,Ontime,long,k,1,1.9847,8,3,35,3,1,,,,,
,1.65,,,,,,,,,d,orange,5798be2b913c710001976173,2021-09-27_12h45.29.527,forced_choiceRT_color,2021.2.3,Win32,59.93766483,,,,,,,,10,Slow,long,d,1,2.1416,9,0,36,0,1,,,,,
,1.91,,,,,,,,,k,purple,5798be2b913c710001976173,2021-09-27_12h45.29.527,forced_choiceRT_color,2021.2.3,Win32,59.93766483,,,,,,,,10,Ontime,long,f,0,2.0428,9,1,37,3,1,,,,,
,0.44,,,,,,,,,k,purple,5798be2b913c710001976173,2021-09-27_12h45.29.527,forced_choiceRT_color,2021.2.3,Win32,59.93766483,,,,,,,,10,Ontime,long,k,1,1.9695,9,2,38,3,1,,,,,
,1.98,,,,,,,,,j,red,5798be2b913c710001976173,2021-09-27_12h45.29.527,forced_choiceRT_color,2021.2.3,Win32,59.93766483,,,,,,,,10,Ontime,long,k,0,1.9933,9,3,39,2,1,,,,,
,,,,,,,,,,,,5798be2b913c710001976173,2021-09-27_12h45.29.527,forced_choiceRT_color,2021.2.3,Win32,59.93766483,,,,,,,,,,,,,,,,,,,9,0,9,0,1
