target_onset,trial_resp_sp.keys,trial_resp_sp.corr,trial_resp_sp.rt,trials_train_loop.thisRepN,trials_train_loop.thisTrialN,trials_train_loop.thisN,trials_train_loop.thisIndex,trials_train_loop.ran,correct_key,color,participant,date,expName,psychopyVersion,OS,frameRate,trial_resp_timing.keys,trial_resp_timing.rt,trials_train_timing.thisRepN,trials_train_timing.thisTrialN,trials_train_timing.thisN,trials_train_timing.thisIndex,trials_train_timing.ran,block_id,ontime,feedback_cond,forcedRT_resp.keys,forcedRT_resp.corr,forcedRT_resp.rt,trials.thisRepN,trials.thisTrialN,trials.thisN,trials.thisIndex,trials.ran,blocks.thisRepN,blocks.thisTrialN,blocks.thisN,blocks.thisIndex,blocks.ran
0,f,1,2.7271,0,0,0,1,1,f,blue,583862506be00b0001cf8506,2021-09-27_13h41.36.177,forced_choiceRT_color,2021.2.3,Win32,59.84082341,,,,,,,,,,,,,,,,,,,,,,,
0,d,1,0.6756,0,1,1,0,1,d,orange,583862506be00b0001cf8506,2021-09-27_13h41.36.177,forced_choiceRT_color,2021.2.3,Win32,59.84082341,,,,,,,,,,,,,,,,,,,,,,,
0,j,1,0.6762,0,2,2,2,1,j,red,583862506be00b0001cf8506,2021-09-27_13h41.36.177,forced_choiceRT_color,2021.2.3,Win32,59.84082341,,,,,,,,,,,,,,,,,,,,,,,
0,f,1,0.6801,0,3,3,1,1,f,blue,583862506be00b0001cf8506,2021-09-27_13h41.36.177,forced_choiceRT_color,2021.2.3,Win32,59.84082341,,,,,,,,,,,,,,,,,,,,,,,
0,k,1,0.6224,1,0,4,3,1,k,purple,583862506be00b0001cf8506,2021-09-27_13h41.36.177,forced_choiceRT_color,2021.2.3,Win32,59.84082341,,,,,,,,,,,,,,,,,,,,,,,
0,d,1,0.5436,1,1,5,0,1,d,orange,583862506be00b0001cf8506,2021-09-27_13h41.36.177,forced_choiceRT_color,2021.2.3,Win32,59.84082341,,,,,,,,,,,,,,,,,,,,,,,
0,f,1,0.7009,1,2,6,1,1,f,blue,583862506be00b0001cf8506,2021-09-27_13h41.36.177,forced_choiceRT_color,2021.2.3,Win32,59.84082341,,,,,,,,,,,,,,,,,,,,,,,
0,f,1,0.5475,1,3,7,1,1,f,blue,583862506be00b0001cf8506,2021-09-27_13h41.36.177,forced_choiceRT_color,2021.2.3,Win32,59.84082341,,,,,,,,,,,,,,,,,,,,,,,
0,j,1,0.8174,2,0,8,2,1,j,red,583862506be00b0001cf8506,2021-09-27_13h41.36.177,forced_choiceRT_color,2021.2.3,Win32,59.84082341,,,,,,,,,,,,,,,,,,,,,,,
0,d,1,0.5406,2,1,9,0,1,d,orange,583862506be00b0001cf8506,2021-09-27_13h41.36.177,forced_choiceRT_color,2021.2.3,Win32,59.84082341,,,,,,,,,,,,,,,,,,,,,,,
0,f,1,0.6236,2,2,10,1,1,f,blue,583862506be00b0001cf8506,2021-09-27_13h41.36.177,forced_choiceRT_color,2021.2.3,Win32,59.84082341,,,,,,,,,,,,,,,,,,,,,,,
0,k,1,0.6346,2,3,11,3,1,k,purple,583862506be00b0001cf8506,2021-09-27_13h41.36.177,forced_choiceRT_color,2021.2.3,Win32,59.84082341,,,,,,,,,,,,,,,,,,,,,,,
0,d,1,0.5179,3,0,12,0,1,d,orange,583862506be00b0001cf8506,2021-09-27_13h41.36.177,forced_choiceRT_color,2021.2.3,Win32,59.84082341,,,,,,,,,,,,,,,,,,,,,,,
0,k,1,0.6338,3,1,13,3,1,k,purple,583862506be00b0001cf8506,2021-09-27_13h41.36.177,forced_choiceRT_color,2021.2.3,Win32,59.84082341,,,,,,,,,,,,,,,,,,,,,,,
0,f,1,0.5727,3,2,14,1,1,f,blue,583862506be00b0001cf8506,2021-09-27_13h41.36.177,forced_choiceRT_color,2021.2.3,Win32,59.84082341,,,,,,,,,,,,,,,,,,,,,,,
0,d,1,0.5079,3,3,15,0,1,d,orange,583862506be00b0001cf8506,2021-09-27_13h41.36.177,forced_choiceRT_color,2021.2.3,Win32,59.84082341,,,,,,,,,,,,,,,,,,,,,,,
0,f,1,0.641,4,0,16,1,1,f,blue,583862506be00b0001cf8506,2021-09-27_13h41.36.177,forced_choiceRT_color,2021.2.3,Win32,59.84082341,,,,,,,,,,,,,,,,,,,,,,,
0,d,1,0.5417,4,1,17,0,1,d,orange,583862506be00b0001cf8506,2021-09-27_13h41.36.177,forced_choiceRT_color,2021.2.3,Win32,59.84082341,,,,,,,,,,,,,,,,,,,,,,,
0,j,1,0.7574,4,2,18,2,1,j,red,583862506be00b0001cf8506,2021-09-27_13h41.36.177,forced_choiceRT_color,2021.2.3,Win32,59.84082341,,,,,,,,,,,,,,,,,,,,,,,
0,k,1,0.5172,4,3,19,3,1,k,purple,583862506be00b0001cf8506,2021-09-27_13h41.36.177,forced_choiceRT_color,2021.2.3,Win32,59.84082341,,,,,,,,,,,,,,,,,,,,,,,
0,j,1,0.7073,5,0,20,2,1,j,red,583862506be00b0001cf8506,2021-09-27_13h41.36.177,forced_choiceRT_color,2021.2.3,Win32,59.84082341,,,,,,,,,,,,,,,,,,,,,,,
0,k,1,0.6014,5,1,21,3,1,k,purple,583862506be00b0001cf8506,2021-09-27_13h41.36.177,forced_choiceRT_color,2021.2.3,Win32,59.84082341,,,,,,,,,,,,,,,,,,,,,,,
0,f,1,0.6174,5,2,22,1,1,f,blue,583862506be00b0001cf8506,2021-09-27_13h41.36.177,forced_choiceRT_color,2021.2.3,Win32,59.84082341,,,,,,,,,,,,,,,,,,,,,,,
0,f,1,0.4546,5,3,23,1,1,f,blue,583862506be00b0001cf8506,2021-09-27_13h41.36.177,forced_choiceRT_color,2021.2.3,Win32,59.84082341,,,,,,,,,,,,,,,,,,,,,,,
0,j,1,0.6842,6,0,24,2,1,j,red,583862506be00b0001cf8506,2021-09-27_13h41.36.177,forced_choiceRT_color,2021.2.3,Win32,59.84082341,,,,,,,,,,,,,,,,,,,,,,,
0,d,1,0.5088,6,1,25,0,1,d,orange,583862506be00b0001cf8506,2021-09-27_13h41.36.177,forced_choiceRT_color,2021.2.3,Win32,59.84082341,,,,,,,,,,,,,,,,,,,,,,,
0,j,1,0.5883,6,2,26,2,1,j,red,583862506be00b0001cf8506,2021-09-27_13h41.36.177,forced_choiceRT_color,2021.2.3,Win32,59.84082341,,,,,,,,,,,,,,,,,,,,,,,
0,k,1,0.5515,6,3,27,3,1,k,purple,583862506be00b0001cf8506,2021-09-27_13h41.36.177,forced_choiceRT_color,2021.2.3,Win32,59.84082341,,,,,,,,,,,,,,,,,,,,,,,
0,f,1,0.5367,7,0,28,1,1,f,blue,583862506be00b0001cf8506,2021-09-27_13h41.36.177,forced_choiceRT_color,2021.2.3,Win32,59.84082341,,,,,,,,,,,,,,,,,,,,,,,
0,d,1,0.6245,7,1,29,0,1,d,orange,583862506be00b0001cf8506,2021-09-27_13h41.36.177,forced_choiceRT_color,2021.2.3,Win32,59.84082341,,,,,,,,,,,,,,,,,,,,,,,
0,d,1,0.4595,7,2,30,0,1,d,orange,583862506be00b0001cf8506,2021-09-27_13h41.36.177,forced_choiceRT_color,2021.2.3,Win32,59.84082341,,,,,,,,,,,,,,,,,,,,,,,
0,d,1,0.4091,7,3,31,0,1,d,orange,583862506be00b0001cf8506,2021-09-27_13h41.36.177,forced_choiceRT_color,2021.2.3,Win32,59.84082341,,,,,,,,,,,,,,,,,,,,,,,
0,f,1,0.5344,8,0,32,1,1,f,blue,583862506be00b0001cf8506,2021-09-27_13h41.36.177,forced_choiceRT_color,2021.2.3,Win32,59.84082341,,,,,,,,,,,,,,,,,,,,,,,
0,k,1,0.5259,8,1,33,3,1,k,purple,583862506be00b0001cf8506,2021-09-27_13h41.36.177,forced_choiceRT_color,2021.2.3,Win32,59.84082341,,,,,,,,,,,,,,,,,,,,,,,
0,k,1,0.5407,8,2,34,3,1,k,purple,583862506be00b0001cf8506,2021-09-27_13h41.36.177,forced_choiceRT_color,2021.2.3,Win32,59.84082341,,,,,,,,,,,,,,,,,,,,,,,
0,k,1,0.5559,8,3,35,3,1,k,purple,583862506be00b0001cf8506,2021-09-27_13h41.36.177,forced_choiceRT_color,2021.2.3,Win32,59.84082341,,,,,,,,,,,,,,,,,,,,,,,
0,k,1,0.5041,9,0,36,3,1,k,purple,583862506be00b0001cf8506,2021-09-27_13h41.36.177,forced_choiceRT_color,2021.2.3,Win32,59.84082341,,,,,,,,,,,,,,,,,,,,,,,
0,d,1,0.543,9,1,37,0,1,d,orange,583862506be00b0001cf8506,2021-09-27_13h41.36.177,forced_choiceRT_color,2021.2.3,Win32,59.84082341,,,,,,,,,,,,,,,,,,,,,,,
0,f,1,0.5454,9,2,38,1,1,f,blue,583862506be00b0001cf8506,2021-09-27_13h41.36.177,forced_choiceRT_color,2021.2.3,Win32,59.84082341,,,,,,,,,,,,,,,,,,,,,,,
0,f,1,0.5185,9,3,39,1,1,f,blue,583862506be00b0001cf8506,2021-09-27_13h41.36.177,forced_choiceRT_color,2021.2.3,Win32,59.84082341,,,,,,,,,,,,,,,,,,,,,,,
0,d,1,0.5671,10,0,40,0,1,d,orange,583862506be00b0001cf8506,2021-09-27_13h41.36.177,forced_choiceRT_color,2021.2.3,Win32,59.84082341,,,,,,,,,,,,,,,,,,,,,,,
0,j,1,0.5417,10,1,41,2,1,j,red,583862506be00b0001cf8506,2021-09-27_13h41.36.177,forced_choiceRT_color,2021.2.3,Win32,59.84082341,,,,,,,,,,,,,,,,,,,,,,,
0,k,1,0.5336,10,2,42,3,1,k,purple,583862506be00b0001cf8506,2021-09-27_13h41.36.177,forced_choiceRT_color,2021.2.3,Win32,59.84082341,,,,,,,,,,,,,,,,,,,,,,,
0,j,1,0.6013,10,3,43,2,1,j,red,583862506be00b0001cf8506,2021-09-27_13h41.36.177,forced_choiceRT_color,2021.2.3,Win32,59.84082341,,,,,,,,,,,,,,,,,,,,,,,
0,k,1,0.5165,11,0,44,3,1,k,purple,583862506be00b0001cf8506,2021-09-27_13h41.36.177,forced_choiceRT_color,2021.2.3,Win32,59.84082341,,,,,,,,,,,,,,,,,,,,,,,
0,k,1,0.5105,11,1,45,3,1,k,purple,583862506be00b0001cf8506,2021-09-27_13h41.36.177,forced_choiceRT_color,2021.2.3,Win32,59.84082341,,,,,,,,,,,,,,,,,,,,,,,
0,j,1,0.6847,11,2,46,2,1,j,red,583862506be00b0001cf8506,2021-09-27_13h41.36.177,forced_choiceRT_color,2021.2.3,Win32,59.84082341,,,,,,,,,,,,,,,,,,,,,,,
0,f,1,0.7103,11,3,47,1,1,f,blue,583862506be00b0001cf8506,2021-09-27_13h41.36.177,forced_choiceRT_color,2021.2.3,Win32,59.84082341,,,,,,,,,,,,,,,,,,,,,,,
0,f,1,0.5181,12,0,48,1,1,f,blue,583862506be00b0001cf8506,2021-09-27_13h41.36.177,forced_choiceRT_color,2021.2.3,Win32,59.84082341,,,,,,,,,,,,,,,,,,,,,,,
0,j,1,0.6907,12,1,49,2,1,j,red,583862506be00b0001cf8506,2021-09-27_13h41.36.177,forced_choiceRT_color,2021.2.3,Win32,59.84082341,,,,,,,,,,,,,,,,,,,,,,,
0,d,1,0.5735,12,2,50,0,1,d,orange,583862506be00b0001cf8506,2021-09-27_13h41.36.177,forced_choiceRT_color,2021.2.3,Win32,59.84082341,,,,,,,,,,,,,,,,,,,,,,,
0,d,1,0.4347,12,3,51,0,1,d,orange,583862506be00b0001cf8506,2021-09-27_13h41.36.177,forced_choiceRT_color,2021.2.3,Win32,59.84082341,,,,,,,,,,,,,,,,,,,,,,,
0,j,1,0.5525,13,0,52,2,1,j,red,583862506be00b0001cf8506,2021-09-27_13h41.36.177,forced_choiceRT_color,2021.2.3,Win32,59.84082341,,,,,,,,,,,,,,,,,,,,,,,
0,j,1,0.6207,13,1,53,2,1,j,red,583862506be00b0001cf8506,2021-09-27_13h41.36.177,forced_choiceRT_color,2021.2.3,Win32,59.84082341,,,,,,,,,,,,,,,,,,,,,,,
0,j,1,0.604,13,2,54,2,1,j,red,583862506be00b0001cf8506,2021-09-27_13h41.36.177,forced_choiceRT_color,2021.2.3,Win32,59.84082341,,,,,,,,,,,,,,,,,,,,,,,
0,j,1,0.452,13,3,55,2,1,j,red,583862506be00b0001cf8506,2021-09-27_13h41.36.177,forced_choiceRT_color,2021.2.3,Win32,59.84082341,,,,,,,,,,,,,,,,,,,,,,,
0,k,1,0.552,14,0,56,3,1,k,purple,583862506be00b0001cf8506,2021-09-27_13h41.36.177,forced_choiceRT_color,2021.2.3,Win32,59.84082341,,,,,,,,,,,,,,,,,,,,,,,
0,d,1,0.4749,14,1,57,0,1,d,orange,583862506be00b0001cf8506,2021-09-27_13h41.36.177,forced_choiceRT_color,2021.2.3,Win32,59.84082341,,,,,,,,,,,,,,,,,,,,,,,
0,k,1,0.6342,14,2,58,3,1,k,purple,583862506be00b0001cf8506,2021-09-27_13h41.36.177,forced_choiceRT_color,2021.2.3,Win32,59.84082341,,,,,,,,,,,,,,,,,,,,,,,
0,j,1,0.7047,14,3,59,2,1,j,red,583862506be00b0001cf8506,2021-09-27_13h41.36.177,forced_choiceRT_color,2021.2.3,Win32,59.84082341,,,,,,,,,,,,,,,,,,,,,,,
,,,,,,,,,,,583862506be00b0001cf8506,2021-09-27_13h41.36.177,forced_choiceRT_color,2021.2.3,Win32,59.84082341,d,2.3009,0,0,0,0,1,,,,,,,,,,,,,,,,
,,,,,,,,,,,583862506be00b0001cf8506,2021-09-27_13h41.36.177,forced_choiceRT_color,2021.2.3,Win32,59.84082341,d,2.0689,1,0,1,0,1,,,,,,,,,,,,,,,,
,,,,,,,,,,,583862506be00b0001cf8506,2021-09-27_13h41.36.177,forced_choiceRT_color,2021.2.3,Win32,59.84082341,d,2.0254,2,0,2,0,1,,,,,,,,,,,,,,,,
,,,,,,,,,,,583862506be00b0001cf8506,2021-09-27_13h41.36.177,forced_choiceRT_color,2021.2.3,Win32,59.84082341,d,2.0263,3,0,3,0,1,,,,,,,,,,,,,,,,
,,,,,,,,,,,583862506be00b0001cf8506,2021-09-27_13h41.36.177,forced_choiceRT_color,2021.2.3,Win32,59.84082341,d,2.0027,4,0,4,0,1,,,,,,,,,,,,,,,,
,,,,,,,,,,,583862506be00b0001cf8506,2021-09-27_13h41.36.177,forced_choiceRT_color,2021.2.3,Win32,59.84082341,d,2.0343,5,0,5,0,1,,,,,,,,,,,,,,,,
,,,,,,,,,,,583862506be00b0001cf8506,2021-09-27_13h41.36.177,forced_choiceRT_color,2021.2.3,Win32,59.84082341,d,2.018,6,0,6,0,1,,,,,,,,,,,,,,,,
,,,,,,,,,,,583862506be00b0001cf8506,2021-09-27_13h41.36.177,forced_choiceRT_color,2021.2.3,Win32,59.84082341,d,1.9953,7,0,7,0,1,,,,,,,,,,,,,,,,
,,,,,,,,,,,583862506be00b0001cf8506,2021-09-27_13h41.36.177,forced_choiceRT_color,2021.2.3,Win32,59.84082341,d,1.9349,8,0,8,0,1,,,,,,,,,,,,,,,,
,,,,,,,,,,,583862506be00b0001cf8506,2021-09-27_13h41.36.177,forced_choiceRT_color,2021.2.3,Win32,59.84082341,d,1.9772,9,0,9,0,1,,,,,,,,,,,,,,,,
,,,,,,,,,,,583862506be00b0001cf8506,2021-09-27_13h41.36.177,forced_choiceRT_color,2021.2.3,Win32,59.84082341,d,1.9106,10,0,10,0,1,,,,,,,,,,,,,,,,
,,,,,,,,,,,583862506be00b0001cf8506,2021-09-27_13h41.36.177,forced_choiceRT_color,2021.2.3,Win32,59.84082341,d,1.9188,11,0,11,0,1,,,,,,,,,,,,,,,,
,,,,,,,,,,,583862506be00b0001cf8506,2021-09-27_13h41.36.177,forced_choiceRT_color,2021.2.3,Win32,59.84082341,d,1.9176,12,0,12,0,1,,,,,,,,,,,,,,,,
,,,,,,,,,,,583862506be00b0001cf8506,2021-09-27_13h41.36.177,forced_choiceRT_color,2021.2.3,Win32,59.84082341,d,1.9183,13,0,13,0,1,,,,,,,,,,,,,,,,
,,,,,,,,,,,583862506be00b0001cf8506,2021-09-27_13h41.36.177,forced_choiceRT_color,2021.2.3,Win32,59.84082341,d,1.951,14,0,14,0,1,,,,,,,,,,,,,,,,
,,,,,,,,,,,583862506be00b0001cf8506,2021-09-27_13h41.36.177,forced_choiceRT_color,2021.2.3,Win32,59.84082341,d,1.9554,15,0,15,0,1,,,,,,,,,,,,,,,,
,,,,,,,,,,,583862506be00b0001cf8506,2021-09-27_13h41.36.177,forced_choiceRT_color,2021.2.3,Win32,59.84082341,d,1.9267,16,0,16,0,1,,,,,,,,,,,,,,,,
,,,,,,,,,,,583862506be00b0001cf8506,2021-09-27_13h41.36.177,forced_choiceRT_color,2021.2.3,Win32,59.84082341,d,1.9236,17,0,17,0,1,,,,,,,,,,,,,,,,
,,,,,,,,,,,583862506be00b0001cf8506,2021-09-27_13h41.36.177,forced_choiceRT_color,2021.2.3,Win32,59.84082341,d,1.9519,18,0,18,0,1,,,,,,,,,,,,,,,,
,,,,,,,,,,,583862506be00b0001cf8506,2021-09-27_13h41.36.177,forced_choiceRT_color,2021.2.3,Win32,59.84082341,d,1.9006,19,0,19,0,1,,,,,,,,,,,,,,,,
0.22,,,,,,,,,f,blue,583862506be00b0001cf8506,2021-09-27_13h41.36.177,forced_choiceRT_color,2021.2.3,Win32,59.84082341,,,,,,,,1,Slow,short,f,1,2.2477,0,0,0,1,1,,,,,
1.65,,,,,,,,,j,red,583862506be00b0001cf8506,2021-09-27_13h41.36.177,forced_choiceRT_color,2021.2.3,Win32,59.84082341,,,,,,,,1,Ontime,short,f,0,1.9026,0,1,1,2,1,,,,,
1.53,,,,,,,,,j,red,583862506be00b0001cf8506,2021-09-27_13h41.36.177,forced_choiceRT_color,2021.2.3,Win32,59.84082341,,,,,,,,1,Ontime,short,f,0,1.979,0,2,2,2,1,,,,,
1.14,,,,,,,,,f,blue,583862506be00b0001cf8506,2021-09-27_13h41.36.177,forced_choiceRT_color,2021.2.3,Win32,59.84082341,,,,,,,,1,Ontime,short,f,1,1.9689,0,3,3,1,1,,,,,
1.67,,,,,,,,,j,red,583862506be00b0001cf8506,2021-09-27_13h41.36.177,forced_choiceRT_color,2021.2.3,Win32,59.84082341,,,,,,,,1,Fast,short,j,1,0.0031,1,0,4,2,1,,,,,
0.25,,,,,,,,,k,purple,583862506be00b0001cf8506,2021-09-27_13h41.36.177,forced_choiceRT_color,2021.2.3,Win32,59.84082341,,,,,,,,1,Ontime,short,k,1,2.091,1,1,5,3,1,,,,,
0.94,,,,,,,,,f,blue,583862506be00b0001cf8506,2021-09-27_13h41.36.177,forced_choiceRT_color,2021.2.3,Win32,59.84082341,,,,,,,,1,Slow,short,f,1,2.1178,1,2,6,1,1,,,,,
0.81,,,,,,,,,k,purple,583862506be00b0001cf8506,2021-09-27_13h41.36.177,forced_choiceRT_color,2021.2.3,Win32,59.84082341,,,,,,,,1,Ontime,short,k,1,1.9946,1,3,7,3,1,,,,,
1.53,,,,,,,,,j,red,583862506be00b0001cf8506,2021-09-27_13h41.36.177,forced_choiceRT_color,2021.2.3,Win32,59.84082341,,,,,,,,1,Slow,short,j,1,2.1004,2,0,8,2,1,,,,,
0.96,,,,,,,,,j,red,583862506be00b0001cf8506,2021-09-27_13h41.36.177,forced_choiceRT_color,2021.2.3,Win32,59.84082341,,,,,,,,1,Ontime,short,j,1,2.0045,2,1,9,2,1,,,,,
0.17,,,,,,,,,k,purple,583862506be00b0001cf8506,2021-09-27_13h41.36.177,forced_choiceRT_color,2021.2.3,Win32,59.84082341,,,,,,,,1,Ontime,short,k,1,1.9346,2,2,10,3,1,,,,,
1.77,,,,,,,,,f,blue,583862506be00b0001cf8506,2021-09-27_13h41.36.177,forced_choiceRT_color,2021.2.3,Win32,59.84082341,,,,,,,,1,Slow,short,f,1,2.2889,2,3,11,1,1,,,,,
1.94,,,,,,,,,d,orange,583862506be00b0001cf8506,2021-09-27_13h41.36.177,forced_choiceRT_color,2021.2.3,Win32,59.84082341,,,,,,,,1,Slow,short,f,0,2.3069,3,0,12,0,1,,,,,
1.16,,,,,,,,,d,orange,583862506be00b0001cf8506,2021-09-27_13h41.36.177,forced_choiceRT_color,2021.2.3,Win32,59.84082341,,,,,,,,1,Ontime,short,d,1,2.0345,3,1,13,0,1,,,,,
0.15,,,,,,,,,j,red,583862506be00b0001cf8506,2021-09-27_13h41.36.177,forced_choiceRT_color,2021.2.3,Win32,59.84082341,,,,,,,,1,Ontime,short,j,1,1.9747,3,2,14,2,1,,,,,
1.96,,,,,,,,,f,blue,583862506be00b0001cf8506,2021-09-27_13h41.36.177,forced_choiceRT_color,2021.2.3,Win32,59.84082341,,,,,,,,1,Slow,short,f,1,3.5379,3,3,15,1,1,,,,,
0.95,,,,,,,,,j,red,583862506be00b0001cf8506,2021-09-27_13h41.36.177,forced_choiceRT_color,2021.2.3,Win32,59.84082341,,,,,,,,1,Ontime,short,j,1,2.0683,4,0,16,2,1,,,,,
0.06,,,,,,,,,f,blue,583862506be00b0001cf8506,2021-09-27_13h41.36.177,forced_choiceRT_color,2021.2.3,Win32,59.84082341,,,,,,,,1,Ontime,short,f,1,1.9508,4,1,17,1,1,,,,,
0.12,,,,,,,,,d,orange,583862506be00b0001cf8506,2021-09-27_13h41.36.177,forced_choiceRT_color,2021.2.3,Win32,59.84082341,,,,,,,,1,Ontime,short,d,1,1.995,4,2,18,0,1,,,,,
1.36,,,,,,,,,j,red,583862506be00b0001cf8506,2021-09-27_13h41.36.177,forced_choiceRT_color,2021.2.3,Win32,59.84082341,,,,,,,,1,Ontime,short,j,1,1.9235,4,3,19,2,1,,,,,
0.41,,,,,,,,,k,purple,583862506be00b0001cf8506,2021-09-27_13h41.36.177,forced_choiceRT_color,2021.2.3,Win32,59.84082341,,,,,,,,1,Ontime,short,k,1,2.0348,5,0,20,3,1,,,,,
1.78,,,,,,,,,f,blue,583862506be00b0001cf8506,2021-09-27_13h41.36.177,forced_choiceRT_color,2021.2.3,Win32,59.84082341,,,,,,,,1,Ontime,short,d,0,1.9771,5,1,21,1,1,,,,,
1.19,,,,,,,,,f,blue,583862506be00b0001cf8506,2021-09-27_13h41.36.177,forced_choiceRT_color,2021.2.3,Win32,59.84082341,,,,,,,,1,Fast,short,f,1,0.0681,5,2,22,1,1,,,,,
0.18,,,,,,,,,k,purple,583862506be00b0001cf8506,2021-09-27_13h41.36.177,forced_choiceRT_color,2021.2.3,Win32,59.84082341,,,,,,,,1,Ontime,short,k,1,2.0739,5,3,23,3,1,,,,,
0.56,,,,,,,,,d,orange,583862506be00b0001cf8506,2021-09-27_13h41.36.177,forced_choiceRT_color,2021.2.3,Win32,59.84082341,,,,,,,,1,Ontime,short,d,1,1.9545,6,0,24,0,1,,,,,
0.57,,,,,,,,,d,orange,583862506be00b0001cf8506,2021-09-27_13h41.36.177,forced_choiceRT_color,2021.2.3,Win32,59.84082341,,,,,,,,1,Ontime,short,d,1,2.0353,6,1,25,0,1,,,,,
0.1,,,,,,,,,d,orange,583862506be00b0001cf8506,2021-09-27_13h41.36.177,forced_choiceRT_color,2021.2.3,Win32,59.84082341,,,,,,,,1,Ontime,short,d,1,1.9332,6,2,26,0,1,,,,,
0.93,,,,,,,,,d,orange,583862506be00b0001cf8506,2021-09-27_13h41.36.177,forced_choiceRT_color,2021.2.3,Win32,59.84082341,,,,,,,,1,Ontime,short,d,1,2.0736,6,3,27,0,1,,,,,
1.12,,,,,,,,,k,purple,583862506be00b0001cf8506,2021-09-27_13h41.36.177,forced_choiceRT_color,2021.2.3,Win32,59.84082341,,,,,,,,1,Fast,short,k,1,1.8096,7,0,28,3,1,,,,,
1.52,,,,,,,,,d,orange,583862506be00b0001cf8506,2021-09-27_13h41.36.177,forced_choiceRT_color,2021.2.3,Win32,59.84082341,,,,,,,,1,Ontime,short,f,0,2.0445,7,1,29,0,1,,,,,
1.35,,,,,,,,,k,purple,583862506be00b0001cf8506,2021-09-27_13h41.36.177,forced_choiceRT_color,2021.2.3,Win32,59.84082341,,,,,,,,1,Slow,short,k,1,2.1429,7,2,30,3,1,,,,,
1.53,,,,,,,,,k,purple,583862506be00b0001cf8506,2021-09-27_13h41.36.177,forced_choiceRT_color,2021.2.3,Win32,59.84082341,,,,,,,,1,Ontime,short,k,1,2.0523,7,3,31,3,1,,,,,
1.32,,,,,,,,,f,blue,583862506be00b0001cf8506,2021-09-27_13h41.36.177,forced_choiceRT_color,2021.2.3,Win32,59.84082341,,,,,,,,1,Ontime,short,f,1,2.0359,8,0,32,1,1,,,,,
1.42,,,,,,,,,d,orange,583862506be00b0001cf8506,2021-09-27_13h41.36.177,forced_choiceRT_color,2021.2.3,Win32,59.84082341,,,,,,,,1,Ontime,short,d,1,1.9739,8,1,33,0,1,,,,,
0.72,,,,,,,,,d,orange,583862506be00b0001cf8506,2021-09-27_13h41.36.177,forced_choiceRT_color,2021.2.3,Win32,59.84082341,,,,,,,,1,Ontime,short,d,1,1.9377,8,2,34,0,1,,,,,
1.64,,,,,,,,,k,purple,583862506be00b0001cf8506,2021-09-27_13h41.36.177,forced_choiceRT_color,2021.2.3,Win32,59.84082341,,,,,,,,1,Ontime,short,j,0,1.901,8,3,35,3,1,,,,,
0.31,,,,,,,,,f,blue,583862506be00b0001cf8506,2021-09-27_13h41.36.177,forced_choiceRT_color,2021.2.3,Win32,59.84082341,,,,,,,,1,Ontime,short,f,1,2.0027,9,0,36,1,1,,,,,
1.92,,,,,,,,,j,red,583862506be00b0001cf8506,2021-09-27_13h41.36.177,forced_choiceRT_color,2021.2.3,Win32,59.84082341,,,,,,,,1,Ontime,short,f,0,2.0932,9,1,37,2,1,,,,,
0.2,,,,,,,,,j,red,583862506be00b0001cf8506,2021-09-27_13h41.36.177,forced_choiceRT_color,2021.2.3,Win32,59.84082341,,,,,,,,1,Ontime,short,j,1,1.971,9,2,38,2,1,,,,,
1.02,,,,,,,,,k,purple,583862506be00b0001cf8506,2021-09-27_13h41.36.177,forced_choiceRT_color,2021.2.3,Win32,59.84082341,,,,,,,,1,Ontime,short,k,1,2.0185,9,3,39,3,1,,,,,
,,,,,,,,,,,583862506be00b0001cf8506,2021-09-27_13h41.36.177,forced_choiceRT_color,2021.2.3,Win32,59.84082341,,,,,,,,,,,,,,,,,,,0,0,0,0,1
0.38,,,,,,,,,d,orange,583862506be00b0001cf8506,2021-09-27_13h41.36.177,forced_choiceRT_color,2021.2.3,Win32,59.84082341,,,,,,,,2,Ontime,short,d,1,1.9788,0,0,0,0,1,,,,,
1.27,,,,,,,,,f,blue,583862506be00b0001cf8506,2021-09-27_13h41.36.177,forced_choiceRT_color,2021.2.3,Win32,59.84082341,,,,,,,,2,Ontime,short,f,1,2.023,0,1,1,1,1,,,,,
0.96,,,,,,,,,j,red,583862506be00b0001cf8506,2021-09-27_13h41.36.177,forced_choiceRT_color,2021.2.3,Win32,59.84082341,,,,,,,,2,Ontime,short,j,1,1.9536,0,2,2,2,1,,,,,
0.32,,,,,,,,,k,purple,583862506be00b0001cf8506,2021-09-27_13h41.36.177,forced_choiceRT_color,2021.2.3,Win32,59.84082341,,,,,,,,2,Ontime,short,k,1,1.9348,0,3,3,3,1,,,,,
0.22,,,,,,,,,j,red,583862506be00b0001cf8506,2021-09-27_13h41.36.177,forced_choiceRT_color,2021.2.3,Win32,59.84082341,,,,,,,,2,Ontime,short,j,1,1.9433,1,0,4,2,1,,,,,
0.25,,,,,,,,,f,blue,583862506be00b0001cf8506,2021-09-27_13h41.36.177,forced_choiceRT_color,2021.2.3,Win32,59.84082341,,,,,,,,2,Ontime,short,f,1,1.9646,1,1,5,1,1,,,,,
0.59,,,,,,,,,j,red,583862506be00b0001cf8506,2021-09-27_13h41.36.177,forced_choiceRT_color,2021.2.3,Win32,59.84082341,,,,,,,,2,Ontime,short,j,1,1.9495,1,2,6,2,1,,,,,
1.38,,,,,,,,,k,purple,583862506be00b0001cf8506,2021-09-27_13h41.36.177,forced_choiceRT_color,2021.2.3,Win32,59.84082341,,,,,,,,2,Ontime,short,k,1,2.0344,1,3,7,3,1,,,,,
1.39,,,,,,,,,f,blue,583862506be00b0001cf8506,2021-09-27_13h41.36.177,forced_choiceRT_color,2021.2.3,Win32,59.84082341,,,,,,,,2,Ontime,short,d,0,2.0014,2,0,8,1,1,,,,,
1.66,,,,,,,,,k,purple,583862506be00b0001cf8506,2021-09-27_13h41.36.177,forced_choiceRT_color,2021.2.3,Win32,59.84082341,,,,,,,,2,Ontime,short,f,0,1.9815,2,1,9,3,1,,,,,
1.57,,,,,,,,,k,purple,583862506be00b0001cf8506,2021-09-27_13h41.36.177,forced_choiceRT_color,2021.2.3,Win32,59.84082341,,,,,,,,2,Ontime,short,k,1,2.0171,2,2,10,3,1,,,,,
0.73,,,,,,,,,d,orange,583862506be00b0001cf8506,2021-09-27_13h41.36.177,forced_choiceRT_color,2021.2.3,Win32,59.84082341,,,,,,,,2,Ontime,short,d,1,1.9812,2,3,11,0,1,,,,,
1.26,,,,,,,,,j,red,583862506be00b0001cf8506,2021-09-27_13h41.36.177,forced_choiceRT_color,2021.2.3,Win32,59.84082341,,,,,,,,2,Ontime,short,j,1,1.9549,3,0,12,2,1,,,,,
0.7,,,,,,,,,j,red,583862506be00b0001cf8506,2021-09-27_13h41.36.177,forced_choiceRT_color,2021.2.3,Win32,59.84082341,,,,,,,,2,Ontime,short,j,1,1.9761,3,1,13,2,1,,,,,
0.12,,,,,,,,,k,purple,583862506be00b0001cf8506,2021-09-27_13h41.36.177,forced_choiceRT_color,2021.2.3,Win32,59.84082341,,,,,,,,2,Ontime,short,k,1,1.9394,3,2,14,3,1,,,,,
1.11,,,,,,,,,f,blue,583862506be00b0001cf8506,2021-09-27_13h41.36.177,forced_choiceRT_color,2021.2.3,Win32,59.84082341,,,,,,,,2,Ontime,short,f,1,2.0413,3,3,15,1,1,,,,,
1.58,,,,,,,,,f,blue,583862506be00b0001cf8506,2021-09-27_13h41.36.177,forced_choiceRT_color,2021.2.3,Win32,59.84082341,,,,,,,,2,Slow,short,f,1,2.102,4,0,16,1,1,,,,,
0.2,,,,,,,,,j,red,583862506be00b0001cf8506,2021-09-27_13h41.36.177,forced_choiceRT_color,2021.2.3,Win32,59.84082341,,,,,,,,2,Fast,short,j,1,1.6104,4,1,17,2,1,,,,,
0.05,,,,,,,,,j,red,583862506be00b0001cf8506,2021-09-27_13h41.36.177,forced_choiceRT_color,2021.2.3,Win32,59.84082341,,,,,,,,2,Ontime,short,j,1,1.9675,4,2,18,2,1,,,,,
1.33,,,,,,,,,d,orange,583862506be00b0001cf8506,2021-09-27_13h41.36.177,forced_choiceRT_color,2021.2.3,Win32,59.84082341,,,,,,,,2,Ontime,short,d,1,1.9306,4,3,19,0,1,,,,,
1.63,,,,,,,,,j,red,583862506be00b0001cf8506,2021-09-27_13h41.36.177,forced_choiceRT_color,2021.2.3,Win32,59.84082341,,,,,,,,2,Ontime,short,j,1,2.0855,5,0,20,2,1,,,,,
1.03,,,,,,,,,k,purple,583862506be00b0001cf8506,2021-09-27_13h41.36.177,forced_choiceRT_color,2021.2.3,Win32,59.84082341,,,,,,,,2,Ontime,short,k,1,2.0827,5,1,21,3,1,,,,,
0.71,,,,,,,,,f,blue,583862506be00b0001cf8506,2021-09-27_13h41.36.177,forced_choiceRT_color,2021.2.3,Win32,59.84082341,,,,,,,,2,Ontime,short,f,1,2.0309,5,2,22,1,1,,,,,
0.3,,,,,,,,,f,blue,583862506be00b0001cf8506,2021-09-27_13h41.36.177,forced_choiceRT_color,2021.2.3,Win32,59.84082341,,,,,,,,2,Ontime,short,f,1,1.9875,5,3,23,1,1,,,,,
1.38,,,,,,,,,d,orange,583862506be00b0001cf8506,2021-09-27_13h41.36.177,forced_choiceRT_color,2021.2.3,Win32,59.84082341,,,,,,,,2,Ontime,short,d,1,2.0334,6,0,24,0,1,,,,,
1.59,,,,,,,,,f,blue,583862506be00b0001cf8506,2021-09-27_13h41.36.177,forced_choiceRT_color,2021.2.3,Win32,59.84082341,,,,,,,,2,Slow,short,f,1,2.1367,6,1,25,1,1,,,,,
1.14,,,,,,,,,j,red,583862506be00b0001cf8506,2021-09-27_13h41.36.177,forced_choiceRT_color,2021.2.3,Win32,59.84082341,,,,,,,,2,Fast,short,j,1,1.6984,6,2,26,2,1,,,,,
1.82,,,,,,,,,d,orange,583862506be00b0001cf8506,2021-09-27_13h41.36.177,forced_choiceRT_color,2021.2.3,Win32,59.84082341,,,,,,,,2,Slow,short,f,0,2.2079,6,3,27,0,1,,,,,
1.26,,,,,,,,,d,orange,583862506be00b0001cf8506,2021-09-27_13h41.36.177,forced_choiceRT_color,2021.2.3,Win32,59.84082341,,,,,,,,2,Ontime,short,d,1,2.0974,7,0,28,0,1,,,,,
1.94,,,,,,,,,f,blue,583862506be00b0001cf8506,2021-09-27_13h41.36.177,forced_choiceRT_color,2021.2.3,Win32,59.84082341,,,,,,,,2,Slow,short,k,0,2.3043,7,1,29,1,1,,,,,
1.1,,,,,,,,,d,orange,583862506be00b0001cf8506,2021-09-27_13h41.36.177,forced_choiceRT_color,2021.2.3,Win32,59.84082341,,,,,,,,2,Fast,short,d,1,1.6588,7,2,30,0,1,,,,,
1.96,,,,,,,,,k,purple,583862506be00b0001cf8506,2021-09-27_13h41.36.177,forced_choiceRT_color,2021.2.3,Win32,59.84082341,,,,,,,,2,Ontime,short,d,0,2.0643,7,3,31,3,1,,,,,
0.46,,,,,,,,,j,red,583862506be00b0001cf8506,2021-09-27_13h41.36.177,forced_choiceRT_color,2021.2.3,Win32,59.84082341,,,,,,,,2,Ontime,short,j,1,1.9829,8,0,32,2,1,,,,,
1.94,,,,,,,,,d,orange,583862506be00b0001cf8506,2021-09-27_13h41.36.177,forced_choiceRT_color,2021.2.3,Win32,59.84082341,,,,,,,,2,Ontime,short,k,0,2.0575,8,1,33,0,1,,,,,
1.23,,,,,,,,,k,purple,583862506be00b0001cf8506,2021-09-27_13h41.36.177,forced_choiceRT_color,2021.2.3,Win32,59.84082341,,,,,,,,2,Ontime,short,k,1,1.9977,8,2,34,3,1,,,,,
0.46,,,,,,,,,f,blue,583862506be00b0001cf8506,2021-09-27_13h41.36.177,forced_choiceRT_color,2021.2.3,Win32,59.84082341,,,,,,,,2,Ontime,short,f,1,2.0346,8,3,35,1,1,,,,,
1.98,,,,,,,,,d,orange,583862506be00b0001cf8506,2021-09-27_13h41.36.177,forced_choiceRT_color,2021.2.3,Win32,59.84082341,,,,,,,,2,Ontime,short,j,0,2.0479,9,0,36,0,1,,,,,
0.29,,,,,,,,,k,purple,583862506be00b0001cf8506,2021-09-27_13h41.36.177,forced_choiceRT_color,2021.2.3,Win32,59.84082341,,,,,,,,2,Ontime,short,k,1,2.0311,9,1,37,3,1,,,,,
1.59,,,,,,,,,d,orange,583862506be00b0001cf8506,2021-09-27_13h41.36.177,forced_choiceRT_color,2021.2.3,Win32,59.84082341,,,,,,,,2,Slow,short,d,1,2.1544,9,2,38,0,1,,,,,
0.73,,,,,,,,,k,purple,583862506be00b0001cf8506,2021-09-27_13h41.36.177,forced_choiceRT_color,2021.2.3,Win32,59.84082341,,,,,,,,2,Ontime,short,k,1,2.0278,9,3,39,3,1,,,,,
,,,,,,,,,,,583862506be00b0001cf8506,2021-09-27_13h41.36.177,forced_choiceRT_color,2021.2.3,Win32,59.84082341,,,,,,,,,,,,,,,,,,,1,0,1,0,1
1.01,,,,,,,,,k,purple,583862506be00b0001cf8506,2021-09-27_13h41.36.177,forced_choiceRT_color,2021.2.3,Win32,59.84082341,,,,,,,,3,Ontime,short,k,1,1.9935,0,0,0,3,1,,,,,
0.08,,,,,,,,,d,orange,583862506be00b0001cf8506,2021-09-27_13h41.36.177,forced_choiceRT_color,2021.2.3,Win32,59.84082341,,,,,,,,3,Ontime,short,d,1,1.9765,0,1,1,0,1,,,,,
0,,,,,,,,,d,orange,583862506be00b0001cf8506,2021-09-27_13h41.36.177,forced_choiceRT_color,2021.2.3,Win32,59.84082341,,,,,,,,3,Ontime,short,d,1,1.9817,0,2,2,0,1,,,,,
0.06,,,,,,,,,j,red,583862506be00b0001cf8506,2021-09-27_13h41.36.177,forced_choiceRT_color,2021.2.3,Win32,59.84082341,,,,,,,,3,Ontime,short,j,1,1.9368,0,3,3,2,1,,,,,
0.02,,,,,,,,,d,orange,583862506be00b0001cf8506,2021-09-27_13h41.36.177,forced_choiceRT_color,2021.2.3,Win32,59.84082341,,,,,,,,3,Ontime,short,d,1,1.989,1,0,4,0,1,,,,,
1.74,,,,,,,,,j,red,583862506be00b0001cf8506,2021-09-27_13h41.36.177,forced_choiceRT_color,2021.2.3,Win32,59.84082341,,,,,,,,3,Ontime,short,f,0,1.9535,1,1,5,2,1,,,,,
0.45,,,,,,,,,j,red,583862506be00b0001cf8506,2021-09-27_13h41.36.177,forced_choiceRT_color,2021.2.3,Win32,59.84082341,,,,,,,,3,Ontime,short,j,1,2.0372,1,2,6,2,1,,,,,
1.82,,,,,,,,,k,purple,583862506be00b0001cf8506,2021-09-27_13h41.36.177,forced_choiceRT_color,2021.2.3,Win32,59.84082341,,,,,,,,3,Ontime,short,k,1,1.9534,1,3,7,3,1,,,,,
1.76,,,,,,,,,k,purple,583862506be00b0001cf8506,2021-09-27_13h41.36.177,forced_choiceRT_color,2021.2.3,Win32,59.84082341,,,,,,,,3,Ontime,short,f,0,1.9489,2,0,8,3,1,,,,,
1.15,,,,,,,,,k,purple,583862506be00b0001cf8506,2021-09-27_13h41.36.177,forced_choiceRT_color,2021.2.3,Win32,59.84082341,,,,,,,,3,Ontime,short,k,1,1.9262,2,1,9,3,1,,,,,
0.99,,,,,,,,,k,purple,583862506be00b0001cf8506,2021-09-27_13h41.36.177,forced_choiceRT_color,2021.2.3,Win32,59.84082341,,,,,,,,3,Ontime,short,k,1,1.9691,2,2,10,3,1,,,,,
1.24,,,,,,,,,k,purple,583862506be00b0001cf8506,2021-09-27_13h41.36.177,forced_choiceRT_color,2021.2.3,Win32,59.84082341,,,,,,,,3,Ontime,short,k,1,2.0854,2,3,11,3,1,,,,,
0.47,,,,,,,,,f,blue,583862506be00b0001cf8506,2021-09-27_13h41.36.177,forced_choiceRT_color,2021.2.3,Win32,59.84082341,,,,,,,,3,Ontime,short,f,1,2.0568,3,0,12,1,1,,,,,
0.27,,,,,,,,,j,red,583862506be00b0001cf8506,2021-09-27_13h41.36.177,forced_choiceRT_color,2021.2.3,Win32,59.84082341,,,,,,,,3,Ontime,short,j,1,1.9404,3,1,13,2,1,,,,,
0.56,,,,,,,,,f,blue,583862506be00b0001cf8506,2021-09-27_13h41.36.177,forced_choiceRT_color,2021.2.3,Win32,59.84082341,,,,,,,,3,Ontime,short,f,1,1.9974,3,2,14,1,1,,,,,
0.01,,,,,,,,,f,blue,583862506be00b0001cf8506,2021-09-27_13h41.36.177,forced_choiceRT_color,2021.2.3,Win32,59.84082341,,,,,,,,3,Ontime,short,f,1,2.0145,3,3,15,1,1,,,,,
0.71,,,,,,,,,k,purple,583862506be00b0001cf8506,2021-09-27_13h41.36.177,forced_choiceRT_color,2021.2.3,Win32,59.84082341,,,,,,,,3,Ontime,short,k,1,1.9892,4,0,16,3,1,,,,,
0.35,,,,,,,,,j,red,583862506be00b0001cf8506,2021-09-27_13h41.36.177,forced_choiceRT_color,2021.2.3,Win32,59.84082341,,,,,,,,3,Ontime,short,j,1,1.9759,4,1,17,2,1,,,,,
0.1,,,,,,,,,d,orange,583862506be00b0001cf8506,2021-09-27_13h41.36.177,forced_choiceRT_color,2021.2.3,Win32,59.84082341,,,,,,,,3,Ontime,short,d,1,1.9359,4,2,18,0,1,,,,,
1.85,,,,,,,,,k,purple,583862506be00b0001cf8506,2021-09-27_13h41.36.177,forced_choiceRT_color,2021.2.3,Win32,59.84082341,,,,,,,,3,Ontime,short,f,0,2.048,4,3,19,3,1,,,,,
1.1,,,,,,,,,f,blue,583862506be00b0001cf8506,2021-09-27_13h41.36.177,forced_choiceRT_color,2021.2.3,Win32,59.84082341,,,,,,,,3,Ontime,short,f,1,2.0312,5,0,20,1,1,,,,,
1.95,,,,,,,,,k,purple,583862506be00b0001cf8506,2021-09-27_13h41.36.177,forced_choiceRT_color,2021.2.3,Win32,59.84082341,,,,,,,,3,Ontime,short,k,1,1.9981,5,1,21,3,1,,,,,
0.07,,,,,,,,,f,blue,583862506be00b0001cf8506,2021-09-27_13h41.36.177,forced_choiceRT_color,2021.2.3,Win32,59.84082341,,,,,,,,3,Ontime,short,f,1,1.998,5,2,22,1,1,,,,,
0.6,,,,,,,,,f,blue,583862506be00b0001cf8506,2021-09-27_13h41.36.177,forced_choiceRT_color,2021.2.3,Win32,59.84082341,,,,,,,,3,Ontime,short,f,1,1.989,5,3,23,1,1,,,,,
1.77,,,,,,,,,j,red,583862506be00b0001cf8506,2021-09-27_13h41.36.177,forced_choiceRT_color,2021.2.3,Win32,59.84082341,,,,,,,,3,Ontime,short,f,0,2.0058,6,0,24,2,1,,,,,
0.71,,,,,,,,,j,red,583862506be00b0001cf8506,2021-09-27_13h41.36.177,forced_choiceRT_color,2021.2.3,Win32,59.84082341,,,,,,,,3,Ontime,short,j,1,2.0371,6,1,25,2,1,,,,,
0.51,,,,,,,,,d,orange,583862506be00b0001cf8506,2021-09-27_13h41.36.177,forced_choiceRT_color,2021.2.3,Win32,59.84082341,,,,,,,,3,Ontime,short,d,1,2.0012,6,2,26,0,1,,,,,
0.97,,,,,,,,,d,orange,583862506be00b0001cf8506,2021-09-27_13h41.36.177,forced_choiceRT_color,2021.2.3,Win32,59.84082341,,,,,,,,3,Ontime,short,j,0,2.0541,6,3,27,0,1,,,,,
0.82,,,,,,,,,k,purple,583862506be00b0001cf8506,2021-09-27_13h41.36.177,forced_choiceRT_color,2021.2.3,Win32,59.84082341,,,,,,,,3,Ontime,short,k,1,1.9895,7,0,28,3,1,,,,,
0.29,,,,,,,,,f,blue,583862506be00b0001cf8506,2021-09-27_13h41.36.177,forced_choiceRT_color,2021.2.3,Win32,59.84082341,,,,,,,,3,Ontime,short,f,1,2.0563,7,1,29,1,1,,,,,
1.8,,,,,,,,,f,blue,583862506be00b0001cf8506,2021-09-27_13h41.36.177,forced_choiceRT_color,2021.2.3,Win32,59.84082341,,,,,,,,3,Ontime,short,d,0,1.9812,7,2,30,1,1,,,,,
1.84,,,,,,,,,f,blue,583862506be00b0001cf8506,2021-09-27_13h41.36.177,forced_choiceRT_color,2021.2.3,Win32,59.84082341,,,,,,,,3,Ontime,short,j,0,2.0139,7,3,31,1,1,,,,,
1.91,,,,,,,,,f,blue,583862506be00b0001cf8506,2021-09-27_13h41.36.177,forced_choiceRT_color,2021.2.3,Win32,59.84082341,,,,,,,,3,Ontime,short,k,0,2.005,8,0,32,1,1,,,,,
0.76,,,,,,,,,j,red,583862506be00b0001cf8506,2021-09-27_13h41.36.177,forced_choiceRT_color,2021.2.3,Win32,59.84082341,,,,,,,,3,Ontime,short,j,1,1.9585,8,1,33,2,1,,,,,
1.1,,,,,,,,,d,orange,583862506be00b0001cf8506,2021-09-27_13h41.36.177,forced_choiceRT_color,2021.2.3,Win32,59.84082341,,,,,,,,3,Ontime,short,d,1,2.0235,8,2,34,0,1,,,,,
0.68,,,,,,,,,j,red,583862506be00b0001cf8506,2021-09-27_13h41.36.177,forced_choiceRT_color,2021.2.3,Win32,59.84082341,,,,,,,,3,Ontime,short,j,1,1.9956,8,3,35,2,1,,,,,
1.15,,,,,,,,,d,orange,583862506be00b0001cf8506,2021-09-27_13h41.36.177,forced_choiceRT_color,2021.2.3,Win32,59.84082341,,,,,,,,3,Ontime,short,d,1,1.9301,9,0,36,0,1,,,,,
0.97,,,,,,,,,d,orange,583862506be00b0001cf8506,2021-09-27_13h41.36.177,forced_choiceRT_color,2021.2.3,Win32,59.84082341,,,,,,,,3,Ontime,short,d,1,2.0069,9,1,37,0,1,,,,,
0.97,,,,,,,,,j,red,583862506be00b0001cf8506,2021-09-27_13h41.36.177,forced_choiceRT_color,2021.2.3,Win32,59.84082341,,,,,,,,3,Ontime,short,j,1,1.947,9,2,38,2,1,,,,,
0.7,,,,,,,,,d,orange,583862506be00b0001cf8506,2021-09-27_13h41.36.177,forced_choiceRT_color,2021.2.3,Win32,59.84082341,,,,,,,,3,Ontime,short,d,1,2.0046,9,3,39,0,1,,,,,
,,,,,,,,,,,583862506be00b0001cf8506,2021-09-27_13h41.36.177,forced_choiceRT_color,2021.2.3,Win32,59.84082341,,,,,,,,,,,,,,,,,,,2,0,2,0,1
1.94,,,,,,,,,d,orange,583862506be00b0001cf8506,2021-09-27_13h41.36.177,forced_choiceRT_color,2021.2.3,Win32,59.84082341,,,,,,,,4,Ontime,short,j,0,1.9806,0,0,0,0,1,,,,,
1.57,,,,,,,,,j,red,583862506be00b0001cf8506,2021-09-27_13h41.36.177,forced_choiceRT_color,2021.2.3,Win32,59.84082341,,,,,,,,4,Ontime,short,j,1,2.0914,0,1,1,2,1,,,,,
0.25,,,,,,,,,f,blue,583862506be00b0001cf8506,2021-09-27_13h41.36.177,forced_choiceRT_color,2021.2.3,Win32,59.84082341,,,,,,,,4,Ontime,short,f,1,1.9512,0,2,2,1,1,,,,,
1.99,,,,,,,,,j,red,583862506be00b0001cf8506,2021-09-27_13h41.36.177,forced_choiceRT_color,2021.2.3,Win32,59.84082341,,,,,,,,4,Ontime,short,d,0,2.0855,0,3,3,2,1,,,,,
1.85,,,,,,,,,f,blue,583862506be00b0001cf8506,2021-09-27_13h41.36.177,forced_choiceRT_color,2021.2.3,Win32,59.84082341,,,,,,,,4,Ontime,short,d,0,1.9861,1,0,4,1,1,,,,,
1.53,,,,,,,,,d,orange,583862506be00b0001cf8506,2021-09-27_13h41.36.177,forced_choiceRT_color,2021.2.3,Win32,59.84082341,,,,,,,,4,Fast,short,f,0,0.0009,1,1,5,0,1,,,,,
0.86,,,,,,,,,k,purple,583862506be00b0001cf8506,2021-09-27_13h41.36.177,forced_choiceRT_color,2021.2.3,Win32,59.84082341,,,,,,,,4,Fast,short,k,1,1.5844,1,2,6,3,1,,,,,
1.45,,,,,,,,,d,orange,583862506be00b0001cf8506,2021-09-27_13h41.36.177,forced_choiceRT_color,2021.2.3,Win32,59.84082341,,,,,,,,4,Ontime,short,d,1,1.9866,1,3,7,0,1,,,,,
1.99,,,,,,,,,d,orange,583862506be00b0001cf8506,2021-09-27_13h41.36.177,forced_choiceRT_color,2021.2.3,Win32,59.84082341,,,,,,,,4,Slow,short,d,1,2.234,2,0,8,0,1,,,,,
0.31,,,,,,,,,j,red,583862506be00b0001cf8506,2021-09-27_13h41.36.177,forced_choiceRT_color,2021.2.3,Win32,59.84082341,,,,,,,,4,Ontime,short,j,1,1.9386,2,1,9,2,1,,,,,
0.38,,,,,,,,,k,purple,583862506be00b0001cf8506,2021-09-27_13h41.36.177,forced_choiceRT_color,2021.2.3,Win32,59.84082341,,,,,,,,4,Ontime,short,k,1,1.9171,2,2,10,3,1,,,,,
1.25,,,,,,,,,f,blue,583862506be00b0001cf8506,2021-09-27_13h41.36.177,forced_choiceRT_color,2021.2.3,Win32,59.84082341,,,,,,,,4,Ontime,short,f,1,2.0164,2,3,11,1,1,,,,,
1.75,,,,,,,,,j,red,583862506be00b0001cf8506,2021-09-27_13h41.36.177,forced_choiceRT_color,2021.2.3,Win32,59.84082341,,,,,,,,4,Slow,short,f,0,2.2404,3,0,12,2,1,,,,,
0.8,,,,,,,,,j,red,583862506be00b0001cf8506,2021-09-27_13h41.36.177,forced_choiceRT_color,2021.2.3,Win32,59.84082341,,,,,,,,4,Fast,short,j,1,1.8869,3,1,13,2,1,,,,,
0.68,,,,,,,,,j,red,583862506be00b0001cf8506,2021-09-27_13h41.36.177,forced_choiceRT_color,2021.2.3,Win32,59.84082341,,,,,,,,4,Ontime,short,j,1,1.9081,3,2,14,2,1,,,,,
0.79,,,,,,,,,k,purple,583862506be00b0001cf8506,2021-09-27_13h41.36.177,forced_choiceRT_color,2021.2.3,Win32,59.84082341,,,,,,,,4,Ontime,short,k,1,1.9015,3,3,15,3,1,,,,,
0.84,,,,,,,,,k,purple,583862506be00b0001cf8506,2021-09-27_13h41.36.177,forced_choiceRT_color,2021.2.3,Win32,59.84082341,,,,,,,,4,Ontime,short,k,1,1.9348,4,0,16,3,1,,,,,
1.02,,,,,,,,,f,blue,583862506be00b0001cf8506,2021-09-27_13h41.36.177,forced_choiceRT_color,2021.2.3,Win32,59.84082341,,,,,,,,4,Fast,short,f,1,1.8349,4,1,17,1,1,,,,,
0.27,,,,,,,,,k,purple,583862506be00b0001cf8506,2021-09-27_13h41.36.177,forced_choiceRT_color,2021.2.3,Win32,59.84082341,,,,,,,,4,Fast,short,k,1,1.868,4,2,18,3,1,,,,,
1.41,,,,,,,,,k,purple,583862506be00b0001cf8506,2021-09-27_13h41.36.177,forced_choiceRT_color,2021.2.3,Win32,59.84082341,,,,,,,,4,Slow,short,k,1,2.1429,4,3,19,3,1,,,,,
1.94,,,,,,,,,j,red,583862506be00b0001cf8506,2021-09-27_13h41.36.177,forced_choiceRT_color,2021.2.3,Win32,59.84082341,,,,,,,,4,Ontime,short,j,1,2.0522,5,0,20,2,1,,,,,
1.82,,,,,,,,,d,orange,583862506be00b0001cf8506,2021-09-27_13h41.36.177,forced_choiceRT_color,2021.2.3,Win32,59.84082341,,,,,,,,4,Ontime,short,k,0,1.9773,5,1,21,0,1,,,,,
0.77,,,,,,,,,k,purple,583862506be00b0001cf8506,2021-09-27_13h41.36.177,forced_choiceRT_color,2021.2.3,Win32,59.84082341,,,,,,,,4,Fast,short,k,1,1.8781,5,2,22,3,1,,,,,
0.54,,,,,,,,,f,blue,583862506be00b0001cf8506,2021-09-27_13h41.36.177,forced_choiceRT_color,2021.2.3,Win32,59.84082341,,,,,,,,4,Ontime,short,f,1,1.9442,5,3,23,1,1,,,,,
1.24,,,,,,,,,j,red,583862506be00b0001cf8506,2021-09-27_13h41.36.177,forced_choiceRT_color,2021.2.3,Win32,59.84082341,,,,,,,,4,Ontime,short,j,1,1.9427,6,0,24,2,1,,,,,
0.58,,,,,,,,,k,purple,583862506be00b0001cf8506,2021-09-27_13h41.36.177,forced_choiceRT_color,2021.2.3,Win32,59.84082341,,,,,,,,4,Ontime,short,k,1,2.0275,6,1,25,3,1,,,,,
1.84,,,,,,,,,j,red,583862506be00b0001cf8506,2021-09-27_13h41.36.177,forced_choiceRT_color,2021.2.3,Win32,59.84082341,,,,,,,,4,Ontime,short,j,1,1.9786,6,2,26,2,1,,,,,
1.42,,,,,,,,,f,blue,583862506be00b0001cf8506,2021-09-27_13h41.36.177,forced_choiceRT_color,2021.2.3,Win32,59.84082341,,,,,,,,4,Ontime,short,f,1,2.0016,6,3,27,1,1,,,,,
1.13,,,,,,,,,d,orange,583862506be00b0001cf8506,2021-09-27_13h41.36.177,forced_choiceRT_color,2021.2.3,Win32,59.84082341,,,,,,,,4,Ontime,short,d,1,1.9845,7,0,28,0,1,,,,,
0.41,,,,,,,,,j,red,583862506be00b0001cf8506,2021-09-27_13h41.36.177,forced_choiceRT_color,2021.2.3,Win32,59.84082341,,,,,,,,4,Ontime,short,j,1,2.073,7,1,29,2,1,,,,,
1.11,,,,,,,,,d,orange,583862506be00b0001cf8506,2021-09-27_13h41.36.177,forced_choiceRT_color,2021.2.3,Win32,59.84082341,,,,,,,,4,Ontime,short,d,1,1.955,7,2,30,0,1,,,,,
0.8,,,,,,,,,f,blue,583862506be00b0001cf8506,2021-09-27_13h41.36.177,forced_choiceRT_color,2021.2.3,Win32,59.84082341,,,,,,,,4,Ontime,short,f,1,1.9762,7,3,31,1,1,,,,,
1.11,,,,,,,,,k,purple,583862506be00b0001cf8506,2021-09-27_13h41.36.177,forced_choiceRT_color,2021.2.3,Win32,59.84082341,,,,,,,,4,Ontime,short,k,1,1.9783,8,0,32,3,1,,,,,
1.24,,,,,,,,,k,purple,583862506be00b0001cf8506,2021-09-27_13h41.36.177,forced_choiceRT_color,2021.2.3,Win32,59.84082341,,,,,,,,4,Ontime,short,k,1,2.0051,8,1,33,3,1,,,,,
1.92,,,,,,,,,d,orange,583862506be00b0001cf8506,2021-09-27_13h41.36.177,forced_choiceRT_color,2021.2.3,Win32,59.84082341,,,,,,,,4,Slow,short,j,0,2.1095,8,2,34,0,1,,,,,
0.97,,,,,,,,,f,blue,583862506be00b0001cf8506,2021-09-27_13h41.36.177,forced_choiceRT_color,2021.2.3,Win32,59.84082341,,,,,,,,4,Fast,short,j,0,1.5765,8,3,35,1,1,,,,,
1.81,,,,,,,,,d,orange,583862506be00b0001cf8506,2021-09-27_13h41.36.177,forced_choiceRT_color,2021.2.3,Win32,59.84082341,,,,,,,,4,Fast,short,f,0,1.653,9,0,36,0,1,,,,,
1.92,,,,,,,,,f,blue,583862506be00b0001cf8506,2021-09-27_13h41.36.177,forced_choiceRT_color,2021.2.3,Win32,59.84082341,,,,,,,,4,Slow,short,f,1,2.4033,9,1,37,1,1,,,,,
0.86,,,,,,,,,f,blue,583862506be00b0001cf8506,2021-09-27_13h41.36.177,forced_choiceRT_color,2021.2.3,Win32,59.84082341,,,,,,,,4,Ontime,short,f,1,1.971,9,2,38,1,1,,,,,
0.91,,,,,,,,,d,orange,583862506be00b0001cf8506,2021-09-27_13h41.36.177,forced_choiceRT_color,2021.2.3,Win32,59.84082341,,,,,,,,4,Ontime,short,d,1,2.057,9,3,39,0,1,,,,,
,,,,,,,,,,,583862506be00b0001cf8506,2021-09-27_13h41.36.177,forced_choiceRT_color,2021.2.3,Win32,59.84082341,,,,,,,,,,,,,,,,,,,3,0,3,0,1
0.49,,,,,,,,,d,orange,583862506be00b0001cf8506,2021-09-27_13h41.36.177,forced_choiceRT_color,2021.2.3,Win32,59.84082341,,,,,,,,5,Slow,short,d,1,5.6679,0,0,0,0,1,,,,,
1.94,,,,,,,,,j,red,583862506be00b0001cf8506,2021-09-27_13h41.36.177,forced_choiceRT_color,2021.2.3,Win32,59.84082341,,,,,,,,5,Ontime,short,f,0,1.9843,0,1,1,2,1,,,,,
1.47,,,,,,,,,j,red,583862506be00b0001cf8506,2021-09-27_13h41.36.177,forced_choiceRT_color,2021.2.3,Win32,59.84082341,,,,,,,,5,Slow,short,j,1,2.1023,0,2,2,2,1,,,,,
0.55,,,,,,,,,j,red,583862506be00b0001cf8506,2021-09-27_13h41.36.177,forced_choiceRT_color,2021.2.3,Win32,59.84082341,,,,,,,,5,Fast,short,j,1,1.5349,0,3,3,2,1,,,,,
0.31,,,,,,,,,d,orange,583862506be00b0001cf8506,2021-09-27_13h41.36.177,forced_choiceRT_color,2021.2.3,Win32,59.84082341,,,,,,,,5,Fast,short,d,1,1.7847,1,0,4,0,1,,,,,
1.81,,,,,,,,,k,purple,583862506be00b0001cf8506,2021-09-27_13h41.36.177,forced_choiceRT_color,2021.2.3,Win32,59.84082341,,,,,,,,5,Ontime,short,d,0,1.9083,1,1,5,3,1,,,,,
1.1,,,,,,,,,f,blue,583862506be00b0001cf8506,2021-09-27_13h41.36.177,forced_choiceRT_color,2021.2.3,Win32,59.84082341,,,,,,,,5,Ontime,short,f,1,2.0548,1,2,6,1,1,,,,,
1.52,,,,,,,,,j,red,583862506be00b0001cf8506,2021-09-27_13h41.36.177,forced_choiceRT_color,2021.2.3,Win32,59.84082341,,,,,,,,5,Ontime,short,f,0,2.0682,1,3,7,2,1,,,,,
0.27,,,,,,,,,f,blue,583862506be00b0001cf8506,2021-09-27_13h41.36.177,forced_choiceRT_color,2021.2.3,Win32,59.84082341,,,,,,,,5,Ontime,short,f,1,1.9761,2,0,8,1,1,,,,,
0.1,,,,,,,,,k,purple,583862506be00b0001cf8506,2021-09-27_13h41.36.177,forced_choiceRT_color,2021.2.3,Win32,59.84082341,,,,,,,,5,Ontime,short,k,1,1.9077,2,1,9,3,1,,,,,
0.81,,,,,,,,,j,red,583862506be00b0001cf8506,2021-09-27_13h41.36.177,forced_choiceRT_color,2021.2.3,Win32,59.84082341,,,,,,,,5,Ontime,short,j,1,1.9849,2,2,10,2,1,,,,,
0.35,,,,,,,,,f,blue,583862506be00b0001cf8506,2021-09-27_13h41.36.177,forced_choiceRT_color,2021.2.3,Win32,59.84082341,,,,,,,,5,Ontime,short,f,1,1.9725,2,3,11,1,1,,,,,
0.16,,,,,,,,,d,orange,583862506be00b0001cf8506,2021-09-27_13h41.36.177,forced_choiceRT_color,2021.2.3,Win32,59.84082341,,,,,,,,5,Fast,short,d,1,1.851,3,0,12,0,1,,,,,
1.13,,,,,,,,,j,red,583862506be00b0001cf8506,2021-09-27_13h41.36.177,forced_choiceRT_color,2021.2.3,Win32,59.84082341,,,,,,,,5,Fast,short,j,1,1.8684,3,1,13,2,1,,,,,
1.28,,,,,,,,,d,orange,583862506be00b0001cf8506,2021-09-27_13h41.36.177,forced_choiceRT_color,2021.2.3,Win32,59.84082341,,,,,,,,5,Fast,short,d,1,1.8339,3,2,14,0,1,,,,,
1.6,,,,,,,,,k,purple,583862506be00b0001cf8506,2021-09-27_13h41.36.177,forced_choiceRT_color,2021.2.3,Win32,59.84082341,,,,,,,,5,Ontime,short,d,0,2.0179,3,3,15,3,1,,,,,
0.11,,,,,,,,,f,blue,583862506be00b0001cf8506,2021-09-27_13h41.36.177,forced_choiceRT_color,2021.2.3,Win32,59.84082341,,,,,,,,5,Ontime,short,f,1,2.0014,4,0,16,1,1,,,,,
1.31,,,,,,,,,k,purple,583862506be00b0001cf8506,2021-09-27_13h41.36.177,forced_choiceRT_color,2021.2.3,Win32,59.84082341,,,,,,,,5,Ontime,short,k,1,2.052,4,1,17,3,1,,,,,
1.4,,,,,,,,,k,purple,583862506be00b0001cf8506,2021-09-27_13h41.36.177,forced_choiceRT_color,2021.2.3,Win32,59.84082341,,,,,,,,5,Ontime,short,k,1,2.0014,4,2,18,3,1,,,,,
1.76,,,,,,,,,d,orange,583862506be00b0001cf8506,2021-09-27_13h41.36.177,forced_choiceRT_color,2021.2.3,Win32,59.84082341,,,,,,,,5,Slow,short,k,0,2.1236,4,3,19,0,1,,,,,
1.42,,,,,,,,,f,blue,583862506be00b0001cf8506,2021-09-27_13h41.36.177,forced_choiceRT_color,2021.2.3,Win32,59.84082341,,,,,,,,5,Ontime,short,f,1,1.9855,5,0,20,1,1,,,,,
1.29,,,,,,,,,d,orange,583862506be00b0001cf8506,2021-09-27_13h41.36.177,forced_choiceRT_color,2021.2.3,Win32,59.84082341,,,,,,,,5,Slow,short,d,1,2.1012,5,1,21,0,1,,,,,
0.31,,,,,,,,,k,purple,583862506be00b0001cf8506,2021-09-27_13h41.36.177,forced_choiceRT_color,2021.2.3,Win32,59.84082341,,,,,,,,5,Ontime,short,k,1,1.9701,5,2,22,3,1,,,,,
1.28,,,,,,,,,j,red,583862506be00b0001cf8506,2021-09-27_13h41.36.177,forced_choiceRT_color,2021.2.3,Win32,59.84082341,,,,,,,,5,Ontime,short,j,1,2.025,5,3,23,2,1,,,,,
0.87,,,,,,,,,k,purple,583862506be00b0001cf8506,2021-09-27_13h41.36.177,forced_choiceRT_color,2021.2.3,Win32,59.84082341,,,,,,,,5,Ontime,short,k,1,1.9607,6,0,24,3,1,,,,,
0.77,,,,,,,,,f,blue,583862506be00b0001cf8506,2021-09-27_13h41.36.177,forced_choiceRT_color,2021.2.3,Win32,59.84082341,,,,,,,,5,Ontime,short,f,1,1.9563,6,1,25,1,1,,,,,
0.51,,,,,,,,,j,red,583862506be00b0001cf8506,2021-09-27_13h41.36.177,forced_choiceRT_color,2021.2.3,Win32,59.84082341,,,,,,,,5,Ontime,short,j,1,1.941,6,2,26,2,1,,,,,
0.1,,,,,,,,,j,red,583862506be00b0001cf8506,2021-09-27_13h41.36.177,forced_choiceRT_color,2021.2.3,Win32,59.84082341,,,,,,,,5,Fast,short,j,1,1.8608,6,3,27,2,1,,,,,
1.97,,,,,,,,,f,blue,583862506be00b0001cf8506,2021-09-27_13h41.36.177,forced_choiceRT_color,2021.2.3,Win32,59.84082341,,,,,,,,5,Ontime,short,d,0,1.919,7,0,28,1,1,,,,,
1.67,,,,,,,,,j,red,583862506be00b0001cf8506,2021-09-27_13h41.36.177,forced_choiceRT_color,2021.2.3,Win32,59.84082341,,,,,,,,5,Ontime,short,d,0,1.9073,7,1,29,2,1,,,,,
0.92,,,,,,,,,d,orange,583862506be00b0001cf8506,2021-09-27_13h41.36.177,forced_choiceRT_color,2021.2.3,Win32,59.84082341,,,,,,,,5,Ontime,short,d,1,1.9926,7,2,30,0,1,,,,,
1.85,,,,,,,,,k,purple,583862506be00b0001cf8506,2021-09-27_13h41.36.177,forced_choiceRT_color,2021.2.3,Win32,59.84082341,,,,,,,,5,Ontime,short,j,0,1.9869,7,3,31,3,1,,,,,
1.54,,,,,,,,,k,purple,583862506be00b0001cf8506,2021-09-27_13h41.36.177,forced_choiceRT_color,2021.2.3,Win32,59.84082341,,,,,,,,5,Ontime,short,d,0,1.9757,8,0,32,3,1,,,,,
1.11,,,,,,,,,f,blue,583862506be00b0001cf8506,2021-09-27_13h41.36.177,forced_choiceRT_color,2021.2.3,Win32,59.84082341,,,,,,,,5,Ontime,short,f,1,2.0191,8,1,33,1,1,,,,,
0.9,,,,,,,,,f,blue,583862506be00b0001cf8506,2021-09-27_13h41.36.177,forced_choiceRT_color,2021.2.3,Win32,59.84082341,,,,,,,,5,Ontime,short,f,1,1.963,8,2,34,1,1,,,,,
0.92,,,,,,,,,f,blue,583862506be00b0001cf8506,2021-09-27_13h41.36.177,forced_choiceRT_color,2021.2.3,Win32,59.84082341,,,,,,,,5,Ontime,short,f,1,2.0518,8,3,35,1,1,,,,,
0.02,,,,,,,,,d,orange,583862506be00b0001cf8506,2021-09-27_13h41.36.177,forced_choiceRT_color,2021.2.3,Win32,59.84082341,,,,,,,,5,Ontime,short,d,1,1.9924,9,0,36,0,1,,,,,
1.85,,,,,,,,,d,orange,583862506be00b0001cf8506,2021-09-27_13h41.36.177,forced_choiceRT_color,2021.2.3,Win32,59.84082341,,,,,,,,5,Ontime,short,k,0,1.9692,9,1,37,0,1,,,,,
0.83,,,,,,,,,d,orange,583862506be00b0001cf8506,2021-09-27_13h41.36.177,forced_choiceRT_color,2021.2.3,Win32,59.84082341,,,,,,,,5,Ontime,short,d,1,2.001,9,2,38,0,1,,,,,
0.22,,,,,,,,,k,purple,583862506be00b0001cf8506,2021-09-27_13h41.36.177,forced_choiceRT_color,2021.2.3,Win32,59.84082341,,,,,,,,5,Ontime,short,k,1,1.9686,9,3,39,3,1,,,,,
,,,,,,,,,,,583862506be00b0001cf8506,2021-09-27_13h41.36.177,forced_choiceRT_color,2021.2.3,Win32,59.84082341,,,,,,,,,,,,,,,,,,,4,0,4,0,1
0.91,,,,,,,,,j,red,583862506be00b0001cf8506,2021-09-27_13h41.36.177,forced_choiceRT_color,2021.2.3,Win32,59.84082341,,,,,,,,6,Ontime,short,j,1,1.9904,0,0,0,2,1,,,,,
0.77,,,,,,,,,f,blue,583862506be00b0001cf8506,2021-09-27_13h41.36.177,forced_choiceRT_color,2021.2.3,Win32,59.84082341,,,,,,,,6,Ontime,short,f,1,1.9929,0,1,1,1,1,,,,,
1.5,,,,,,,,,j,red,583862506be00b0001cf8506,2021-09-27_13h41.36.177,forced_choiceRT_color,2021.2.3,Win32,59.84082341,,,,,,,,6,Ontime,short,d,0,1.9871,0,2,2,2,1,,,,,
0.32,,,,,,,,,f,blue,583862506be00b0001cf8506,2021-09-27_13h41.36.177,forced_choiceRT_color,2021.2.3,Win32,59.84082341,,,,,,,,6,Ontime,short,f,1,2.0021,0,3,3,1,1,,,,,
1.13,,,,,,,,,j,red,583862506be00b0001cf8506,2021-09-27_13h41.36.177,forced_choiceRT_color,2021.2.3,Win32,59.84082341,,,,,,,,6,Ontime,short,j,1,1.9797,1,0,4,2,1,,,,,
0.58,,,,,,,,,j,red,583862506be00b0001cf8506,2021-09-27_13h41.36.177,forced_choiceRT_color,2021.2.3,Win32,59.84082341,,,,,,,,6,Ontime,short,j,1,1.9743,1,1,5,2,1,,,,,
0.97,,,,,,,,,j,red,583862506be00b0001cf8506,2021-09-27_13h41.36.177,forced_choiceRT_color,2021.2.3,Win32,59.84082341,,,,,,,,6,Ontime,short,j,1,1.9585,1,2,6,2,1,,,,,
0.38,,,,,,,,,k,purple,583862506be00b0001cf8506,2021-09-27_13h41.36.177,forced_choiceRT_color,2021.2.3,Win32,59.84082341,,,,,,,,6,Ontime,short,k,1,1.9564,1,3,7,3,1,,,,,
0.09,,,,,,,,,f,blue,583862506be00b0001cf8506,2021-09-27_13h41.36.177,forced_choiceRT_color,2021.2.3,Win32,59.84082341,,,,,,,,6,Ontime,short,f,1,1.9523,2,0,8,1,1,,,,,
1.09,,,,,,,,,k,purple,583862506be00b0001cf8506,2021-09-27_13h41.36.177,forced_choiceRT_color,2021.2.3,Win32,59.84082341,,,,,,,,6,Ontime,short,k,1,2.0519,2,1,9,3,1,,,,,
0.22,,,,,,,,,d,orange,583862506be00b0001cf8506,2021-09-27_13h41.36.177,forced_choiceRT_color,2021.2.3,Win32,59.84082341,,,,,,,,6,Ontime,short,d,1,2.01,2,2,10,0,1,,,,,
0.71,,,,,,,,,k,purple,583862506be00b0001cf8506,2021-09-27_13h41.36.177,forced_choiceRT_color,2021.2.3,Win32,59.84082341,,,,,,,,6,Ontime,short,k,1,2.0093,2,3,11,3,1,,,,,
0.43,,,,,,,,,k,purple,583862506be00b0001cf8506,2021-09-27_13h41.36.177,forced_choiceRT_color,2021.2.3,Win32,59.84082341,,,,,,,,6,Ontime,short,k,1,2.0042,3,0,12,3,1,,,,,
0.99,,,,,,,,,f,blue,583862506be00b0001cf8506,2021-09-27_13h41.36.177,forced_choiceRT_color,2021.2.3,Win32,59.84082341,,,,,,,,6,Ontime,short,f,1,2.0206,3,1,13,1,1,,,,,
1.53,,,,,,,,,k,purple,583862506be00b0001cf8506,2021-09-27_13h41.36.177,forced_choiceRT_color,2021.2.3,Win32,59.84082341,,,,,,,,6,Ontime,short,k,1,2.0749,3,2,14,3,1,,,,,
1.85,,,,,,,,,k,purple,583862506be00b0001cf8506,2021-09-27_13h41.36.177,forced_choiceRT_color,2021.2.3,Win32,59.84082341,,,,,,,,6,Ontime,short,j,0,1.9885,3,3,15,3,1,,,,,
1.69,,,,,,,,,f,blue,583862506be00b0001cf8506,2021-09-27_13h41.36.177,forced_choiceRT_color,2021.2.3,Win32,59.84082341,,,,,,,,6,Ontime,short,k,0,1.9851,4,0,16,1,1,,,,,
0.75,,,,,,,,,d,orange,583862506be00b0001cf8506,2021-09-27_13h41.36.177,forced_choiceRT_color,2021.2.3,Win32,59.84082341,,,,,,,,6,Ontime,short,d,1,2.0262,4,1,17,0,1,,,,,
0.33,,,,,,,,,d,orange,583862506be00b0001cf8506,2021-09-27_13h41.36.177,forced_choiceRT_color,2021.2.3,Win32,59.84082341,,,,,,,,6,Ontime,short,d,1,1.9349,4,2,18,0,1,,,,,
0.22,,,,,,,,,k,purple,583862506be00b0001cf8506,2021-09-27_13h41.36.177,forced_choiceRT_color,2021.2.3,Win32,59.84082341,,,,,,,,6,Ontime,short,k,1,1.9343,4,3,19,3,1,,,,,
1.53,,,,,,,,,f,blue,583862506be00b0001cf8506,2021-09-27_13h41.36.177,forced_choiceRT_color,2021.2.3,Win32,59.84082341,,,,,,,,6,Ontime,short,f,1,2.0855,5,0,20,1,1,,,,,
1.61,,,,,,,,,d,orange,583862506be00b0001cf8506,2021-09-27_13h41.36.177,forced_choiceRT_color,2021.2.3,Win32,59.84082341,,,,,,,,6,Ontime,short,j,0,1.9614,5,1,21,0,1,,,,,
1.78,,,,,,,,,j,red,583862506be00b0001cf8506,2021-09-27_13h41.36.177,forced_choiceRT_color,2021.2.3,Win32,59.84082341,,,,,,,,6,Ontime,short,d,0,1.9682,5,2,22,2,1,,,,,
1.14,,,,,,,,,f,blue,583862506be00b0001cf8506,2021-09-27_13h41.36.177,forced_choiceRT_color,2021.2.3,Win32,59.84082341,,,,,,,,6,Ontime,short,f,1,1.9849,5,3,23,1,1,,,,,
1.97,,,,,,,,,k,purple,583862506be00b0001cf8506,2021-09-27_13h41.36.177,forced_choiceRT_color,2021.2.3,Win32,59.84082341,,,,,,,,6,Ontime,short,j,0,1.984,6,0,24,3,1,,,,,
1.43,,,,,,,,,f,blue,583862506be00b0001cf8506,2021-09-27_13h41.36.177,forced_choiceRT_color,2021.2.3,Win32,59.84082341,,,,,,,,6,Ontime,short,d,0,2.0181,6,1,25,1,1,,,,,
0.13,,,,,,,,,j,red,583862506be00b0001cf8506,2021-09-27_13h41.36.177,forced_choiceRT_color,2021.2.3,Win32,59.84082341,,,,,,,,6,Fast,short,f,0,0.0269,6,2,26,2,1,,,,,
0.69,,,,,,,,,d,orange,583862506be00b0001cf8506,2021-09-27_13h41.36.177,forced_choiceRT_color,2021.2.3,Win32,59.84082341,,,,,,,,6,Fast,short,d,1,1.8717,6,3,27,0,1,,,,,
1.31,,,,,,,,,j,red,583862506be00b0001cf8506,2021-09-27_13h41.36.177,forced_choiceRT_color,2021.2.3,Win32,59.84082341,,,,,,,,6,Ontime,short,f,0,1.9854,7,0,28,2,1,,,,,
0.14,,,,,,,,,f,blue,583862506be00b0001cf8506,2021-09-27_13h41.36.177,forced_choiceRT_color,2021.2.3,Win32,59.84082341,,,,,,,,6,Ontime,short,f,1,2.0393,7,1,29,1,1,,,,,
1.67,,,,,,,,,j,red,583862506be00b0001cf8506,2021-09-27_13h41.36.177,forced_choiceRT_color,2021.2.3,Win32,59.84082341,,,,,,,,6,Slow,short,f,0,2.1425,7,2,30,2,1,,,,,
0.85,,,,,,,,,j,red,583862506be00b0001cf8506,2021-09-27_13h41.36.177,forced_choiceRT_color,2021.2.3,Win32,59.84082341,,,,,,,,6,Fast,short,j,1,1.8671,7,3,31,2,1,,,,,
1.72,,,,,,,,,k,purple,583862506be00b0001cf8506,2021-09-27_13h41.36.177,forced_choiceRT_color,2021.2.3,Win32,59.84082341,,,,,,,,6,Slow,short,j,0,2.1045,8,0,32,3,1,,,,,
1.54,,,,,,,,,f,blue,583862506be00b0001cf8506,2021-09-27_13h41.36.177,forced_choiceRT_color,2021.2.3,Win32,59.84082341,,,,,,,,6,Ontime,short,f,1,2.0342,8,1,33,1,1,,,,,
0.03,,,,,,,,,d,orange,583862506be00b0001cf8506,2021-09-27_13h41.36.177,forced_choiceRT_color,2021.2.3,Win32,59.84082341,,,,,,,,6,Ontime,short,d,1,2.0113,8,2,34,0,1,,,,,
1.56,,,,,,,,,d,orange,583862506be00b0001cf8506,2021-09-27_13h41.36.177,forced_choiceRT_color,2021.2.3,Win32,59.84082341,,,,,,,,6,Ontime,short,d,1,2.0379,8,3,35,0,1,,,,,
1.48,,,,,,,,,d,orange,583862506be00b0001cf8506,2021-09-27_13h41.36.177,forced_choiceRT_color,2021.2.3,Win32,59.84082341,,,,,,,,6,Ontime,short,d,1,1.9905,9,0,36,0,1,,,,,
1.87,,,,,,,,,k,purple,583862506be00b0001cf8506,2021-09-27_13h41.36.177,forced_choiceRT_color,2021.2.3,Win32,59.84082341,,,,,,,,6,Ontime,short,d,0,2.0176,9,1,37,3,1,,,,,
0.25,,,,,,,,,d,orange,583862506be00b0001cf8506,2021-09-27_13h41.36.177,forced_choiceRT_color,2021.2.3,Win32,59.84082341,,,,,,,,6,Ontime,short,d,1,1.9909,9,2,38,0,1,,,,,
1.26,,,,,,,,,d,orange,583862506be00b0001cf8506,2021-09-27_13h41.36.177,forced_choiceRT_color,2021.2.3,Win32,59.84082341,,,,,,,,6,Ontime,short,d,1,2.0196,9,3,39,0,1,,,,,
,,,,,,,,,,,583862506be00b0001cf8506,2021-09-27_13h41.36.177,forced_choiceRT_color,2021.2.3,Win32,59.84082341,,,,,,,,,,,,,,,,,,,5,0,5,0,1
1.01,,,,,,,,,k,purple,583862506be00b0001cf8506,2021-09-27_13h41.36.177,forced_choiceRT_color,2021.2.3,Win32,59.84082341,,,,,,,,7,Ontime,short,d,0,2.0285,0,0,0,3,1,,,,,
0.48,,,,,,,,,k,purple,583862506be00b0001cf8506,2021-09-27_13h41.36.177,forced_choiceRT_color,2021.2.3,Win32,59.84082341,,,,,,,,7,Ontime,short,d,0,2.0083,0,1,1,3,1,,,,,
0.99,,,,,,,,,j,red,583862506be00b0001cf8506,2021-09-27_13h41.36.177,forced_choiceRT_color,2021.2.3,Win32,59.84082341,,,,,,,,7,Ontime,short,j,1,1.9521,0,2,2,2,1,,,,,
1.49,,,,,,,,,j,red,583862506be00b0001cf8506,2021-09-27_13h41.36.177,forced_choiceRT_color,2021.2.3,Win32,59.84082341,,,,,,,,7,Ontime,short,j,1,2.001,0,3,3,2,1,,,,,
0.13,,,,,,,,,k,purple,583862506be00b0001cf8506,2021-09-27_13h41.36.177,forced_choiceRT_color,2021.2.3,Win32,59.84082341,,,,,,,,7,Ontime,short,d,0,2.0004,1,0,4,3,1,,,,,
0.86,,,,,,,,,d,orange,583862506be00b0001cf8506,2021-09-27_13h41.36.177,forced_choiceRT_color,2021.2.3,Win32,59.84082341,,,,,,,,7,Ontime,short,d,1,2.021,1,1,5,0,1,,,,,
0.85,,,,,,,,,j,red,583862506be00b0001cf8506,2021-09-27_13h41.36.177,forced_choiceRT_color,2021.2.3,Win32,59.84082341,,,,,,,,7,Ontime,short,f,0,2.0198,1,2,6,2,1,,,,,
1.13,,,,,,,,,f,blue,583862506be00b0001cf8506,2021-09-27_13h41.36.177,forced_choiceRT_color,2021.2.3,Win32,59.84082341,,,,,,,,7,Ontime,short,f,1,2.0071,1,3,7,1,1,,,,,
1.71,,,,,,,,,d,orange,583862506be00b0001cf8506,2021-09-27_13h41.36.177,forced_choiceRT_color,2021.2.3,Win32,59.84082341,,,,,,,,7,Ontime,short,d,1,2.0002,2,0,8,0,1,,,,,
1.92,,,,,,,,,f,blue,583862506be00b0001cf8506,2021-09-27_13h41.36.177,forced_choiceRT_color,2021.2.3,Win32,59.84082341,,,,,,,,7,Ontime,short,j,0,2.0056,2,1,9,1,1,,,,,
0.86,,,,,,,,,d,orange,583862506be00b0001cf8506,2021-09-27_13h41.36.177,forced_choiceRT_color,2021.2.3,Win32,59.84082341,,,,,,,,7,Ontime,short,d,1,2.0227,2,2,10,0,1,,,,,
0,,,,,,,,,j,red,583862506be00b0001cf8506,2021-09-27_13h41.36.177,forced_choiceRT_color,2021.2.3,Win32,59.84082341,,,,,,,,7,Ontime,short,j,1,1.9514,2,3,11,2,1,,,,,
1.21,,,,,,,,,j,red,583862506be00b0001cf8506,2021-09-27_13h41.36.177,forced_choiceRT_color,2021.2.3,Win32,59.84082341,,,,,,,,7,Ontime,short,j,1,2.0432,3,0,12,2,1,,,,,
0.74,,,,,,,,,k,purple,583862506be00b0001cf8506,2021-09-27_13h41.36.177,forced_choiceRT_color,2021.2.3,Win32,59.84082341,,,,,,,,7,Ontime,short,k,1,2.0769,3,1,13,3,1,,,,,
0.25,,,,,,,,,d,orange,583862506be00b0001cf8506,2021-09-27_13h41.36.177,forced_choiceRT_color,2021.2.3,Win32,59.84082341,,,,,,,,7,Ontime,short,d,1,1.9244,3,2,14,0,1,,,,,
0.87,,,,,,,,,f,blue,583862506be00b0001cf8506,2021-09-27_13h41.36.177,forced_choiceRT_color,2021.2.3,Win32,59.84082341,,,,,,,,7,Ontime,short,f,1,2.018,3,3,15,1,1,,,,,
0.6,,,,,,,,,f,blue,583862506be00b0001cf8506,2021-09-27_13h41.36.177,forced_choiceRT_color,2021.2.3,Win32,59.84082341,,,,,,,,7,Ontime,short,f,1,1.9886,4,0,16,1,1,,,,,
1.06,,,,,,,,,d,orange,583862506be00b0001cf8506,2021-09-27_13h41.36.177,forced_choiceRT_color,2021.2.3,Win32,59.84082341,,,,,,,,7,Ontime,short,j,0,2.0406,4,1,17,0,1,,,,,
1.19,,,,,,,,,k,purple,583862506be00b0001cf8506,2021-09-27_13h41.36.177,forced_choiceRT_color,2021.2.3,Win32,59.84082341,,,,,,,,7,Ontime,short,k,1,1.988,4,2,18,3,1,,,,,
0.6,,,,,,,,,k,purple,583862506be00b0001cf8506,2021-09-27_13h41.36.177,forced_choiceRT_color,2021.2.3,Win32,59.84082341,,,,,,,,7,Ontime,short,k,1,1.9519,4,3,19,3,1,,,,,
1.85,,,,,,,,,j,red,583862506be00b0001cf8506,2021-09-27_13h41.36.177,forced_choiceRT_color,2021.2.3,Win32,59.84082341,,,,,,,,7,Ontime,short,d,0,1.9347,5,0,20,2,1,,,,,
1.85,,,,,,,,,k,purple,583862506be00b0001cf8506,2021-09-27_13h41.36.177,forced_choiceRT_color,2021.2.3,Win32,59.84082341,,,,,,,,7,Fast,short,f,0,1.8946,5,1,21,3,1,,,,,
1.34,,,,,,,,,k,purple,583862506be00b0001cf8506,2021-09-27_13h41.36.177,forced_choiceRT_color,2021.2.3,Win32,59.84082341,,,,,,,,7,Fast,short,k,1,1.6112,5,2,22,3,1,,,,,
0.64,,,,,,,,,j,red,583862506be00b0001cf8506,2021-09-27_13h41.36.177,forced_choiceRT_color,2021.2.3,Win32,59.84082341,,,,,,,,7,Ontime,short,k,0,2.0515,5,3,23,2,1,,,,,
0.88,,,,,,,,,f,blue,583862506be00b0001cf8506,2021-09-27_13h41.36.177,forced_choiceRT_color,2021.2.3,Win32,59.84082341,,,,,,,,7,Ontime,short,f,1,2.0856,6,0,24,1,1,,,,,
0.56,,,,,,,,,f,blue,583862506be00b0001cf8506,2021-09-27_13h41.36.177,forced_choiceRT_color,2021.2.3,Win32,59.84082341,,,,,,,,7,Ontime,short,f,1,1.9521,6,1,25,1,1,,,,,
0.49,,,,,,,,,d,orange,583862506be00b0001cf8506,2021-09-27_13h41.36.177,forced_choiceRT_color,2021.2.3,Win32,59.84082341,,,,,,,,7,Ontime,short,d,1,2.0342,6,2,26,0,1,,,,,
0.18,,,,,,,,,d,orange,583862506be00b0001cf8506,2021-09-27_13h41.36.177,forced_choiceRT_color,2021.2.3,Win32,59.84082341,,,,,,,,7,Ontime,short,d,1,1.9851,6,3,27,0,1,,,,,
0.93,,,,,,,,,f,blue,583862506be00b0001cf8506,2021-09-27_13h41.36.177,forced_choiceRT_color,2021.2.3,Win32,59.84082341,,,,,,,,7,Ontime,short,f,1,2.0225,7,0,28,1,1,,,,,
1.94,,,,,,,,,f,blue,583862506be00b0001cf8506,2021-09-27_13h41.36.177,forced_choiceRT_color,2021.2.3,Win32,59.84082341,,,,,,,,7,Ontime,short,d,0,1.9852,7,1,29,1,1,,,,,
0.28,,,,,,,,,j,red,583862506be00b0001cf8506,2021-09-27_13h41.36.177,forced_choiceRT_color,2021.2.3,Win32,59.84082341,,,,,,,,7,Ontime,short,j,1,2.0091,7,2,30,2,1,,,,,
1.12,,,,,,,,,j,red,583862506be00b0001cf8506,2021-09-27_13h41.36.177,forced_choiceRT_color,2021.2.3,Win32,59.84082341,,,,,,,,7,Ontime,short,j,1,2.0546,7,3,31,2,1,,,,,
1.9,,,,,,,,,k,purple,583862506be00b0001cf8506,2021-09-27_13h41.36.177,forced_choiceRT_color,2021.2.3,Win32,59.84082341,,,,,,,,7,Ontime,short,d,0,1.9769,8,0,32,3,1,,,,,
0.11,,,,,,,,,f,blue,583862506be00b0001cf8506,2021-09-27_13h41.36.177,forced_choiceRT_color,2021.2.3,Win32,59.84082341,,,,,,,,7,Ontime,short,f,1,1.9738,8,1,33,1,1,,,,,
1.51,,,,,,,,,d,orange,583862506be00b0001cf8506,2021-09-27_13h41.36.177,forced_choiceRT_color,2021.2.3,Win32,59.84082341,,,,,,,,7,Ontime,short,d,1,1.9186,8,2,34,0,1,,,,,
1.88,,,,,,,,,f,blue,583862506be00b0001cf8506,2021-09-27_13h41.36.177,forced_choiceRT_color,2021.2.3,Win32,59.84082341,,,,,,,,7,Ontime,short,k,0,2.0258,8,3,35,1,1,,,,,
0.24,,,,,,,,,k,purple,583862506be00b0001cf8506,2021-09-27_13h41.36.177,forced_choiceRT_color,2021.2.3,Win32,59.84082341,,,,,,,,7,Ontime,short,k,1,2.0519,9,0,36,3,1,,,,,
0.46,,,,,,,,,d,orange,583862506be00b0001cf8506,2021-09-27_13h41.36.177,forced_choiceRT_color,2021.2.3,Win32,59.84082341,,,,,,,,7,Ontime,short,d,1,2.0344,9,1,37,0,1,,,,,
1.97,,,,,,,,,d,orange,583862506be00b0001cf8506,2021-09-27_13h41.36.177,forced_choiceRT_color,2021.2.3,Win32,59.84082341,,,,,,,,7,Ontime,short,j,0,1.9285,9,2,38,0,1,,,,,
0.9,,,,,,,,,j,red,583862506be00b0001cf8506,2021-09-27_13h41.36.177,forced_choiceRT_color,2021.2.3,Win32,59.84082341,,,,,,,,7,Ontime,short,j,1,2.0366,9,3,39,2,1,,,,,
,,,,,,,,,,,583862506be00b0001cf8506,2021-09-27_13h41.36.177,forced_choiceRT_color,2021.2.3,Win32,59.84082341,,,,,,,,,,,,,,,,,,,6,0,6,0,1
0.32,,,,,,,,,d,orange,583862506be00b0001cf8506,2021-09-27_13h41.36.177,forced_choiceRT_color,2021.2.3,Win32,59.84082341,,,,,,,,8,Fast,short,d,1,1.0351,0,0,0,0,1,,,,,
0.13,,,,,,,,,k,purple,583862506be00b0001cf8506,2021-09-27_13h41.36.177,forced_choiceRT_color,2021.2.3,Win32,59.84082341,,,,,,,,8,Ontime,short,k,1,2.0261,0,1,1,3,1,,,,,
1.45,,,,,,,,,f,blue,583862506be00b0001cf8506,2021-09-27_13h41.36.177,forced_choiceRT_color,2021.2.3,Win32,59.84082341,,,,,,,,8,Slow,short,f,1,2.1343,0,2,2,1,1,,,,,
0.17,,,,,,,,,k,purple,583862506be00b0001cf8506,2021-09-27_13h41.36.177,forced_choiceRT_color,2021.2.3,Win32,59.84082341,,,,,,,,8,Ontime,short,k,1,1.9183,0,3,3,3,1,,,,,
0.73,,,,,,,,,k,purple,583862506be00b0001cf8506,2021-09-27_13h41.36.177,forced_choiceRT_color,2021.2.3,Win32,59.84082341,,,,,,,,8,Fast,short,k,1,1.8854,1,0,4,3,1,,,,,
1.82,,,,,,,,,j,red,583862506be00b0001cf8506,2021-09-27_13h41.36.177,forced_choiceRT_color,2021.2.3,Win32,59.84082341,,,,,,,,8,Ontime,short,j,1,2.0192,1,1,5,2,1,,,,,
0.34,,,,,,,,,d,orange,583862506be00b0001cf8506,2021-09-27_13h41.36.177,forced_choiceRT_color,2021.2.3,Win32,59.84082341,,,,,,,,8,Ontime,short,d,1,1.9523,1,2,6,0,1,,,,,
0.16,,,,,,,,,k,purple,583862506be00b0001cf8506,2021-09-27_13h41.36.177,forced_choiceRT_color,2021.2.3,Win32,59.84082341,,,,,,,,8,Ontime,short,k,1,1.9117,1,3,7,3,1,,,,,
1.19,,,,,,,,,d,orange,583862506be00b0001cf8506,2021-09-27_13h41.36.177,forced_choiceRT_color,2021.2.3,Win32,59.84082341,,,,,,,,8,Ontime,short,d,1,1.9781,2,0,8,0,1,,,,,
1.84,,,,,,,,,j,red,583862506be00b0001cf8506,2021-09-27_13h41.36.177,forced_choiceRT_color,2021.2.3,Win32,59.84082341,,,,,,,,8,Ontime,short,d,0,2.0392,2,1,9,2,1,,,,,
1.73,,,,,,,,,d,orange,583862506be00b0001cf8506,2021-09-27_13h41.36.177,forced_choiceRT_color,2021.2.3,Win32,59.84082341,,,,,,,,8,Ontime,short,f,0,1.9452,2,2,10,0,1,,,,,
0.16,,,,,,,,,f,blue,583862506be00b0001cf8506,2021-09-27_13h41.36.177,forced_choiceRT_color,2021.2.3,Win32,59.84082341,,,,,,,,8,Ontime,short,f,1,1.9851,2,3,11,1,1,,,,,
0.03,,,,,,,,,j,red,583862506be00b0001cf8506,2021-09-27_13h41.36.177,forced_choiceRT_color,2021.2.3,Win32,59.84082341,,,,,,,,8,Ontime,short,j,1,1.9398,3,0,12,2,1,,,,,
0.76,,,,,,,,,d,orange,583862506be00b0001cf8506,2021-09-27_13h41.36.177,forced_choiceRT_color,2021.2.3,Win32,59.84082341,,,,,,,,8,Ontime,short,d,1,2.0229,3,1,13,0,1,,,,,
1.07,,,,,,,,,j,red,583862506be00b0001cf8506,2021-09-27_13h41.36.177,forced_choiceRT_color,2021.2.3,Win32,59.84082341,,,,,,,,8,Ontime,short,j,1,2.0536,3,2,14,2,1,,,,,
1.86,,,,,,,,,d,orange,583862506be00b0001cf8506,2021-09-27_13h41.36.177,forced_choiceRT_color,2021.2.3,Win32,59.84082341,,,,,,,,8,Ontime,short,d,1,2.0875,3,3,15,0,1,,,,,
0.79,,,,,,,,,k,purple,583862506be00b0001cf8506,2021-09-27_13h41.36.177,forced_choiceRT_color,2021.2.3,Win32,59.84082341,,,,,,,,8,Ontime,short,k,1,2.0179,4,0,16,3,1,,,,,
1,,,,,,,,,j,red,583862506be00b0001cf8506,2021-09-27_13h41.36.177,forced_choiceRT_color,2021.2.3,Win32,59.84082341,,,,,,,,8,Ontime,short,j,1,1.9912,4,1,17,2,1,,,,,
0.11,,,,,,,,,d,orange,583862506be00b0001cf8506,2021-09-27_13h41.36.177,forced_choiceRT_color,2021.2.3,Win32,59.84082341,,,,,,,,8,Ontime,short,d,1,2.0869,4,2,18,0,1,,,,,
1.84,,,,,,,,,f,blue,583862506be00b0001cf8506,2021-09-27_13h41.36.177,forced_choiceRT_color,2021.2.3,Win32,59.84082341,,,,,,,,8,Ontime,short,j,0,2.0553,4,3,19,1,1,,,,,
1.84,,,,,,,,,f,blue,583862506be00b0001cf8506,2021-09-27_13h41.36.177,forced_choiceRT_color,2021.2.3,Win32,59.84082341,,,,,,,,8,Slow,short,d,0,2.2182,5,0,20,1,1,,,,,
0.46,,,,,,,,,f,blue,583862506be00b0001cf8506,2021-09-27_13h41.36.177,forced_choiceRT_color,2021.2.3,Win32,59.84082341,,,,,,,,8,Ontime,short,f,1,1.907,5,1,21,1,1,,,,,
1.5,,,,,,,,,j,red,583862506be00b0001cf8506,2021-09-27_13h41.36.177,forced_choiceRT_color,2021.2.3,Win32,59.84082341,,,,,,,,8,Ontime,short,f,0,2.0367,5,2,22,2,1,,,,,
1.5,,,,,,,,,d,orange,583862506be00b0001cf8506,2021-09-27_13h41.36.177,forced_choiceRT_color,2021.2.3,Win32,59.84082341,,,,,,,,8,Ontime,short,d,1,1.9389,5,3,23,0,1,,,,,
0.55,,,,,,,,,k,purple,583862506be00b0001cf8506,2021-09-27_13h41.36.177,forced_choiceRT_color,2021.2.3,Win32,59.84082341,,,,,,,,8,Fast,short,k,1,1.8951,6,0,24,3,1,,,,,
0.04,,,,,,,,,k,purple,583862506be00b0001cf8506,2021-09-27_13h41.36.177,forced_choiceRT_color,2021.2.3,Win32,59.84082341,,,,,,,,8,Ontime,short,k,1,1.9047,6,1,25,3,1,,,,,
1.96,,,,,,,,,k,purple,583862506be00b0001cf8506,2021-09-27_13h41.36.177,forced_choiceRT_color,2021.2.3,Win32,59.84082341,,,,,,,,8,Slow,short,d,0,2.2544,6,2,26,3,1,,,,,
1.08,,,,,,,,,j,red,583862506be00b0001cf8506,2021-09-27_13h41.36.177,forced_choiceRT_color,2021.2.3,Win32,59.84082341,,,,,,,,8,Ontime,short,j,1,2.0019,6,3,27,2,1,,,,,
1.85,,,,,,,,,f,blue,583862506be00b0001cf8506,2021-09-27_13h41.36.177,forced_choiceRT_color,2021.2.3,Win32,59.84082341,,,,,,,,8,Ontime,short,j,0,2.0899,7,0,28,1,1,,,,,
0.84,,,,,,,,,f,blue,583862506be00b0001cf8506,2021-09-27_13h41.36.177,forced_choiceRT_color,2021.2.3,Win32,59.84082341,,,,,,,,8,Ontime,short,f,1,1.9356,7,1,29,1,1,,,,,
1.69,,,,,,,,,f,blue,583862506be00b0001cf8506,2021-09-27_13h41.36.177,forced_choiceRT_color,2021.2.3,Win32,59.84082341,,,,,,,,8,Ontime,short,f,1,1.9686,7,2,30,1,1,,,,,
0.27,,,,,,,,,f,blue,583862506be00b0001cf8506,2021-09-27_13h41.36.177,forced_choiceRT_color,2021.2.3,Win32,59.84082341,,,,,,,,8,Ontime,short,f,1,2.0348,7,3,31,1,1,,,,,
0.55,,,,,,,,,k,purple,583862506be00b0001cf8506,2021-09-27_13h41.36.177,forced_choiceRT_color,2021.2.3,Win32,59.84082341,,,,,,,,8,Ontime,short,k,1,1.9341,8,0,32,3,1,,,,,
1.47,,,,,,,,,k,purple,583862506be00b0001cf8506,2021-09-27_13h41.36.177,forced_choiceRT_color,2021.2.3,Win32,59.84082341,,,,,,,,8,Ontime,short,k,1,2.0011,8,1,33,3,1,,,,,
1.03,,,,,,,,,d,orange,583862506be00b0001cf8506,2021-09-27_13h41.36.177,forced_choiceRT_color,2021.2.3,Win32,59.84082341,,,,,,,,8,Ontime,short,d,1,2.0549,8,2,34,0,1,,,,,
1.75,,,,,,,,,d,orange,583862506be00b0001cf8506,2021-09-27_13h41.36.177,forced_choiceRT_color,2021.2.3,Win32,59.84082341,,,,,,,,8,Ontime,short,j,0,2.0784,8,3,35,0,1,,,,,
1.04,,,,,,,,,j,red,583862506be00b0001cf8506,2021-09-27_13h41.36.177,forced_choiceRT_color,2021.2.3,Win32,59.84082341,,,,,,,,8,Ontime,short,j,1,2.0687,9,0,36,2,1,,,,,
1.12,,,,,,,,,f,blue,583862506be00b0001cf8506,2021-09-27_13h41.36.177,forced_choiceRT_color,2021.2.3,Win32,59.84082341,,,,,,,,8,Ontime,short,f,1,2.011,9,1,37,1,1,,,,,
1.73,,,,,,,,,j,red,583862506be00b0001cf8506,2021-09-27_13h41.36.177,forced_choiceRT_color,2021.2.3,Win32,59.84082341,,,,,,,,8,Slow,short,j,1,2.1086,9,2,38,2,1,,,,,
0.63,,,,,,,,,j,red,583862506be00b0001cf8506,2021-09-27_13h41.36.177,forced_choiceRT_color,2021.2.3,Win32,59.84082341,,,,,,,,8,Ontime,short,j,1,2.0111,9,3,39,2,1,,,,,
,,,,,,,,,,,583862506be00b0001cf8506,2021-09-27_13h41.36.177,forced_choiceRT_color,2021.2.3,Win32,59.84082341,,,,,,,,,,,,,,,,,,,7,0,7,0,1
1.42,,,,,,,,,j,red,583862506be00b0001cf8506,2021-09-27_13h41.36.177,forced_choiceRT_color,2021.2.3,Win32,59.84082341,,,,,,,,9,Ontime,short,j,1,1.9862,0,0,0,2,1,,,,,
1.56,,,,,,,,,d,orange,583862506be00b0001cf8506,2021-09-27_13h41.36.177,forced_choiceRT_color,2021.2.3,Win32,59.84082341,,,,,,,,9,Ontime,short,d,1,2.0843,0,1,1,0,1,,,,,
1.1,,,,,,,,,d,orange,583862506be00b0001cf8506,2021-09-27_13h41.36.177,forced_choiceRT_color,2021.2.3,Win32,59.84082341,,,,,,,,9,Ontime,short,d,1,1.9723,0,2,2,0,1,,,,,
1.41,,,,,,,,,d,orange,583862506be00b0001cf8506,2021-09-27_13h41.36.177,forced_choiceRT_color,2021.2.3,Win32,59.84082341,,,,,,,,9,Fast,short,d,1,1.8208,0,3,3,0,1,,,,,
0.81,,,,,,,,,d,orange,583862506be00b0001cf8506,2021-09-27_13h41.36.177,forced_choiceRT_color,2021.2.3,Win32,59.84082341,,,,,,,,9,Ontime,short,d,1,1.9186,1,0,4,0,1,,,,,
1.25,,,,,,,,,f,blue,583862506be00b0001cf8506,2021-09-27_13h41.36.177,forced_choiceRT_color,2021.2.3,Win32,59.84082341,,,,,,,,9,Fast,short,f,1,1.8188,1,1,5,1,1,,,,,
1.72,,,,,,,,,k,purple,583862506be00b0001cf8506,2021-09-27_13h41.36.177,forced_choiceRT_color,2021.2.3,Win32,59.84082341,,,,,,,,9,Slow,short,j,0,2.1901,1,2,6,3,1,,,,,
0.44,,,,,,,,,k,purple,583862506be00b0001cf8506,2021-09-27_13h41.36.177,forced_choiceRT_color,2021.2.3,Win32,59.84082341,,,,,,,,9,Ontime,short,k,1,1.9847,1,3,7,3,1,,,,,
0.85,,,,,,,,,f,blue,583862506be00b0001cf8506,2021-09-27_13h41.36.177,forced_choiceRT_color,2021.2.3,Win32,59.84082341,,,,,,,,9,Slow,short,f,1,2.1362,2,0,8,1,1,,,,,
1.47,,,,,,,,,d,orange,583862506be00b0001cf8506,2021-09-27_13h41.36.177,forced_choiceRT_color,2021.2.3,Win32,59.84082341,,,,,,,,9,Ontime,short,d,1,1.9833,2,1,9,0,1,,,,,
0.9,,,,,,,,,k,purple,583862506be00b0001cf8506,2021-09-27_13h41.36.177,forced_choiceRT_color,2021.2.3,Win32,59.84082341,,,,,,,,9,Ontime,short,k,1,2.0435,2,2,10,3,1,,,,,
1.93,,,,,,,,,d,orange,583862506be00b0001cf8506,2021-09-27_13h41.36.177,forced_choiceRT_color,2021.2.3,Win32,59.84082341,,,,,,,,9,Slow,short,j,0,2.1871,2,3,11,0,1,,,,,
0.15,,,,,,,,,f,blue,583862506be00b0001cf8506,2021-09-27_13h41.36.177,forced_choiceRT_color,2021.2.3,Win32,59.84082341,,,,,,,,9,Ontime,short,f,1,1.9027,3,0,12,1,1,,,,,
1.63,,,,,,,,,j,red,583862506be00b0001cf8506,2021-09-27_13h41.36.177,forced_choiceRT_color,2021.2.3,Win32,59.84082341,,,,,,,,9,Slow,short,j,1,2.1684,3,1,13,2,1,,,,,
1.15,,,,,,,,,j,red,583862506be00b0001cf8506,2021-09-27_13h41.36.177,forced_choiceRT_color,2021.2.3,Win32,59.84082341,,,,,,,,9,Fast,short,j,1,1.7558,3,2,14,2,1,,,,,
1.92,,,,,,,,,k,purple,583862506be00b0001cf8506,2021-09-27_13h41.36.177,forced_choiceRT_color,2021.2.3,Win32,59.84082341,,,,,,,,9,Ontime,short,f,0,2.0257,3,3,15,3,1,,,,,
1.68,,,,,,,,,j,red,583862506be00b0001cf8506,2021-09-27_13h41.36.177,forced_choiceRT_color,2021.2.3,Win32,59.84082341,,,,,,,,9,Fast,short,j,1,0.0572,4,0,16,2,1,,,,,
1.39,,,,,,,,,k,purple,583862506be00b0001cf8506,2021-09-27_13h41.36.177,forced_choiceRT_color,2021.2.3,Win32,59.84082341,,,,,,,,9,Ontime,short,k,1,1.9237,4,1,17,3,1,,,,,
1.35,,,,,,,,,f,blue,583862506be00b0001cf8506,2021-09-27_13h41.36.177,forced_choiceRT_color,2021.2.3,Win32,59.84082341,,,,,,,,9,Ontime,short,f,1,2.0163,4,2,18,1,1,,,,,
1.64,,,,,,,,,d,orange,583862506be00b0001cf8506,2021-09-27_13h41.36.177,forced_choiceRT_color,2021.2.3,Win32,59.84082341,,,,,,,,9,Ontime,short,j,0,2.0849,4,3,19,0,1,,,,,
1.11,,,,,,,,,k,purple,583862506be00b0001cf8506,2021-09-27_13h41.36.177,forced_choiceRT_color,2021.2.3,Win32,59.84082341,,,,,,,,9,Ontime,short,k,1,1.9078,5,0,20,3,1,,,,,
1.14,,,,,,,,,f,blue,583862506be00b0001cf8506,2021-09-27_13h41.36.177,forced_choiceRT_color,2021.2.3,Win32,59.84082341,,,,,,,,9,Slow,short,f,1,2.108,5,1,21,1,1,,,,,
1.32,,,,,,,,,j,red,583862506be00b0001cf8506,2021-09-27_13h41.36.177,forced_choiceRT_color,2021.2.3,Win32,59.84082341,,,,,,,,9,Fast,short,j,1,1.8851,5,2,22,2,1,,,,,
1.15,,,,,,,,,j,red,583862506be00b0001cf8506,2021-09-27_13h41.36.177,forced_choiceRT_color,2021.2.3,Win32,59.84082341,,,,,,,,9,Fast,short,j,1,1.8064,5,3,23,2,1,,,,,
0.88,,,,,,,,,j,red,583862506be00b0001cf8506,2021-09-27_13h41.36.177,forced_choiceRT_color,2021.2.3,Win32,59.84082341,,,,,,,,9,Fast,short,j,1,1.8576,6,0,24,2,1,,,,,
1.41,,,,,,,,,j,red,583862506be00b0001cf8506,2021-09-27_13h41.36.177,forced_choiceRT_color,2021.2.3,Win32,59.84082341,,,,,,,,9,Ontime,short,j,1,2.0404,6,1,25,2,1,,,,,
1.6,,,,,,,,,f,blue,583862506be00b0001cf8506,2021-09-27_13h41.36.177,forced_choiceRT_color,2021.2.3,Win32,59.84082341,,,,,,,,9,Slow,short,f,1,2.1886,6,2,26,1,1,,,,,
0.53,,,,,,,,,f,blue,583862506be00b0001cf8506,2021-09-27_13h41.36.177,forced_choiceRT_color,2021.2.3,Win32,59.84082341,,,,,,,,9,Ontime,short,f,1,1.9686,6,3,27,1,1,,,,,
1.85,,,,,,,,,k,purple,583862506be00b0001cf8506,2021-09-27_13h41.36.177,forced_choiceRT_color,2021.2.3,Win32,59.84082341,,,,,,,,9,Slow,short,k,1,2.238,7,0,28,3,1,,,,,
1.09,,,,,,,,,k,purple,583862506be00b0001cf8506,2021-09-27_13h41.36.177,forced_choiceRT_color,2021.2.3,Win32,59.84082341,,,,,,,,9,Fast,short,k,1,1.6344,7,1,29,3,1,,,,,
1.82,,,,,,,,,f,blue,583862506be00b0001cf8506,2021-09-27_13h41.36.177,forced_choiceRT_color,2021.2.3,Win32,59.84082341,,,,,,,,9,Slow,short,j,0,2.1751,7,2,30,1,1,,,,,
0.53,,,,,,,,,f,blue,583862506be00b0001cf8506,2021-09-27_13h41.36.177,forced_choiceRT_color,2021.2.3,Win32,59.84082341,,,,,,,,9,Ontime,short,f,1,1.9519,7,3,31,1,1,,,,,
0.02,,,,,,,,,d,orange,583862506be00b0001cf8506,2021-09-27_13h41.36.177,forced_choiceRT_color,2021.2.3,Win32,59.84082341,,,,,,,,9,Ontime,short,d,1,2.0067,8,0,32,0,1,,,,,
1.53,,,,,,,,,d,orange,583862506be00b0001cf8506,2021-09-27_13h41.36.177,forced_choiceRT_color,2021.2.3,Win32,59.84082341,,,,,,,,9,Ontime,short,d,1,2.0739,8,1,33,0,1,,,,,
0.96,,,,,,,,,k,purple,583862506be00b0001cf8506,2021-09-27_13h41.36.177,forced_choiceRT_color,2021.2.3,Win32,59.84082341,,,,,,,,9,Ontime,short,k,1,2.0177,8,2,34,3,1,,,,,
0.18,,,,,,,,,f,blue,583862506be00b0001cf8506,2021-09-27_13h41.36.177,forced_choiceRT_color,2021.2.3,Win32,59.84082341,,,,,,,,9,Ontime,short,f,1,1.97,8,3,35,1,1,,,,,
0.2,,,,,,,,,d,orange,583862506be00b0001cf8506,2021-09-27_13h41.36.177,forced_choiceRT_color,2021.2.3,Win32,59.84082341,,,,,,,,9,Ontime,short,d,1,1.9518,9,0,36,0,1,,,,,
0.37,,,,,,,,,j,red,583862506be00b0001cf8506,2021-09-27_13h41.36.177,forced_choiceRT_color,2021.2.3,Win32,59.84082341,,,,,,,,9,Ontime,short,j,1,1.96,9,1,37,2,1,,,,,
1.3,,,,,,,,,j,red,583862506be00b0001cf8506,2021-09-27_13h41.36.177,forced_choiceRT_color,2021.2.3,Win32,59.84082341,,,,,,,,9,Ontime,short,j,1,2.0188,9,2,38,2,1,,,,,
0.27,,,,,,,,,k,purple,583862506be00b0001cf8506,2021-09-27_13h41.36.177,forced_choiceRT_color,2021.2.3,Win32,59.84082341,,,,,,,,9,Ontime,short,k,1,1.918,9,3,39,3,1,,,,,
,,,,,,,,,,,583862506be00b0001cf8506,2021-09-27_13h41.36.177,forced_choiceRT_color,2021.2.3,Win32,59.84082341,,,,,,,,,,,,,,,,,,,8,0,8,0,1
1.62,,,,,,,,,k,purple,583862506be00b0001cf8506,2021-09-27_13h41.36.177,forced_choiceRT_color,2021.2.3,Win32,59.84082341,,,,,,,,10,Fast,short,j,0,0.2604,0,0,0,3,1,,,,,
1.44,,,,,,,,,k,purple,583862506be00b0001cf8506,2021-09-27_13h41.36.177,forced_choiceRT_color,2021.2.3,Win32,59.84082341,,,,,,,,10,Ontime,short,k,1,2.0347,0,1,1,3,1,,,,,
0.59,,,,,,,,,d,orange,583862506be00b0001cf8506,2021-09-27_13h41.36.177,forced_choiceRT_color,2021.2.3,Win32,59.84082341,,,,,,,,10,Ontime,short,d,1,2.0185,0,2,2,0,1,,,,,
0.89,,,,,,,,,d,orange,583862506be00b0001cf8506,2021-09-27_13h41.36.177,forced_choiceRT_color,2021.2.3,Win32,59.84082341,,,,,,,,10,Ontime,short,d,1,2.0341,0,3,3,0,1,,,,,
1.72,,,,,,,,,f,blue,583862506be00b0001cf8506,2021-09-27_13h41.36.177,forced_choiceRT_color,2021.2.3,Win32,59.84082341,,,,,,,,10,Ontime,short,j,0,2.0357,1,0,4,1,1,,,,,
0.55,,,,,,,,,f,blue,583862506be00b0001cf8506,2021-09-27_13h41.36.177,forced_choiceRT_color,2021.2.3,Win32,59.84082341,,,,,,,,10,Ontime,short,f,1,2.035,1,1,5,1,1,,,,,
1.86,,,,,,,,,k,purple,583862506be00b0001cf8506,2021-09-27_13h41.36.177,forced_choiceRT_color,2021.2.3,Win32,59.84082341,,,,,,,,10,Ontime,short,j,0,2.0038,1,2,6,3,1,,,,,
1.37,,,,,,,,,d,orange,583862506be00b0001cf8506,2021-09-27_13h41.36.177,forced_choiceRT_color,2021.2.3,Win32,59.84082341,,,,,,,,10,Ontime,short,d,1,2.0181,1,3,7,0,1,,,,,
0.19,,,,,,,,,k,purple,583862506be00b0001cf8506,2021-09-27_13h41.36.177,forced_choiceRT_color,2021.2.3,Win32,59.84082341,,,,,,,,10,Ontime,short,k,1,2.0509,2,0,8,3,1,,,,,
1.44,,,,,,,,,f,blue,583862506be00b0001cf8506,2021-09-27_13h41.36.177,forced_choiceRT_color,2021.2.3,Win32,59.84082341,,,,,,,,10,Ontime,short,d,0,2.0403,2,1,9,1,1,,,,,
0.52,,,,,,,,,j,red,583862506be00b0001cf8506,2021-09-27_13h41.36.177,forced_choiceRT_color,2021.2.3,Win32,59.84082341,,,,,,,,10,Ontime,short,j,1,2.0353,2,2,10,2,1,,,,,
0.79,,,,,,,,,j,red,583862506be00b0001cf8506,2021-09-27_13h41.36.177,forced_choiceRT_color,2021.2.3,Win32,59.84082341,,,,,,,,10,Ontime,short,j,1,1.954,2,3,11,2,1,,,,,
0.59,,,,,,,,,j,red,583862506be00b0001cf8506,2021-09-27_13h41.36.177,forced_choiceRT_color,2021.2.3,Win32,59.84082341,,,,,,,,10,Ontime,short,j,1,1.9429,3,0,12,2,1,,,,,
1.73,,,,,,,,,k,purple,583862506be00b0001cf8506,2021-09-27_13h41.36.177,forced_choiceRT_color,2021.2.3,Win32,59.84082341,,,,,,,,10,Ontime,short,k,1,1.9891,3,1,13,3,1,,,,,
1.31,,,,,,,,,f,blue,583862506be00b0001cf8506,2021-09-27_13h41.36.177,forced_choiceRT_color,2021.2.3,Win32,59.84082341,,,,,,,,10,Ontime,short,f,1,2.0225,3,2,14,1,1,,,,,
0,,,,,,,,,d,orange,583862506be00b0001cf8506,2021-09-27_13h41.36.177,forced_choiceRT_color,2021.2.3,Win32,59.84082341,,,,,,,,10,Ontime,short,d,1,1.9019,3,3,15,0,1,,,,,
1.05,,,,,,,,,f,blue,583862506be00b0001cf8506,2021-09-27_13h41.36.177,forced_choiceRT_color,2021.2.3,Win32,59.84082341,,,,,,,,10,Ontime,short,f,1,2.0876,4,0,16,1,1,,,,,
0.61,,,,,,,,,d,orange,583862506be00b0001cf8506,2021-09-27_13h41.36.177,forced_choiceRT_color,2021.2.3,Win32,59.84082341,,,,,,,,10,Ontime,short,d,1,2.018,4,1,17,0,1,,,,,
1.43,,,,,,,,,j,red,583862506be00b0001cf8506,2021-09-27_13h41.36.177,forced_choiceRT_color,2021.2.3,Win32,59.84082341,,,,,,,,10,Ontime,short,j,1,2.0215,4,2,18,2,1,,,,,
1.69,,,,,,,,,j,red,583862506be00b0001cf8506,2021-09-27_13h41.36.177,forced_choiceRT_color,2021.2.3,Win32,59.84082341,,,,,,,,10,Ontime,short,k,0,1.9747,4,3,19,2,1,,,,,
1.12,,,,,,,,,f,blue,583862506be00b0001cf8506,2021-09-27_13h41.36.177,forced_choiceRT_color,2021.2.3,Win32,59.84082341,,,,,,,,10,Ontime,short,f,1,2.088,5,0,20,1,1,,,,,
1.37,,,,,,,,,f,blue,583862506be00b0001cf8506,2021-09-27_13h41.36.177,forced_choiceRT_color,2021.2.3,Win32,59.84082341,,,,,,,,10,Ontime,short,f,1,1.9931,5,1,21,1,1,,,,,
0.16,,,,,,,,,j,red,583862506be00b0001cf8506,2021-09-27_13h41.36.177,forced_choiceRT_color,2021.2.3,Win32,59.84082341,,,,,,,,10,Ontime,short,j,1,1.9019,5,2,22,2,1,,,,,
0.12,,,,,,,,,j,red,583862506be00b0001cf8506,2021-09-27_13h41.36.177,forced_choiceRT_color,2021.2.3,Win32,59.84082341,,,,,,,,10,Ontime,short,j,1,1.9112,5,3,23,2,1,,,,,
0.34,,,,,,,,,k,purple,583862506be00b0001cf8506,2021-09-27_13h41.36.177,forced_choiceRT_color,2021.2.3,Win32,59.84082341,,,,,,,,10,Fast,short,k,1,1.8886,6,0,24,3,1,,,,,
0.69,,,,,,,,,f,blue,583862506be00b0001cf8506,2021-09-27_13h41.36.177,forced_choiceRT_color,2021.2.3,Win32,59.84082341,,,,,,,,10,Ontime,short,f,1,1.9085,6,1,25,1,1,,,,,
1.94,,,,,,,,,j,red,583862506be00b0001cf8506,2021-09-27_13h41.36.177,forced_choiceRT_color,2021.2.3,Win32,59.84082341,,,,,,,,10,Ontime,short,d,0,1.9407,6,2,26,2,1,,,,,
0.1,,,,,,,,,d,orange,583862506be00b0001cf8506,2021-09-27_13h41.36.177,forced_choiceRT_color,2021.2.3,Win32,59.84082341,,,,,,,,10,Ontime,short,d,1,1.9275,6,3,27,0,1,,,,,
0.35,,,,,,,,,k,purple,583862506be00b0001cf8506,2021-09-27_13h41.36.177,forced_choiceRT_color,2021.2.3,Win32,59.84082341,,,,,,,,10,Ontime,short,k,1,1.9595,7,0,28,3,1,,,,,
0.15,,,,,,,,,f,blue,583862506be00b0001cf8506,2021-09-27_13h41.36.177,forced_choiceRT_color,2021.2.3,Win32,59.84082341,,,,,,,,10,Fast,short,f,1,1.8859,7,1,29,1,1,,,,,
1.63,,,,,,,,,d,orange,583862506be00b0001cf8506,2021-09-27_13h41.36.177,forced_choiceRT_color,2021.2.3,Win32,59.84082341,,,,,,,,10,Slow,short,j,0,2.1179,7,2,30,0,1,,,,,
1.84,,,,,,,,,j,red,583862506be00b0001cf8506,2021-09-27_13h41.36.177,forced_choiceRT_color,2021.2.3,Win32,59.84082341,,,,,,,,10,Ontime,short,k,0,2.0031,7,3,31,2,1,,,,,
1.3,,,,,,,,,d,orange,583862506be00b0001cf8506,2021-09-27_13h41.36.177,forced_choiceRT_color,2021.2.3,Win32,59.84082341,,,,,,,,10,Ontime,short,d,1,2.0181,8,0,32,0,1,,,,,
0.87,,,,,,,,,d,orange,583862506be00b0001cf8506,2021-09-27_13h41.36.177,forced_choiceRT_color,2021.2.3,Win32,59.84082341,,,,,,,,10,Ontime,short,d,1,2.0243,8,1,33,0,1,,,,,
1.73,,,,,,,,,d,orange,583862506be00b0001cf8506,2021-09-27_13h41.36.177,forced_choiceRT_color,2021.2.3,Win32,59.84082341,,,,,,,,10,Ontime,short,d,1,2.0271,8,2,34,0,1,,,,,
0.76,,,,,,,,,j,red,583862506be00b0001cf8506,2021-09-27_13h41.36.177,forced_choiceRT_color,2021.2.3,Win32,59.84082341,,,,,,,,10,Ontime,short,j,1,1.9342,8,3,35,2,1,,,,,
1.25,,,,,,,,,k,purple,583862506be00b0001cf8506,2021-09-27_13h41.36.177,forced_choiceRT_color,2021.2.3,Win32,59.84082341,,,,,,,,10,Ontime,short,k,1,1.9857,9,0,36,3,1,,,,,
0.4,,,,,,,,,k,purple,583862506be00b0001cf8506,2021-09-27_13h41.36.177,forced_choiceRT_color,2021.2.3,Win32,59.84082341,,,,,,,,10,Ontime,short,k,1,1.959,9,1,37,3,1,,,,,
0.79,,,,,,,,,k,purple,583862506be00b0001cf8506,2021-09-27_13h41.36.177,forced_choiceRT_color,2021.2.3,Win32,59.84082341,,,,,,,,10,Ontime,short,k,1,1.9186,9,2,38,3,1,,,,,
1.63,,,,,,,,,f,blue,583862506be00b0001cf8506,2021-09-27_13h41.36.177,forced_choiceRT_color,2021.2.3,Win32,59.84082341,,,,,,,,10,Ontime,short,j,0,2.0232,9,3,39,1,1,,,,,
,,,,,,,,,,,583862506be00b0001cf8506,2021-09-27_13h41.36.177,forced_choiceRT_color,2021.2.3,Win32,59.84082341,,,,,,,,,,,,,,,,,,,9,0,9,0,1
