IP_Addresss,target_onset,trial_resp_sp.keys,trial_resp_sp.corr,trial_resp_sp.rt,trials_train_loop.thisRepN,trials_train_loop.thisTrialN,trials_train_loop.thisN,trials_train_loop.thisIndex,trials_train_loop.ran,correct_key,color,participant,date,expName,psychopyVersion,OS,frameRate,trial_resp_timing.keys,trial_resp_timing.rt,trials_train_timing.thisRepN,trials_train_timing.thisTrialN,trials_train_timing.thisN,trials_train_timing.thisIndex,trials_train_timing.ran,block_id,ontime,feedback_cond,forcedRT_resp.keys,forcedRT_resp.corr,forcedRT_resp.rt,trials.thisRepN,trials.thisTrialN,trials.thisN,trials.thisIndex,trials.ran,blocks.thisRepN,blocks.thisTrialN,blocks.thisN,blocks.thisIndex,blocks.ran
45.72.131.67,0,d,1,1.0678,0,0,0,0,1,d,orange,58fdcd2be219d00001ee5aa0,2021-09-27_16h02.26.170,forced_choiceRT_color,2021.2.3,Win32,60.16485169,,,,,,,,,,,,,,,,,,,,,,,
,0,k,1,1.419,0,1,1,3,1,k,purple,58fdcd2be219d00001ee5aa0,2021-09-27_16h02.26.170,forced_choiceRT_color,2021.2.3,Win32,60.16485169,,,,,,,,,,,,,,,,,,,,,,,
,0,d,1,1.1386,0,2,2,0,1,d,orange,58fdcd2be219d00001ee5aa0,2021-09-27_16h02.26.170,forced_choiceRT_color,2021.2.3,Win32,60.16485169,,,,,,,,,,,,,,,,,,,,,,,
,0,f,1,0.9411,0,3,3,1,1,f,blue,58fdcd2be219d00001ee5aa0,2021-09-27_16h02.26.170,forced_choiceRT_color,2021.2.3,Win32,60.16485169,,,,,,,,,,,,,,,,,,,,,,,
,0,j,1,0.9736,1,0,4,2,1,j,red,58fdcd2be219d00001ee5aa0,2021-09-27_16h02.26.170,forced_choiceRT_color,2021.2.3,Win32,60.16485169,,,,,,,,,,,,,,,,,,,,,,,
,0,j,1,1.5679,1,1,5,2,1,j,red,58fdcd2be219d00001ee5aa0,2021-09-27_16h02.26.170,forced_choiceRT_color,2021.2.3,Win32,60.16485169,,,,,,,,,,,,,,,,,,,,,,,
,0,f,1,0.9445,1,2,6,1,1,f,blue,58fdcd2be219d00001ee5aa0,2021-09-27_16h02.26.170,forced_choiceRT_color,2021.2.3,Win32,60.16485169,,,,,,,,,,,,,,,,,,,,,,,
,0,f,1,0.7783,1,3,7,1,1,f,blue,58fdcd2be219d00001ee5aa0,2021-09-27_16h02.26.170,forced_choiceRT_color,2021.2.3,Win32,60.16485169,,,,,,,,,,,,,,,,,,,,,,,
,0,d,1,0.899,2,0,8,0,1,d,orange,58fdcd2be219d00001ee5aa0,2021-09-27_16h02.26.170,forced_choiceRT_color,2021.2.3,Win32,60.16485169,,,,,,,,,,,,,,,,,,,,,,,
,0,k,1,1.1035,2,1,9,3,1,k,purple,58fdcd2be219d00001ee5aa0,2021-09-27_16h02.26.170,forced_choiceRT_color,2021.2.3,Win32,60.16485169,,,,,,,,,,,,,,,,,,,,,,,
,0,d,1,0.9866,2,2,10,0,1,d,orange,58fdcd2be219d00001ee5aa0,2021-09-27_16h02.26.170,forced_choiceRT_color,2021.2.3,Win32,60.16485169,,,,,,,,,,,,,,,,,,,,,,,
,0,d,1,0.8161,2,3,11,0,1,d,orange,58fdcd2be219d00001ee5aa0,2021-09-27_16h02.26.170,forced_choiceRT_color,2021.2.3,Win32,60.16485169,,,,,,,,,,,,,,,,,,,,,,,
,0,d,1,0.7491,3,0,12,0,1,d,orange,58fdcd2be219d00001ee5aa0,2021-09-27_16h02.26.170,forced_choiceRT_color,2021.2.3,Win32,60.16485169,,,,,,,,,,,,,,,,,,,,,,,
,0,k,1,1.1505,3,1,13,3,1,k,purple,58fdcd2be219d00001ee5aa0,2021-09-27_16h02.26.170,forced_choiceRT_color,2021.2.3,Win32,60.16485169,,,,,,,,,,,,,,,,,,,,,,,
,0,f,1,1.1033,3,2,14,1,1,f,blue,58fdcd2be219d00001ee5aa0,2021-09-27_16h02.26.170,forced_choiceRT_color,2021.2.3,Win32,60.16485169,,,,,,,,,,,,,,,,,,,,,,,
,0,d,1,0.7326,3,3,15,0,1,d,orange,58fdcd2be219d00001ee5aa0,2021-09-27_16h02.26.170,forced_choiceRT_color,2021.2.3,Win32,60.16485169,,,,,,,,,,,,,,,,,,,,,,,
,0,j,1,0.9388,4,0,16,2,1,j,red,58fdcd2be219d00001ee5aa0,2021-09-27_16h02.26.170,forced_choiceRT_color,2021.2.3,Win32,60.16485169,,,,,,,,,,,,,,,,,,,,,,,
,0,k,1,0.7654,4,1,17,3,1,k,purple,58fdcd2be219d00001ee5aa0,2021-09-27_16h02.26.170,forced_choiceRT_color,2021.2.3,Win32,60.16485169,,,,,,,,,,,,,,,,,,,,,,,
,0,j,1,0.939,4,2,18,2,1,j,red,58fdcd2be219d00001ee5aa0,2021-09-27_16h02.26.170,forced_choiceRT_color,2021.2.3,Win32,60.16485169,,,,,,,,,,,,,,,,,,,,,,,
,0,f,1,0.8356,4,3,19,1,1,f,blue,58fdcd2be219d00001ee5aa0,2021-09-27_16h02.26.170,forced_choiceRT_color,2021.2.3,Win32,60.16485169,,,,,,,,,,,,,,,,,,,,,,,
,0,f,1,0.6719,5,0,20,1,1,f,blue,58fdcd2be219d00001ee5aa0,2021-09-27_16h02.26.170,forced_choiceRT_color,2021.2.3,Win32,60.16485169,,,,,,,,,,,,,,,,,,,,,,,
,0,d,1,0.8021,5,1,21,0,1,d,orange,58fdcd2be219d00001ee5aa0,2021-09-27_16h02.26.170,forced_choiceRT_color,2021.2.3,Win32,60.16485169,,,,,,,,,,,,,,,,,,,,,,,
,0,k,1,0.9046,5,2,22,3,1,k,purple,58fdcd2be219d00001ee5aa0,2021-09-27_16h02.26.170,forced_choiceRT_color,2021.2.3,Win32,60.16485169,,,,,,,,,,,,,,,,,,,,,,,
,0,f,1,1.0144,5,3,23,1,1,f,blue,58fdcd2be219d00001ee5aa0,2021-09-27_16h02.26.170,forced_choiceRT_color,2021.2.3,Win32,60.16485169,,,,,,,,,,,,,,,,,,,,,,,
,0,j,1,0.8654,6,0,24,2,1,j,red,58fdcd2be219d00001ee5aa0,2021-09-27_16h02.26.170,forced_choiceRT_color,2021.2.3,Win32,60.16485169,,,,,,,,,,,,,,,,,,,,,,,
,0,k,1,0.8039,6,1,25,3,1,k,purple,58fdcd2be219d00001ee5aa0,2021-09-27_16h02.26.170,forced_choiceRT_color,2021.2.3,Win32,60.16485169,,,,,,,,,,,,,,,,,,,,,,,
,0,f,1,0.8584,6,2,26,1,1,f,blue,58fdcd2be219d00001ee5aa0,2021-09-27_16h02.26.170,forced_choiceRT_color,2021.2.3,Win32,60.16485169,,,,,,,,,,,,,,,,,,,,,,,
,0,d,1,0.8859,6,3,27,0,1,d,orange,58fdcd2be219d00001ee5aa0,2021-09-27_16h02.26.170,forced_choiceRT_color,2021.2.3,Win32,60.16485169,,,,,,,,,,,,,,,,,,,,,,,
,0,k,1,1.0002,7,0,28,3,1,k,purple,58fdcd2be219d00001ee5aa0,2021-09-27_16h02.26.170,forced_choiceRT_color,2021.2.3,Win32,60.16485169,,,,,,,,,,,,,,,,,,,,,,,
,0,f,1,0.7649,7,1,29,1,1,f,blue,58fdcd2be219d00001ee5aa0,2021-09-27_16h02.26.170,forced_choiceRT_color,2021.2.3,Win32,60.16485169,,,,,,,,,,,,,,,,,,,,,,,
,0,j,1,0.848,7,2,30,2,1,j,red,58fdcd2be219d00001ee5aa0,2021-09-27_16h02.26.170,forced_choiceRT_color,2021.2.3,Win32,60.16485169,,,,,,,,,,,,,,,,,,,,,,,
,0,k,1,0.7655,7,3,31,3,1,k,purple,58fdcd2be219d00001ee5aa0,2021-09-27_16h02.26.170,forced_choiceRT_color,2021.2.3,Win32,60.16485169,,,,,,,,,,,,,,,,,,,,,,,
,0,f,1,0.9319,8,0,32,1,1,f,blue,58fdcd2be219d00001ee5aa0,2021-09-27_16h02.26.170,forced_choiceRT_color,2021.2.3,Win32,60.16485169,,,,,,,,,,,,,,,,,,,,,,,
,0,k,1,1.2973,8,1,33,3,1,k,purple,58fdcd2be219d00001ee5aa0,2021-09-27_16h02.26.170,forced_choiceRT_color,2021.2.3,Win32,60.16485169,,,,,,,,,,,,,,,,,,,,,,,
,0,k,1,0.7494,8,2,34,3,1,k,purple,58fdcd2be219d00001ee5aa0,2021-09-27_16h02.26.170,forced_choiceRT_color,2021.2.3,Win32,60.16485169,,,,,,,,,,,,,,,,,,,,,,,
,0,k,1,0.5993,8,3,35,3,1,k,purple,58fdcd2be219d00001ee5aa0,2021-09-27_16h02.26.170,forced_choiceRT_color,2021.2.3,Win32,60.16485169,,,,,,,,,,,,,,,,,,,,,,,
,0,j,1,0.8496,9,0,36,2,1,j,red,58fdcd2be219d00001ee5aa0,2021-09-27_16h02.26.170,forced_choiceRT_color,2021.2.3,Win32,60.16485169,,,,,,,,,,,,,,,,,,,,,,,
,0,d,1,0.9985,9,1,37,0,1,d,orange,58fdcd2be219d00001ee5aa0,2021-09-27_16h02.26.170,forced_choiceRT_color,2021.2.3,Win32,60.16485169,,,,,,,,,,,,,,,,,,,,,,,
,0,d,1,0.732,9,2,38,0,1,d,orange,58fdcd2be219d00001ee5aa0,2021-09-27_16h02.26.170,forced_choiceRT_color,2021.2.3,Win32,60.16485169,,,,,,,,,,,,,,,,,,,,,,,
,0,j,1,0.9655,9,3,39,2,1,j,red,58fdcd2be219d00001ee5aa0,2021-09-27_16h02.26.170,forced_choiceRT_color,2021.2.3,Win32,60.16485169,,,,,,,,,,,,,,,,,,,,,,,
,0,j,1,0.8493,10,0,40,2,1,j,red,58fdcd2be219d00001ee5aa0,2021-09-27_16h02.26.170,forced_choiceRT_color,2021.2.3,Win32,60.16485169,,,,,,,,,,,,,,,,,,,,,,,
,0,k,1,0.6655,10,1,41,3,1,k,purple,58fdcd2be219d00001ee5aa0,2021-09-27_16h02.26.170,forced_choiceRT_color,2021.2.3,Win32,60.16485169,,,,,,,,,,,,,,,,,,,,,,,
,0,d,1,1.2476,10,2,42,0,1,d,orange,58fdcd2be219d00001ee5aa0,2021-09-27_16h02.26.170,forced_choiceRT_color,2021.2.3,Win32,60.16485169,,,,,,,,,,,,,,,,,,,,,,,
,0,f,1,0.9156,10,3,43,1,1,f,blue,58fdcd2be219d00001ee5aa0,2021-09-27_16h02.26.170,forced_choiceRT_color,2021.2.3,Win32,60.16485169,,,,,,,,,,,,,,,,,,,,,,,
,0,k,1,1.3146,11,0,44,3,1,k,purple,58fdcd2be219d00001ee5aa0,2021-09-27_16h02.26.170,forced_choiceRT_color,2021.2.3,Win32,60.16485169,,,,,,,,,,,,,,,,,,,,,,,
,0,j,1,0.7483,11,1,45,2,1,j,red,58fdcd2be219d00001ee5aa0,2021-09-27_16h02.26.170,forced_choiceRT_color,2021.2.3,Win32,60.16485169,,,,,,,,,,,,,,,,,,,,,,,
,0,f,1,0.9819,11,2,46,1,1,f,blue,58fdcd2be219d00001ee5aa0,2021-09-27_16h02.26.170,forced_choiceRT_color,2021.2.3,Win32,60.16485169,,,,,,,,,,,,,,,,,,,,,,,
,0,j,1,0.6825,11,3,47,2,1,j,red,58fdcd2be219d00001ee5aa0,2021-09-27_16h02.26.170,forced_choiceRT_color,2021.2.3,Win32,60.16485169,,,,,,,,,,,,,,,,,,,,,,,
,0,j,1,0.6828,12,0,48,2,1,j,red,58fdcd2be219d00001ee5aa0,2021-09-27_16h02.26.170,forced_choiceRT_color,2021.2.3,Win32,60.16485169,,,,,,,,,,,,,,,,,,,,,,,
,0,f,1,0.9652,12,1,49,1,1,f,blue,58fdcd2be219d00001ee5aa0,2021-09-27_16h02.26.170,forced_choiceRT_color,2021.2.3,Win32,60.16485169,,,,,,,,,,,,,,,,,,,,,,,
,0,f,1,0.6496,12,2,50,1,1,f,blue,58fdcd2be219d00001ee5aa0,2021-09-27_16h02.26.170,forced_choiceRT_color,2021.2.3,Win32,60.16485169,,,,,,,,,,,,,,,,,,,,,,,
,0,k,1,0.8324,12,3,51,3,1,k,purple,58fdcd2be219d00001ee5aa0,2021-09-27_16h02.26.170,forced_choiceRT_color,2021.2.3,Win32,60.16485169,,,,,,,,,,,,,,,,,,,,,,,
,0,d,1,0.9986,13,0,52,0,1,d,orange,58fdcd2be219d00001ee5aa0,2021-09-27_16h02.26.170,forced_choiceRT_color,2021.2.3,Win32,60.16485169,,,,,,,,,,,,,,,,,,,,,,,
,0,j,1,1.0985,13,1,53,2,1,j,red,58fdcd2be219d00001ee5aa0,2021-09-27_16h02.26.170,forced_choiceRT_color,2021.2.3,Win32,60.16485169,,,,,,,,,,,,,,,,,,,,,,,
,0,f,1,0.8002,13,2,54,1,1,f,blue,58fdcd2be219d00001ee5aa0,2021-09-27_16h02.26.170,forced_choiceRT_color,2021.2.3,Win32,60.16485169,,,,,,,,,,,,,,,,,,,,,,,
,0,j,1,0.7989,13,3,55,2,1,j,red,58fdcd2be219d00001ee5aa0,2021-09-27_16h02.26.170,forced_choiceRT_color,2021.2.3,Win32,60.16485169,,,,,,,,,,,,,,,,,,,,,,,
,0,k,1,0.699,14,0,56,3,1,k,purple,58fdcd2be219d00001ee5aa0,2021-09-27_16h02.26.170,forced_choiceRT_color,2021.2.3,Win32,60.16485169,,,,,,,,,,,,,,,,,,,,,,,
,0,d,1,0.8322,14,1,57,0,1,d,orange,58fdcd2be219d00001ee5aa0,2021-09-27_16h02.26.170,forced_choiceRT_color,2021.2.3,Win32,60.16485169,,,,,,,,,,,,,,,,,,,,,,,
,0,j,1,1.0484,14,2,58,2,1,j,red,58fdcd2be219d00001ee5aa0,2021-09-27_16h02.26.170,forced_choiceRT_color,2021.2.3,Win32,60.16485169,,,,,,,,,,,,,,,,,,,,,,,
,0,d,1,1.0647,14,3,59,0,1,d,orange,58fdcd2be219d00001ee5aa0,2021-09-27_16h02.26.170,forced_choiceRT_color,2021.2.3,Win32,60.16485169,,,,,,,,,,,,,,,,,,,,,,,
,,,,,,,,,,,,58fdcd2be219d00001ee5aa0,2021-09-27_16h02.26.170,forced_choiceRT_color,2021.2.3,Win32,60.16485169,k,2.3183,0,0,0,0,1,,,,,,,,,,,,,,,,
,,,,,,,,,,,,58fdcd2be219d00001ee5aa0,2021-09-27_16h02.26.170,forced_choiceRT_color,2021.2.3,Win32,60.16485169,k,1.7896,1,0,1,0,1,,,,,,,,,,,,,,,,
,,,,,,,,,,,,58fdcd2be219d00001ee5aa0,2021-09-27_16h02.26.170,forced_choiceRT_color,2021.2.3,Win32,60.16485169,j,2.1407,2,0,2,0,1,,,,,,,,,,,,,,,,
,,,,,,,,,,,,58fdcd2be219d00001ee5aa0,2021-09-27_16h02.26.170,forced_choiceRT_color,2021.2.3,Win32,60.16485169,k,2.0648,3,0,3,0,1,,,,,,,,,,,,,,,,
,,,,,,,,,,,,58fdcd2be219d00001ee5aa0,2021-09-27_16h02.26.170,forced_choiceRT_color,2021.2.3,Win32,60.16485169,f,2.1176,4,0,4,0,1,,,,,,,,,,,,,,,,
,,,,,,,,,,,,58fdcd2be219d00001ee5aa0,2021-09-27_16h02.26.170,forced_choiceRT_color,2021.2.3,Win32,60.16485169,d,1.9799,5,0,5,0,1,,,,,,,,,,,,,,,,
,,,,,,,,,,,,58fdcd2be219d00001ee5aa0,2021-09-27_16h02.26.170,forced_choiceRT_color,2021.2.3,Win32,60.16485169,f,2.1104,6,0,6,0,1,,,,,,,,,,,,,,,,
,,,,,,,,,,,,58fdcd2be219d00001ee5aa0,2021-09-27_16h02.26.170,forced_choiceRT_color,2021.2.3,Win32,60.16485169,d,2.139,7,0,7,0,1,,,,,,,,,,,,,,,,
,,,,,,,,,,,,58fdcd2be219d00001ee5aa0,2021-09-27_16h02.26.170,forced_choiceRT_color,2021.2.3,Win32,60.16485169,j,2.255,8,0,8,0,1,,,,,,,,,,,,,,,,
,,,,,,,,,,,,58fdcd2be219d00001ee5aa0,2021-09-27_16h02.26.170,forced_choiceRT_color,2021.2.3,Win32,60.16485169,k,1.7654,9,0,9,0,1,,,,,,,,,,,,,,,,
,,,,,,,,,,,,58fdcd2be219d00001ee5aa0,2021-09-27_16h02.26.170,forced_choiceRT_color,2021.2.3,Win32,60.16485169,k,1.7659,10,0,10,0,1,,,,,,,,,,,,,,,,
,,,,,,,,,,,,58fdcd2be219d00001ee5aa0,2021-09-27_16h02.26.170,forced_choiceRT_color,2021.2.3,Win32,60.16485169,j,2.1389,11,0,11,0,1,,,,,,,,,,,,,,,,
,,,,,,,,,,,,58fdcd2be219d00001ee5aa0,2021-09-27_16h02.26.170,forced_choiceRT_color,2021.2.3,Win32,60.16485169,d,2.1245,12,0,12,0,1,,,,,,,,,,,,,,,,
,,,,,,,,,,,,58fdcd2be219d00001ee5aa0,2021-09-27_16h02.26.170,forced_choiceRT_color,2021.2.3,Win32,60.16485169,f,2.1142,13,0,13,0,1,,,,,,,,,,,,,,,,
,,,,,,,,,,,,58fdcd2be219d00001ee5aa0,2021-09-27_16h02.26.170,forced_choiceRT_color,2021.2.3,Win32,60.16485169,k,2.3072,14,0,14,0,1,,,,,,,,,,,,,,,,
,,,,,,,,,,,,58fdcd2be219d00001ee5aa0,2021-09-27_16h02.26.170,forced_choiceRT_color,2021.2.3,Win32,60.16485169,f,1.9397,15,0,15,0,1,,,,,,,,,,,,,,,,
,,,,,,,,,,,,58fdcd2be219d00001ee5aa0,2021-09-27_16h02.26.170,forced_choiceRT_color,2021.2.3,Win32,60.16485169,f,1.7974,16,0,16,0,1,,,,,,,,,,,,,,,,
,,,,,,,,,,,,58fdcd2be219d00001ee5aa0,2021-09-27_16h02.26.170,forced_choiceRT_color,2021.2.3,Win32,60.16485169,f,2.0408,17,0,17,0,1,,,,,,,,,,,,,,,,
,,,,,,,,,,,,58fdcd2be219d00001ee5aa0,2021-09-27_16h02.26.170,forced_choiceRT_color,2021.2.3,Win32,60.16485169,f,2.128,18,0,18,0,1,,,,,,,,,,,,,,,,
,,,,,,,,,,,,58fdcd2be219d00001ee5aa0,2021-09-27_16h02.26.170,forced_choiceRT_color,2021.2.3,Win32,60.16485169,d,1.9195,19,0,19,0,1,,,,,,,,,,,,,,,,
,0.16,,,,,,,,,d,orange,58fdcd2be219d00001ee5aa0,2021-09-27_16h02.26.170,forced_choiceRT_color,2021.2.3,Win32,60.16485169,,,,,,,,1,Slow,short,d,1,5.02,0,0,0,0,1,,,,,
,1.91,,,,,,,,,f,blue,58fdcd2be219d00001ee5aa0,2021-09-27_16h02.26.170,forced_choiceRT_color,2021.2.3,Win32,60.16485169,,,,,,,,1,Slow,short,j,0,2.3762,0,1,1,1,1,,,,,
,0.31,,,,,,,,,k,purple,58fdcd2be219d00001ee5aa0,2021-09-27_16h02.26.170,forced_choiceRT_color,2021.2.3,Win32,60.16485169,,,,,,,,1,Slow,short,k,1,3.4483,0,2,2,3,1,,,,,
,0.88,,,,,,,,,d,orange,58fdcd2be219d00001ee5aa0,2021-09-27_16h02.26.170,forced_choiceRT_color,2021.2.3,Win32,60.16485169,,,,,,,,1,Fast,short,d,1,1.747,0,3,3,0,1,,,,,
,0.23,,,,,,,,,f,blue,58fdcd2be219d00001ee5aa0,2021-09-27_16h02.26.170,forced_choiceRT_color,2021.2.3,Win32,60.16485169,,,,,,,,1,Slow,short,f,1,2.2121,1,0,4,1,1,,,,,
,1.44,,,,,,,,,j,red,58fdcd2be219d00001ee5aa0,2021-09-27_16h02.26.170,forced_choiceRT_color,2021.2.3,Win32,60.16485169,,,,,,,,1,Ontime,short,j,1,2.0966,1,1,5,2,1,,,,,
,1.59,,,,,,,,,j,red,58fdcd2be219d00001ee5aa0,2021-09-27_16h02.26.170,forced_choiceRT_color,2021.2.3,Win32,60.16485169,,,,,,,,1,Ontime,short,j,1,2.0958,1,2,6,2,1,,,,,
,1.46,,,,,,,,,d,orange,58fdcd2be219d00001ee5aa0,2021-09-27_16h02.26.170,forced_choiceRT_color,2021.2.3,Win32,60.16485169,,,,,,,,1,Slow,short,f,0,2.129,1,3,7,0,1,,,,,
,1.85,,,,,,,,,f,blue,58fdcd2be219d00001ee5aa0,2021-09-27_16h02.26.170,forced_choiceRT_color,2021.2.3,Win32,60.16485169,,,,,,,,1,Slow,short,j,0,2.3571,2,0,8,1,1,,,,,
,1.93,,,,,,,,,d,orange,58fdcd2be219d00001ee5aa0,2021-09-27_16h02.26.170,forced_choiceRT_color,2021.2.3,Win32,60.16485169,,,,,,,,1,Slow,short,f,0,2.3208,2,1,9,0,1,,,,,
,1.73,,,,,,,,,f,blue,58fdcd2be219d00001ee5aa0,2021-09-27_16h02.26.170,forced_choiceRT_color,2021.2.3,Win32,60.16485169,,,,,,,,1,Slow,short,d,0,2.2217,2,2,10,1,1,,,,,
,1.14,,,,,,,,,d,orange,58fdcd2be219d00001ee5aa0,2021-09-27_16h02.26.170,forced_choiceRT_color,2021.2.3,Win32,60.16485169,,,,,,,,1,Fast,short,d,1,1.6903,2,3,11,0,1,,,,,
,1.17,,,,,,,,,d,orange,58fdcd2be219d00001ee5aa0,2021-09-27_16h02.26.170,forced_choiceRT_color,2021.2.3,Win32,60.16485169,,,,,,,,1,Ontime,short,d,1,2.0134,3,0,12,0,1,,,,,
,0.82,,,,,,,,,d,orange,58fdcd2be219d00001ee5aa0,2021-09-27_16h02.26.170,forced_choiceRT_color,2021.2.3,Win32,60.16485169,,,,,,,,1,Ontime,short,d,1,2.0725,3,1,13,0,1,,,,,
,1.41,,,,,,,,,j,red,58fdcd2be219d00001ee5aa0,2021-09-27_16h02.26.170,forced_choiceRT_color,2021.2.3,Win32,60.16485169,,,,,,,,1,Ontime,short,j,1,1.9055,3,2,14,2,1,,,,,
,1.99,,,,,,,,,k,purple,58fdcd2be219d00001ee5aa0,2021-09-27_16h02.26.170,forced_choiceRT_color,2021.2.3,Win32,60.16485169,,,,,,,,1,Slow,short,j,0,2.3849,3,3,15,3,1,,,,,
,1.15,,,,,,,,,j,red,58fdcd2be219d00001ee5aa0,2021-09-27_16h02.26.170,forced_choiceRT_color,2021.2.3,Win32,60.16485169,,,,,,,,1,Ontime,short,j,1,1.9516,4,0,16,2,1,,,,,
,0.61,,,,,,,,,k,purple,58fdcd2be219d00001ee5aa0,2021-09-27_16h02.26.170,forced_choiceRT_color,2021.2.3,Win32,60.16485169,,,,,,,,1,Slow,short,k,1,2.1117,4,1,17,3,1,,,,,
,0.19,,,,,,,,,k,purple,58fdcd2be219d00001ee5aa0,2021-09-27_16h02.26.170,forced_choiceRT_color,2021.2.3,Win32,60.16485169,,,,,,,,1,Fast,short,k,1,1.8307,4,2,18,3,1,,,,,
,0.98,,,,,,,,,d,orange,58fdcd2be219d00001ee5aa0,2021-09-27_16h02.26.170,forced_choiceRT_color,2021.2.3,Win32,60.16485169,,,,,,,,1,Ontime,short,d,1,2.0132,4,3,19,0,1,,,,,
,1.3,,,,,,,,,f,blue,58fdcd2be219d00001ee5aa0,2021-09-27_16h02.26.170,forced_choiceRT_color,2021.2.3,Win32,60.16485169,,,,,,,,1,Ontime,short,f,1,1.9461,5,0,20,1,1,,,,,
,0.13,,,,,,,,,f,blue,58fdcd2be219d00001ee5aa0,2021-09-27_16h02.26.170,forced_choiceRT_color,2021.2.3,Win32,60.16485169,,,,,,,,1,Ontime,short,f,1,2.0966,5,1,21,1,1,,,,,
,0.41,,,,,,,,,k,purple,58fdcd2be219d00001ee5aa0,2021-09-27_16h02.26.170,forced_choiceRT_color,2021.2.3,Win32,60.16485169,,,,,,,,1,Ontime,short,k,1,2.0955,5,2,22,3,1,,,,,
,0.98,,,,,,,,,f,blue,58fdcd2be219d00001ee5aa0,2021-09-27_16h02.26.170,forced_choiceRT_color,2021.2.3,Win32,60.16485169,,,,,,,,1,Slow,short,j,0,2.3119,5,3,23,1,1,,,,,
,0.45,,,,,,,,,j,red,58fdcd2be219d00001ee5aa0,2021-09-27_16h02.26.170,forced_choiceRT_color,2021.2.3,Win32,60.16485169,,,,,,,,1,Slow,short,j,1,2.3299,6,0,24,2,1,,,,,
,1.83,,,,,,,,,j,red,58fdcd2be219d00001ee5aa0,2021-09-27_16h02.26.170,forced_choiceRT_color,2021.2.3,Win32,60.16485169,,,,,,,,1,Slow,short,j,1,2.2704,6,1,25,2,1,,,,,
,0.74,,,,,,,,,k,purple,58fdcd2be219d00001ee5aa0,2021-09-27_16h02.26.170,forced_choiceRT_color,2021.2.3,Win32,60.16485169,,,,,,,,1,Fast,short,k,1,1.7636,6,2,26,3,1,,,,,
,0.25,,,,,,,,,j,red,58fdcd2be219d00001ee5aa0,2021-09-27_16h02.26.170,forced_choiceRT_color,2021.2.3,Win32,60.16485169,,,,,,,,1,Ontime,short,j,1,1.9564,6,3,27,2,1,,,,,
,1.08,,,,,,,,,k,purple,58fdcd2be219d00001ee5aa0,2021-09-27_16h02.26.170,forced_choiceRT_color,2021.2.3,Win32,60.16485169,,,,,,,,1,Fast,short,k,1,1.8133,7,0,28,3,1,,,,,
,1.4,,,,,,,,,k,purple,58fdcd2be219d00001ee5aa0,2021-09-27_16h02.26.170,forced_choiceRT_color,2021.2.3,Win32,60.16485169,,,,,,,,1,Ontime,short,k,1,1.9203,7,1,29,3,1,,,,,
,0.97,,,,,,,,,j,red,58fdcd2be219d00001ee5aa0,2021-09-27_16h02.26.170,forced_choiceRT_color,2021.2.3,Win32,60.16485169,,,,,,,,1,Ontime,short,j,1,1.9376,7,2,30,2,1,,,,,
,1.47,,,,,,,,,k,purple,58fdcd2be219d00001ee5aa0,2021-09-27_16h02.26.170,forced_choiceRT_color,2021.2.3,Win32,60.16485169,,,,,,,,1,Ontime,short,j,0,2.0298,7,3,31,3,1,,,,,
,1.44,,,,,,,,,j,red,58fdcd2be219d00001ee5aa0,2021-09-27_16h02.26.170,forced_choiceRT_color,2021.2.3,Win32,60.16485169,,,,,,,,1,Ontime,short,k,0,1.9962,8,0,32,2,1,,,,,
,1,,,,,,,,,j,red,58fdcd2be219d00001ee5aa0,2021-09-27_16h02.26.170,forced_choiceRT_color,2021.2.3,Win32,60.16485169,,,,,,,,1,Slow,short,j,1,2.1429,8,1,33,2,1,,,,,
,1.35,,,,,,,,,k,purple,58fdcd2be219d00001ee5aa0,2021-09-27_16h02.26.170,forced_choiceRT_color,2021.2.3,Win32,60.16485169,,,,,,,,1,Fast,short,k,1,1.8793,8,2,34,3,1,,,,,
,0.66,,,,,,,,,d,orange,58fdcd2be219d00001ee5aa0,2021-09-27_16h02.26.170,forced_choiceRT_color,2021.2.3,Win32,60.16485169,,,,,,,,1,Fast,short,d,1,1.7965,8,3,35,0,1,,,,,
,1.53,,,,,,,,,d,orange,58fdcd2be219d00001ee5aa0,2021-09-27_16h02.26.170,forced_choiceRT_color,2021.2.3,Win32,60.16485169,,,,,,,,1,Ontime,short,d,1,1.9968,9,0,36,0,1,,,,,
,0.06,,,,,,,,,f,blue,58fdcd2be219d00001ee5aa0,2021-09-27_16h02.26.170,forced_choiceRT_color,2021.2.3,Win32,60.16485169,,,,,,,,1,Ontime,short,j,0,1.9794,9,1,37,1,1,,,,,
,0.02,,,,,,,,,f,blue,58fdcd2be219d00001ee5aa0,2021-09-27_16h02.26.170,forced_choiceRT_color,2021.2.3,Win32,60.16485169,,,,,,,,1,Ontime,short,j,0,1.9297,9,2,38,1,1,,,,,
,0.67,,,,,,,,,f,blue,58fdcd2be219d00001ee5aa0,2021-09-27_16h02.26.170,forced_choiceRT_color,2021.2.3,Win32,60.16485169,,,,,,,,1,Ontime,short,j,0,1.9468,9,3,39,1,1,,,,,
,,,,,,,,,,,,58fdcd2be219d00001ee5aa0,2021-09-27_16h02.26.170,forced_choiceRT_color,2021.2.3,Win32,60.16485169,,,,,,,,,,,,,,,,,,,0,0,0,0,1
,1.14,,,,,,,,,k,purple,58fdcd2be219d00001ee5aa0,2021-09-27_16h02.26.170,forced_choiceRT_color,2021.2.3,Win32,60.16485169,,,,,,,,2,Ontime,short,k,1,2.0072,0,0,0,3,1,,,,,
,1.15,,,,,,,,,k,purple,58fdcd2be219d00001ee5aa0,2021-09-27_16h02.26.170,forced_choiceRT_color,2021.2.3,Win32,60.16485169,,,,,,,,2,Fast,short,k,1,1.6477,0,1,1,3,1,,,,,
,1.03,,,,,,,,,j,red,58fdcd2be219d00001ee5aa0,2021-09-27_16h02.26.170,forced_choiceRT_color,2021.2.3,Win32,60.16485169,,,,,,,,2,Fast,short,j,1,1.6302,0,2,2,2,1,,,,,
,0.36,,,,,,,,,d,orange,58fdcd2be219d00001ee5aa0,2021-09-27_16h02.26.170,forced_choiceRT_color,2021.2.3,Win32,60.16485169,,,,,,,,2,Ontime,short,d,1,1.9472,0,3,3,0,1,,,,,
,0,,,,,,,,,f,blue,58fdcd2be219d00001ee5aa0,2021-09-27_16h02.26.170,forced_choiceRT_color,2021.2.3,Win32,60.16485169,,,,,,,,2,Ontime,short,j,0,1.9535,1,0,4,1,1,,,,,
,1.88,,,,,,,,,d,orange,58fdcd2be219d00001ee5aa0,2021-09-27_16h02.26.170,forced_choiceRT_color,2021.2.3,Win32,60.16485169,,,,,,,,2,Slow,short,j,0,2.3627,1,1,5,0,1,,,,,
,1.13,,,,,,,,,d,orange,58fdcd2be219d00001ee5aa0,2021-09-27_16h02.26.170,forced_choiceRT_color,2021.2.3,Win32,60.16485169,,,,,,,,2,Slow,short,d,1,2.1208,1,2,6,0,1,,,,,
,0.42,,,,,,,,,f,blue,58fdcd2be219d00001ee5aa0,2021-09-27_16h02.26.170,forced_choiceRT_color,2021.2.3,Win32,60.16485169,,,,,,,,2,Slow,short,k,0,2.1641,1,3,7,1,1,,,,,
,0.9,,,,,,,,,d,orange,58fdcd2be219d00001ee5aa0,2021-09-27_16h02.26.170,forced_choiceRT_color,2021.2.3,Win32,60.16485169,,,,,,,,2,Slow,short,d,1,2.1372,2,0,8,0,1,,,,,
,1.21,,,,,,,,,k,purple,58fdcd2be219d00001ee5aa0,2021-09-27_16h02.26.170,forced_choiceRT_color,2021.2.3,Win32,60.16485169,,,,,,,,2,Slow,short,k,1,2.1365,2,1,9,3,1,,,,,
,0.04,,,,,,,,,k,purple,58fdcd2be219d00001ee5aa0,2021-09-27_16h02.26.170,forced_choiceRT_color,2021.2.3,Win32,60.16485169,,,,,,,,2,Fast,short,k,1,1.7512,2,2,10,3,1,,,,,
,0.06,,,,,,,,,f,blue,58fdcd2be219d00001ee5aa0,2021-09-27_16h02.26.170,forced_choiceRT_color,2021.2.3,Win32,60.16485169,,,,,,,,2,Ontime,short,j,0,2.0956,2,3,11,1,1,,,,,
,0.86,,,,,,,,,j,red,58fdcd2be219d00001ee5aa0,2021-09-27_16h02.26.170,forced_choiceRT_color,2021.2.3,Win32,60.16485169,,,,,,,,2,Ontime,short,j,1,2.0797,3,0,12,2,1,,,,,
,1.89,,,,,,,,,d,orange,58fdcd2be219d00001ee5aa0,2021-09-27_16h02.26.170,forced_choiceRT_color,2021.2.3,Win32,60.16485169,,,,,,,,2,Slow,short,k,0,2.2465,3,1,13,0,1,,,,,
,0.72,,,,,,,,,j,red,58fdcd2be219d00001ee5aa0,2021-09-27_16h02.26.170,forced_choiceRT_color,2021.2.3,Win32,60.16485169,,,,,,,,2,Slow,short,j,1,2.1013,3,2,14,2,1,,,,,
,0.78,,,,,,,,,f,blue,58fdcd2be219d00001ee5aa0,2021-09-27_16h02.26.170,forced_choiceRT_color,2021.2.3,Win32,60.16485169,,,,,,,,2,Slow,short,f,1,2.1294,3,3,15,1,1,,,,,
,0.62,,,,,,,,,f,blue,58fdcd2be219d00001ee5aa0,2021-09-27_16h02.26.170,forced_choiceRT_color,2021.2.3,Win32,60.16485169,,,,,,,,2,Slow,short,f,1,2.1236,4,0,16,1,1,,,,,
,1.42,,,,,,,,,f,blue,58fdcd2be219d00001ee5aa0,2021-09-27_16h02.26.170,forced_choiceRT_color,2021.2.3,Win32,60.16485169,,,,,,,,2,Ontime,short,f,1,1.9131,4,1,17,1,1,,,,,
,1.09,,,,,,,,,k,purple,58fdcd2be219d00001ee5aa0,2021-09-27_16h02.26.170,forced_choiceRT_color,2021.2.3,Win32,60.16485169,,,,,,,,2,Ontime,short,k,1,2.0709,4,2,18,3,1,,,,,
,1.23,,,,,,,,,d,orange,58fdcd2be219d00001ee5aa0,2021-09-27_16h02.26.170,forced_choiceRT_color,2021.2.3,Win32,60.16485169,,,,,,,,2,Ontime,short,d,1,2.0315,4,3,19,0,1,,,,,
,0.37,,,,,,,,,d,orange,58fdcd2be219d00001ee5aa0,2021-09-27_16h02.26.170,forced_choiceRT_color,2021.2.3,Win32,60.16485169,,,,,,,,2,Ontime,short,d,1,1.9864,5,0,20,0,1,,,,,
,0.17,,,,,,,,,j,red,58fdcd2be219d00001ee5aa0,2021-09-27_16h02.26.170,forced_choiceRT_color,2021.2.3,Win32,60.16485169,,,,,,,,2,Fast,short,j,1,1.8302,5,1,21,2,1,,,,,
,1.8,,,,,,,,,k,purple,58fdcd2be219d00001ee5aa0,2021-09-27_16h02.26.170,forced_choiceRT_color,2021.2.3,Win32,60.16485169,,,,,,,,2,Slow,short,k,1,2.2623,5,2,22,3,1,,,,,
,0.17,,,,,,,,,j,red,58fdcd2be219d00001ee5aa0,2021-09-27_16h02.26.170,forced_choiceRT_color,2021.2.3,Win32,60.16485169,,,,,,,,2,Fast,short,j,1,1.756,5,3,23,2,1,,,,,
,0.76,,,,,,,,,f,blue,58fdcd2be219d00001ee5aa0,2021-09-27_16h02.26.170,forced_choiceRT_color,2021.2.3,Win32,60.16485169,,,,,,,,2,Ontime,short,f,1,1.9163,6,0,24,1,1,,,,,
,1.16,,,,,,,,,d,orange,58fdcd2be219d00001ee5aa0,2021-09-27_16h02.26.170,forced_choiceRT_color,2021.2.3,Win32,60.16485169,,,,,,,,2,Fast,short,f,0,1.8031,6,1,25,0,1,,,,,
,0.29,,,,,,,,,d,orange,58fdcd2be219d00001ee5aa0,2021-09-27_16h02.26.170,forced_choiceRT_color,2021.2.3,Win32,60.16485169,,,,,,,,2,Fast,short,d,1,1.8671,6,2,26,0,1,,,,,
,1.88,,,,,,,,,f,blue,58fdcd2be219d00001ee5aa0,2021-09-27_16h02.26.170,forced_choiceRT_color,2021.2.3,Win32,60.16485169,,,,,,,,2,Slow,short,d,0,2.2623,6,3,27,1,1,,,,,
,1.18,,,,,,,,,j,red,58fdcd2be219d00001ee5aa0,2021-09-27_16h02.26.170,forced_choiceRT_color,2021.2.3,Win32,60.16485169,,,,,,,,2,Slow,short,j,1,2.103,7,0,28,2,1,,,,,
,0.65,,,,,,,,,k,purple,58fdcd2be219d00001ee5aa0,2021-09-27_16h02.26.170,forced_choiceRT_color,2021.2.3,Win32,60.16485169,,,,,,,,2,Ontime,short,k,1,1.9258,7,1,29,3,1,,,,,
,1.61,,,,,,,,,j,red,58fdcd2be219d00001ee5aa0,2021-09-27_16h02.26.170,forced_choiceRT_color,2021.2.3,Win32,60.16485169,,,,,,,,2,Slow,short,j,1,2.1245,7,2,30,2,1,,,,,
,0.32,,,,,,,,,k,purple,58fdcd2be219d00001ee5aa0,2021-09-27_16h02.26.170,forced_choiceRT_color,2021.2.3,Win32,60.16485169,,,,,,,,2,Fast,short,k,1,1.6308,7,3,31,3,1,,,,,
,1.39,,,,,,,,,k,purple,58fdcd2be219d00001ee5aa0,2021-09-27_16h02.26.170,forced_choiceRT_color,2021.2.3,Win32,60.16485169,,,,,,,,2,Ontime,short,j,0,1.9462,8,0,32,3,1,,,,,
,1.57,,,,,,,,,f,blue,58fdcd2be219d00001ee5aa0,2021-09-27_16h02.26.170,forced_choiceRT_color,2021.2.3,Win32,60.16485169,,,,,,,,2,Fast,short,k,0,0.0671,8,1,33,1,1,,,,,
,1.6,,,,,,,,,f,blue,58fdcd2be219d00001ee5aa0,2021-09-27_16h02.26.170,forced_choiceRT_color,2021.2.3,Win32,60.16485169,,,,,,,,2,Slow,short,d,0,2.2455,8,2,34,1,1,,,,,
,0.47,,,,,,,,,k,purple,58fdcd2be219d00001ee5aa0,2021-09-27_16h02.26.170,forced_choiceRT_color,2021.2.3,Win32,60.16485169,,,,,,,,2,Ontime,short,k,1,1.9962,8,3,35,3,1,,,,,
,1.04,,,,,,,,,j,red,58fdcd2be219d00001ee5aa0,2021-09-27_16h02.26.170,forced_choiceRT_color,2021.2.3,Win32,60.16485169,,,,,,,,2,Fast,short,j,1,1.8133,9,0,36,2,1,,,,,
,0.75,,,,,,,,,j,red,58fdcd2be219d00001ee5aa0,2021-09-27_16h02.26.170,forced_choiceRT_color,2021.2.3,Win32,60.16485169,,,,,,,,2,Ontime,short,j,1,2.0304,9,1,37,2,1,,,,,
,0.82,,,,,,,,,d,orange,58fdcd2be219d00001ee5aa0,2021-09-27_16h02.26.170,forced_choiceRT_color,2021.2.3,Win32,60.16485169,,,,,,,,2,Ontime,short,d,1,1.9361,9,2,38,0,1,,,,,
,1.73,,,,,,,,,j,red,58fdcd2be219d00001ee5aa0,2021-09-27_16h02.26.170,forced_choiceRT_color,2021.2.3,Win32,60.16485169,,,,,,,,2,Slow,short,j,1,2.2535,9,3,39,2,1,,,,,
,,,,,,,,,,,,58fdcd2be219d00001ee5aa0,2021-09-27_16h02.26.170,forced_choiceRT_color,2021.2.3,Win32,60.16485169,,,,,,,,,,,,,,,,,,,1,0,1,0,1
,0.33,,,,,,,,,j,red,58fdcd2be219d00001ee5aa0,2021-09-27_16h02.26.170,forced_choiceRT_color,2021.2.3,Win32,60.16485169,,,,,,,,3,Ontime,short,j,1,2.0535,0,0,0,2,1,,,,,
,0.78,,,,,,,,,d,orange,58fdcd2be219d00001ee5aa0,2021-09-27_16h02.26.170,forced_choiceRT_color,2021.2.3,Win32,60.16485169,,,,,,,,3,Fast,short,d,1,1.8027,0,1,1,0,1,,,,,
,0.69,,,,,,,,,f,blue,58fdcd2be219d00001ee5aa0,2021-09-27_16h02.26.170,forced_choiceRT_color,2021.2.3,Win32,60.16485169,,,,,,,,3,Fast,short,f,1,1.8187,0,2,2,1,1,,,,,
,1.46,,,,,,,,,f,blue,58fdcd2be219d00001ee5aa0,2021-09-27_16h02.26.170,forced_choiceRT_color,2021.2.3,Win32,60.16485169,,,,,,,,3,Ontime,short,f,1,2.0126,0,3,3,1,1,,,,,
,0.19,,,,,,,,,j,red,58fdcd2be219d00001ee5aa0,2021-09-27_16h02.26.170,forced_choiceRT_color,2021.2.3,Win32,60.16485169,,,,,,,,3,Ontime,short,j,1,2.0047,1,0,4,2,1,,,,,
,0.04,,,,,,,,,f,blue,58fdcd2be219d00001ee5aa0,2021-09-27_16h02.26.170,forced_choiceRT_color,2021.2.3,Win32,60.16485169,,,,,,,,3,Ontime,short,f,1,2.0297,1,1,5,1,1,,,,,
,0.29,,,,,,,,,f,blue,58fdcd2be219d00001ee5aa0,2021-09-27_16h02.26.170,forced_choiceRT_color,2021.2.3,Win32,60.16485169,,,,,,,,3,Ontime,short,f,1,2.0133,1,2,6,1,1,,,,,
,0.48,,,,,,,,,k,purple,58fdcd2be219d00001ee5aa0,2021-09-27_16h02.26.170,forced_choiceRT_color,2021.2.3,Win32,60.16485169,,,,,,,,3,Slow,short,k,1,2.1957,1,3,7,3,1,,,,,
,0.43,,,,,,,,,f,blue,58fdcd2be219d00001ee5aa0,2021-09-27_16h02.26.170,forced_choiceRT_color,2021.2.3,Win32,60.16485169,,,,,,,,3,Fast,short,f,1,1.8468,2,0,8,1,1,,,,,
,1.5,,,,,,,,,f,blue,58fdcd2be219d00001ee5aa0,2021-09-27_16h02.26.170,forced_choiceRT_color,2021.2.3,Win32,60.16485169,,,,,,,,3,Slow,short,f,1,2.2954,2,1,9,1,1,,,,,
,0.32,,,,,,,,,k,purple,58fdcd2be219d00001ee5aa0,2021-09-27_16h02.26.170,forced_choiceRT_color,2021.2.3,Win32,60.16485169,,,,,,,,3,Fast,short,k,1,1.6575,2,2,10,3,1,,,,,
,1.91,,,,,,,,,f,blue,58fdcd2be219d00001ee5aa0,2021-09-27_16h02.26.170,forced_choiceRT_color,2021.2.3,Win32,60.16485169,,,,,,,,3,Slow,short,d,0,2.3285,2,3,11,1,1,,,,,
,0.22,,,,,,,,,j,red,58fdcd2be219d00001ee5aa0,2021-09-27_16h02.26.170,forced_choiceRT_color,2021.2.3,Win32,60.16485169,,,,,,,,3,Ontime,short,j,1,2.0782,3,0,12,2,1,,,,,
,1.4,,,,,,,,,k,purple,58fdcd2be219d00001ee5aa0,2021-09-27_16h02.26.170,forced_choiceRT_color,2021.2.3,Win32,60.16485169,,,,,,,,3,Ontime,short,k,1,2.029,3,1,13,3,1,,,,,
,1.26,,,,,,,,,d,orange,58fdcd2be219d00001ee5aa0,2021-09-27_16h02.26.170,forced_choiceRT_color,2021.2.3,Win32,60.16485169,,,,,,,,3,Slow,short,d,1,2.1994,3,2,14,0,1,,,,,
,1.25,,,,,,,,,d,orange,58fdcd2be219d00001ee5aa0,2021-09-27_16h02.26.170,forced_choiceRT_color,2021.2.3,Win32,60.16485169,,,,,,,,3,Fast,short,d,1,1.7641,3,3,15,0,1,,,,,
,0.91,,,,,,,,,j,red,58fdcd2be219d00001ee5aa0,2021-09-27_16h02.26.170,forced_choiceRT_color,2021.2.3,Win32,60.16485169,,,,,,,,3,Ontime,short,j,1,1.9559,4,0,16,2,1,,,,,
,1.23,,,,,,,,,j,red,58fdcd2be219d00001ee5aa0,2021-09-27_16h02.26.170,forced_choiceRT_color,2021.2.3,Win32,60.16485169,,,,,,,,3,Ontime,short,j,1,2.0562,4,1,17,2,1,,,,,
,1.57,,,,,,,,,k,purple,58fdcd2be219d00001ee5aa0,2021-09-27_16h02.26.170,forced_choiceRT_color,2021.2.3,Win32,60.16485169,,,,,,,,3,Slow,short,k,1,2.2101,4,2,18,3,1,,,,,
,0.99,,,,,,,,,j,red,58fdcd2be219d00001ee5aa0,2021-09-27_16h02.26.170,forced_choiceRT_color,2021.2.3,Win32,60.16485169,,,,,,,,3,Ontime,short,j,1,1.9395,4,3,19,2,1,,,,,
,1.56,,,,,,,,,d,orange,58fdcd2be219d00001ee5aa0,2021-09-27_16h02.26.170,forced_choiceRT_color,2021.2.3,Win32,60.16485169,,,,,,,,3,Slow,short,k,0,2.1228,5,0,20,0,1,,,,,
,1.47,,,,,,,,,f,blue,58fdcd2be219d00001ee5aa0,2021-09-27_16h02.26.170,forced_choiceRT_color,2021.2.3,Win32,60.16485169,,,,,,,,3,Ontime,short,d,0,1.9968,5,1,21,1,1,,,,,
,1.17,,,,,,,,,j,red,58fdcd2be219d00001ee5aa0,2021-09-27_16h02.26.170,forced_choiceRT_color,2021.2.3,Win32,60.16485169,,,,,,,,3,Ontime,short,j,1,2.0639,5,2,22,2,1,,,,,
,1.21,,,,,,,,,f,blue,58fdcd2be219d00001ee5aa0,2021-09-27_16h02.26.170,forced_choiceRT_color,2021.2.3,Win32,60.16485169,,,,,,,,3,Slow,short,d,0,2.2495,5,3,23,1,1,,,,,
,0.09,,,,,,,,,j,red,58fdcd2be219d00001ee5aa0,2021-09-27_16h02.26.170,forced_choiceRT_color,2021.2.3,Win32,60.16485169,,,,,,,,3,Fast,short,j,1,1.7967,6,0,24,2,1,,,,,
,0.51,,,,,,,,,k,purple,58fdcd2be219d00001ee5aa0,2021-09-27_16h02.26.170,forced_choiceRT_color,2021.2.3,Win32,60.16485169,,,,,,,,3,Ontime,short,k,1,2.0341,6,1,25,3,1,,,,,
,0.16,,,,,,,,,d,orange,58fdcd2be219d00001ee5aa0,2021-09-27_16h02.26.170,forced_choiceRT_color,2021.2.3,Win32,60.16485169,,,,,,,,3,Ontime,short,d,1,1.999,6,2,26,0,1,,,,,
,1.27,,,,,,,,,j,red,58fdcd2be219d00001ee5aa0,2021-09-27_16h02.26.170,forced_choiceRT_color,2021.2.3,Win32,60.16485169,,,,,,,,3,Fast,short,j,1,1.899,6,3,27,2,1,,,,,
,1.63,,,,,,,,,f,blue,58fdcd2be219d00001ee5aa0,2021-09-27_16h02.26.170,forced_choiceRT_color,2021.2.3,Win32,60.16485169,,,,,,,,3,Slow,short,j,0,2.1013,7,0,28,1,1,,,,,
,0.16,,,,,,,,,k,purple,58fdcd2be219d00001ee5aa0,2021-09-27_16h02.26.170,forced_choiceRT_color,2021.2.3,Win32,60.16485169,,,,,,,,3,Fast,short,k,1,1.7741,7,1,29,3,1,,,,,
,1.57,,,,,,,,,d,orange,58fdcd2be219d00001ee5aa0,2021-09-27_16h02.26.170,forced_choiceRT_color,2021.2.3,Win32,60.16485169,,,,,,,,3,Ontime,short,d,1,2.0795,7,2,30,0,1,,,,,
,0.35,,,,,,,,,d,orange,58fdcd2be219d00001ee5aa0,2021-09-27_16h02.26.170,forced_choiceRT_color,2021.2.3,Win32,60.16485169,,,,,,,,3,Slow,short,d,1,2.1767,7,3,31,0,1,,,,,
,0.16,,,,,,,,,k,purple,58fdcd2be219d00001ee5aa0,2021-09-27_16h02.26.170,forced_choiceRT_color,2021.2.3,Win32,60.16485169,,,,,,,,3,Ontime,short,k,1,1.9575,8,0,32,3,1,,,,,
,1.47,,,,,,,,,d,orange,58fdcd2be219d00001ee5aa0,2021-09-27_16h02.26.170,forced_choiceRT_color,2021.2.3,Win32,60.16485169,,,,,,,,3,Ontime,short,d,1,1.9827,8,1,33,0,1,,,,,
,1.47,,,,,,,,,k,purple,58fdcd2be219d00001ee5aa0,2021-09-27_16h02.26.170,forced_choiceRT_color,2021.2.3,Win32,60.16485169,,,,,,,,3,Ontime,short,j,0,2.0596,8,2,34,3,1,,,,,
,0.26,,,,,,,,,k,purple,58fdcd2be219d00001ee5aa0,2021-09-27_16h02.26.170,forced_choiceRT_color,2021.2.3,Win32,60.16485169,,,,,,,,3,Ontime,short,k,1,1.9171,8,3,35,3,1,,,,,
,0.5,,,,,,,,,k,purple,58fdcd2be219d00001ee5aa0,2021-09-27_16h02.26.170,forced_choiceRT_color,2021.2.3,Win32,60.16485169,,,,,,,,3,Ontime,short,k,1,2.0071,9,0,36,3,1,,,,,
,1.1,,,,,,,,,d,orange,58fdcd2be219d00001ee5aa0,2021-09-27_16h02.26.170,forced_choiceRT_color,2021.2.3,Win32,60.16485169,,,,,,,,3,Ontime,short,d,1,2.0476,9,1,37,0,1,,,,,
,1.13,,,,,,,,,j,red,58fdcd2be219d00001ee5aa0,2021-09-27_16h02.26.170,forced_choiceRT_color,2021.2.3,Win32,60.16485169,,,,,,,,3,Slow,short,j,1,2.3928,9,2,38,2,1,,,,,
,0.76,,,,,,,,,d,orange,58fdcd2be219d00001ee5aa0,2021-09-27_16h02.26.170,forced_choiceRT_color,2021.2.3,Win32,60.16485169,,,,,,,,3,Fast,short,d,1,1.8753,9,3,39,0,1,,,,,
,,,,,,,,,,,,58fdcd2be219d00001ee5aa0,2021-09-27_16h02.26.170,forced_choiceRT_color,2021.2.3,Win32,60.16485169,,,,,,,,,,,,,,,,,,,2,0,2,0,1
,1.13,,,,,,,,,d,orange,58fdcd2be219d00001ee5aa0,2021-09-27_16h02.26.170,forced_choiceRT_color,2021.2.3,Win32,60.16485169,,,,,,,,4,Slow,short,j,0,2.1952,0,0,0,0,1,,,,,
,0.94,,,,,,,,,d,orange,58fdcd2be219d00001ee5aa0,2021-09-27_16h02.26.170,forced_choiceRT_color,2021.2.3,Win32,60.16485169,,,,,,,,4,Fast,short,d,1,1.7001,0,1,1,0,1,,,,,
,0.01,,,,,,,,,d,orange,58fdcd2be219d00001ee5aa0,2021-09-27_16h02.26.170,forced_choiceRT_color,2021.2.3,Win32,60.16485169,,,,,,,,4,Fast,short,d,1,1.8076,0,2,2,0,1,,,,,
,1.58,,,,,,,,,j,red,58fdcd2be219d00001ee5aa0,2021-09-27_16h02.26.170,forced_choiceRT_color,2021.2.3,Win32,60.16485169,,,,,,,,4,Fast,short,d,0,1.8451,0,3,3,2,1,,,,,
,1.29,,,,,,,,,d,orange,58fdcd2be219d00001ee5aa0,2021-09-27_16h02.26.170,forced_choiceRT_color,2021.2.3,Win32,60.16485169,,,,,,,,4,Fast,short,d,1,1.8005,1,0,4,0,1,,,,,
,0.02,,,,,,,,,k,purple,58fdcd2be219d00001ee5aa0,2021-09-27_16h02.26.170,forced_choiceRT_color,2021.2.3,Win32,60.16485169,,,,,,,,4,Fast,short,k,1,1.7768,1,1,5,3,1,,,,,
,1.3,,,,,,,,,f,blue,58fdcd2be219d00001ee5aa0,2021-09-27_16h02.26.170,forced_choiceRT_color,2021.2.3,Win32,60.16485169,,,,,,,,4,Ontime,short,j,0,1.9059,1,2,6,1,1,,,,,
,0.93,,,,,,,,,k,purple,58fdcd2be219d00001ee5aa0,2021-09-27_16h02.26.170,forced_choiceRT_color,2021.2.3,Win32,60.16485169,,,,,,,,4,Slow,short,k,1,2.2638,1,3,7,3,1,,,,,
,0.7,,,,,,,,,f,blue,58fdcd2be219d00001ee5aa0,2021-09-27_16h02.26.170,forced_choiceRT_color,2021.2.3,Win32,60.16485169,,,,,,,,4,Ontime,short,f,1,1.9349,2,0,8,1,1,,,,,
,1.73,,,,,,,,,k,purple,58fdcd2be219d00001ee5aa0,2021-09-27_16h02.26.170,forced_choiceRT_color,2021.2.3,Win32,60.16485169,,,,,,,,4,Slow,short,f,0,2.1979,2,1,9,3,1,,,,,
,0.96,,,,,,,,,j,red,58fdcd2be219d00001ee5aa0,2021-09-27_16h02.26.170,forced_choiceRT_color,2021.2.3,Win32,60.16485169,,,,,,,,4,Fast,short,j,1,1.8511,2,2,10,2,1,,,,,
,0.92,,,,,,,,,f,blue,58fdcd2be219d00001ee5aa0,2021-09-27_16h02.26.170,forced_choiceRT_color,2021.2.3,Win32,60.16485169,,,,,,,,4,Ontime,short,f,1,1.9236,2,3,11,1,1,,,,,
,1.47,,,,,,,,,d,orange,58fdcd2be219d00001ee5aa0,2021-09-27_16h02.26.170,forced_choiceRT_color,2021.2.3,Win32,60.16485169,,,,,,,,4,Ontime,short,j,0,2.0135,3,0,12,0,1,,,,,
,0.28,,,,,,,,,d,orange,58fdcd2be219d00001ee5aa0,2021-09-27_16h02.26.170,forced_choiceRT_color,2021.2.3,Win32,60.16485169,,,,,,,,4,Fast,short,d,1,1.8283,3,1,13,0,1,,,,,
,0.94,,,,,,,,,f,blue,58fdcd2be219d00001ee5aa0,2021-09-27_16h02.26.170,forced_choiceRT_color,2021.2.3,Win32,60.16485169,,,,,,,,4,Ontime,short,f,1,1.9167,3,2,14,1,1,,,,,
,1.95,,,,,,,,,k,purple,58fdcd2be219d00001ee5aa0,2021-09-27_16h02.26.170,forced_choiceRT_color,2021.2.3,Win32,60.16485169,,,,,,,,4,Slow,short,j,0,2.3893,3,3,15,3,1,,,,,
,0.74,,,,,,,,,d,orange,58fdcd2be219d00001ee5aa0,2021-09-27_16h02.26.170,forced_choiceRT_color,2021.2.3,Win32,60.16485169,,,,,,,,4,Fast,short,d,1,1.841,4,0,16,0,1,,,,,
,0.59,,,,,,,,,j,red,58fdcd2be219d00001ee5aa0,2021-09-27_16h02.26.170,forced_choiceRT_color,2021.2.3,Win32,60.16485169,,,,,,,,4,Slow,short,j,1,2.1189,4,1,17,2,1,,,,,
,1.09,,,,,,,,,j,red,58fdcd2be219d00001ee5aa0,2021-09-27_16h02.26.170,forced_choiceRT_color,2021.2.3,Win32,60.16485169,,,,,,,,4,Fast,short,j,1,1.8962,4,2,18,2,1,,,,,
,0.72,,,,,,,,,j,red,58fdcd2be219d00001ee5aa0,2021-09-27_16h02.26.170,forced_choiceRT_color,2021.2.3,Win32,60.16485169,,,,,,,,4,Slow,short,j,1,2.1127,4,3,19,2,1,,,,,
,0.85,,,,,,,,,k,purple,58fdcd2be219d00001ee5aa0,2021-09-27_16h02.26.170,forced_choiceRT_color,2021.2.3,Win32,60.16485169,,,,,,,,4,Ontime,short,k,1,2.0683,5,0,20,3,1,,,,,
,0.56,,,,,,,,,j,red,58fdcd2be219d00001ee5aa0,2021-09-27_16h02.26.170,forced_choiceRT_color,2021.2.3,Win32,60.16485169,,,,,,,,4,Slow,short,j,1,2.1056,5,1,21,2,1,,,,,
,1.21,,,,,,,,,k,purple,58fdcd2be219d00001ee5aa0,2021-09-27_16h02.26.170,forced_choiceRT_color,2021.2.3,Win32,60.16485169,,,,,,,,4,Fast,short,k,1,1.8232,5,2,22,3,1,,,,,
,1.27,,,,,,,,,k,purple,58fdcd2be219d00001ee5aa0,2021-09-27_16h02.26.170,forced_choiceRT_color,2021.2.3,Win32,60.16485169,,,,,,,,4,Slow,short,k,1,2.1393,5,3,23,3,1,,,,,
,1.7,,,,,,,,,d,orange,58fdcd2be219d00001ee5aa0,2021-09-27_16h02.26.170,forced_choiceRT_color,2021.2.3,Win32,60.16485169,,,,,,,,4,Slow,short,j,0,2.1826,6,0,24,0,1,,,,,
,0.5,,,,,,,,,j,red,58fdcd2be219d00001ee5aa0,2021-09-27_16h02.26.170,forced_choiceRT_color,2021.2.3,Win32,60.16485169,,,,,,,,4,Slow,short,j,1,2.1446,6,1,25,2,1,,,,,
,1.99,,,,,,,,,j,red,58fdcd2be219d00001ee5aa0,2021-09-27_16h02.26.170,forced_choiceRT_color,2021.2.3,Win32,60.16485169,,,,,,,,4,Ontime,short,j,1,2.0964,6,2,26,2,1,,,,,
,1.72,,,,,,,,,f,blue,58fdcd2be219d00001ee5aa0,2021-09-27_16h02.26.170,forced_choiceRT_color,2021.2.3,Win32,60.16485169,,,,,,,,4,Slow,short,k,0,2.295,6,3,27,1,1,,,,,
,0.23,,,,,,,,,k,purple,58fdcd2be219d00001ee5aa0,2021-09-27_16h02.26.170,forced_choiceRT_color,2021.2.3,Win32,60.16485169,,,,,,,,4,Fast,short,k,1,1.7891,7,0,28,3,1,,,,,
,1.26,,,,,,,,,f,blue,58fdcd2be219d00001ee5aa0,2021-09-27_16h02.26.170,forced_choiceRT_color,2021.2.3,Win32,60.16485169,,,,,,,,4,Ontime,short,j,0,1.9397,7,1,29,1,1,,,,,
,1.32,,,,,,,,,d,orange,58fdcd2be219d00001ee5aa0,2021-09-27_16h02.26.170,forced_choiceRT_color,2021.2.3,Win32,60.16485169,,,,,,,,4,Ontime,short,f,0,2.0125,7,2,30,0,1,,,,,
,0.96,,,,,,,,,j,red,58fdcd2be219d00001ee5aa0,2021-09-27_16h02.26.170,forced_choiceRT_color,2021.2.3,Win32,60.16485169,,,,,,,,4,Fast,short,d,0,0.0597,7,3,31,2,1,,,,,
,0.91,,,,,,,,,f,blue,58fdcd2be219d00001ee5aa0,2021-09-27_16h02.26.170,forced_choiceRT_color,2021.2.3,Win32,60.16485169,,,,,,,,4,Ontime,short,f,1,1.963,8,0,32,1,1,,,,,
,0.93,,,,,,,,,j,red,58fdcd2be219d00001ee5aa0,2021-09-27_16h02.26.170,forced_choiceRT_color,2021.2.3,Win32,60.16485169,,,,,,,,4,Ontime,short,j,1,1.9301,8,1,33,2,1,,,,,
,1.2,,,,,,,,,k,purple,58fdcd2be219d00001ee5aa0,2021-09-27_16h02.26.170,forced_choiceRT_color,2021.2.3,Win32,60.16485169,,,,,,,,4,Fast,short,k,1,1.8634,8,2,34,3,1,,,,,
,1.92,,,,,,,,,k,purple,58fdcd2be219d00001ee5aa0,2021-09-27_16h02.26.170,forced_choiceRT_color,2021.2.3,Win32,60.16485169,,,,,,,,4,Slow,short,d,0,2.2622,8,3,35,3,1,,,,,
,1.4,,,,,,,,,f,blue,58fdcd2be219d00001ee5aa0,2021-09-27_16h02.26.170,forced_choiceRT_color,2021.2.3,Win32,60.16485169,,,,,,,,4,Ontime,short,j,0,2.0789,9,0,36,1,1,,,,,
,1.07,,,,,,,,,f,blue,58fdcd2be219d00001ee5aa0,2021-09-27_16h02.26.170,forced_choiceRT_color,2021.2.3,Win32,60.16485169,,,,,,,,4,Fast,short,f,1,0.0852,9,1,37,1,1,,,,,
,1.52,,,,,,,,,d,orange,58fdcd2be219d00001ee5aa0,2021-09-27_16h02.26.170,forced_choiceRT_color,2021.2.3,Win32,60.16485169,,,,,,,,4,Slow,short,f,0,2.1171,9,2,38,0,1,,,,,
,1.05,,,,,,,,,f,blue,58fdcd2be219d00001ee5aa0,2021-09-27_16h02.26.170,forced_choiceRT_color,2021.2.3,Win32,60.16485169,,,,,,,,4,Ontime,short,f,1,2.0173,9,3,39,1,1,,,,,
,,,,,,,,,,,,58fdcd2be219d00001ee5aa0,2021-09-27_16h02.26.170,forced_choiceRT_color,2021.2.3,Win32,60.16485169,,,,,,,,,,,,,,,,,,,3,0,3,0,1
,0.03,,,,,,,,,d,orange,58fdcd2be219d00001ee5aa0,2021-09-27_16h02.26.170,forced_choiceRT_color,2021.2.3,Win32,60.16485169,,,,,,,,5,Fast,short,d,1,1.8544,0,0,0,0,1,,,,,
,0.56,,,,,,,,,f,blue,58fdcd2be219d00001ee5aa0,2021-09-27_16h02.26.170,forced_choiceRT_color,2021.2.3,Win32,60.16485169,,,,,,,,5,Ontime,short,f,1,2.0293,0,1,1,1,1,,,,,
,0.72,,,,,,,,,f,blue,58fdcd2be219d00001ee5aa0,2021-09-27_16h02.26.170,forced_choiceRT_color,2021.2.3,Win32,60.16485169,,,,,,,,5,Ontime,short,f,1,1.9666,0,2,2,1,1,,,,,
,0.68,,,,,,,,,d,orange,58fdcd2be219d00001ee5aa0,2021-09-27_16h02.26.170,forced_choiceRT_color,2021.2.3,Win32,60.16485169,,,,,,,,5,Fast,short,d,1,1.7711,0,3,3,0,1,,,,,
,0.06,,,,,,,,,d,orange,58fdcd2be219d00001ee5aa0,2021-09-27_16h02.26.170,forced_choiceRT_color,2021.2.3,Win32,60.16485169,,,,,,,,5,Fast,short,d,1,1.8139,1,0,4,0,1,,,,,
,1.01,,,,,,,,,j,red,58fdcd2be219d00001ee5aa0,2021-09-27_16h02.26.170,forced_choiceRT_color,2021.2.3,Win32,60.16485169,,,,,,,,5,Slow,short,j,1,2.1797,1,1,5,2,1,,,,,
,1.13,,,,,,,,,k,purple,58fdcd2be219d00001ee5aa0,2021-09-27_16h02.26.170,forced_choiceRT_color,2021.2.3,Win32,60.16485169,,,,,,,,5,Fast,short,k,1,1.6472,1,2,6,3,1,,,,,
,1.89,,,,,,,,,k,purple,58fdcd2be219d00001ee5aa0,2021-09-27_16h02.26.170,forced_choiceRT_color,2021.2.3,Win32,60.16485169,,,,,,,,5,Slow,short,j,0,2.3377,1,3,7,3,1,,,,,
,1.71,,,,,,,,,k,purple,58fdcd2be219d00001ee5aa0,2021-09-27_16h02.26.170,forced_choiceRT_color,2021.2.3,Win32,60.16485169,,,,,,,,5,Slow,short,k,1,2.181,2,0,8,3,1,,,,,
,0.45,,,,,,,,,f,blue,58fdcd2be219d00001ee5aa0,2021-09-27_16h02.26.170,forced_choiceRT_color,2021.2.3,Win32,60.16485169,,,,,,,,5,Ontime,short,f,1,2.0788,2,1,9,1,1,,,,,
,1.99,,,,,,,,,f,blue,58fdcd2be219d00001ee5aa0,2021-09-27_16h02.26.170,forced_choiceRT_color,2021.2.3,Win32,60.16485169,,,,,,,,5,Slow,short,f,1,2.3627,2,2,10,1,1,,,,,
,0.78,,,,,,,,,j,red,58fdcd2be219d00001ee5aa0,2021-09-27_16h02.26.170,forced_choiceRT_color,2021.2.3,Win32,60.16485169,,,,,,,,5,Fast,short,j,1,1.8801,2,3,11,2,1,,,,,
,1.87,,,,,,,,,f,blue,58fdcd2be219d00001ee5aa0,2021-09-27_16h02.26.170,forced_choiceRT_color,2021.2.3,Win32,60.16485169,,,,,,,,5,Slow,short,j,0,2.2284,3,0,12,1,1,,,,,
,1.47,,,,,,,,,f,blue,58fdcd2be219d00001ee5aa0,2021-09-27_16h02.26.170,forced_choiceRT_color,2021.2.3,Win32,60.16485169,,,,,,,,5,Ontime,short,f,1,1.9836,3,1,13,1,1,,,,,
,1.37,,,,,,,,,j,red,58fdcd2be219d00001ee5aa0,2021-09-27_16h02.26.170,forced_choiceRT_color,2021.2.3,Win32,60.16485169,,,,,,,,5,Ontime,short,j,1,2.0668,3,2,14,2,1,,,,,
,1.8,,,,,,,,,d,orange,58fdcd2be219d00001ee5aa0,2021-09-27_16h02.26.170,forced_choiceRT_color,2021.2.3,Win32,60.16485169,,,,,,,,5,Slow,short,f,0,2.3622,3,3,15,0,1,,,,,
,1.52,,,,,,,,,j,red,58fdcd2be219d00001ee5aa0,2021-09-27_16h02.26.170,forced_choiceRT_color,2021.2.3,Win32,60.16485169,,,,,,,,5,Ontime,short,j,1,2.0978,4,0,16,2,1,,,,,
,0.75,,,,,,,,,j,red,58fdcd2be219d00001ee5aa0,2021-09-27_16h02.26.170,forced_choiceRT_color,2021.2.3,Win32,60.16485169,,,,,,,,5,Ontime,short,j,1,2.0852,4,1,17,2,1,,,,,
,0.93,,,,,,,,,j,red,58fdcd2be219d00001ee5aa0,2021-09-27_16h02.26.170,forced_choiceRT_color,2021.2.3,Win32,60.16485169,,,,,,,,5,Ontime,short,j,1,2.0799,4,2,18,2,1,,,,,
,1.47,,,,,,,,,k,purple,58fdcd2be219d00001ee5aa0,2021-09-27_16h02.26.170,forced_choiceRT_color,2021.2.3,Win32,60.16485169,,,,,,,,5,Slow,short,k,1,2.2468,4,3,19,3,1,,,,,
,0.36,,,,,,,,,k,purple,58fdcd2be219d00001ee5aa0,2021-09-27_16h02.26.170,forced_choiceRT_color,2021.2.3,Win32,60.16485169,,,,,,,,5,Ontime,short,k,1,1.998,5,0,20,3,1,,,,,
,0.85,,,,,,,,,f,blue,58fdcd2be219d00001ee5aa0,2021-09-27_16h02.26.170,forced_choiceRT_color,2021.2.3,Win32,60.16485169,,,,,,,,5,Slow,short,f,1,2.1792,5,1,21,1,1,,,,,
,1.94,,,,,,,,,j,red,58fdcd2be219d00001ee5aa0,2021-09-27_16h02.26.170,forced_choiceRT_color,2021.2.3,Win32,60.16485169,,,,,,,,5,Slow,short,f,0,2.1874,5,2,22,2,1,,,,,
,1.9,,,,,,,,,d,orange,58fdcd2be219d00001ee5aa0,2021-09-27_16h02.26.170,forced_choiceRT_color,2021.2.3,Win32,60.16485169,,,,,,,,5,Ontime,short,j,0,2.0928,5,3,23,0,1,,,,,
,0.81,,,,,,,,,d,orange,58fdcd2be219d00001ee5aa0,2021-09-27_16h02.26.170,forced_choiceRT_color,2021.2.3,Win32,60.16485169,,,,,,,,5,Ontime,short,d,1,2.0794,6,0,24,0,1,,,,,
,0.51,,,,,,,,,d,orange,58fdcd2be219d00001ee5aa0,2021-09-27_16h02.26.170,forced_choiceRT_color,2021.2.3,Win32,60.16485169,,,,,,,,5,Ontime,short,d,1,1.9633,6,1,25,0,1,,,,,
,1.1,,,,,,,,,k,purple,58fdcd2be219d00001ee5aa0,2021-09-27_16h02.26.170,forced_choiceRT_color,2021.2.3,Win32,60.16485169,,,,,,,,5,Slow,short,k,1,2.1059,6,2,26,3,1,,,,,
,1.81,,,,,,,,,j,red,58fdcd2be219d00001ee5aa0,2021-09-27_16h02.26.170,forced_choiceRT_color,2021.2.3,Win32,60.16485169,,,,,,,,5,Slow,short,j,1,2.1181,6,3,27,2,1,,,,,
,1.52,,,,,,,,,j,red,58fdcd2be219d00001ee5aa0,2021-09-27_16h02.26.170,forced_choiceRT_color,2021.2.3,Win32,60.16485169,,,,,,,,5,Ontime,short,j,1,1.9636,7,0,28,2,1,,,,,
,1.72,,,,,,,,,d,orange,58fdcd2be219d00001ee5aa0,2021-09-27_16h02.26.170,forced_choiceRT_color,2021.2.3,Win32,60.16485169,,,,,,,,5,Slow,short,d,1,2.3664,7,1,29,0,1,,,,,
,0.09,,,,,,,,,k,purple,58fdcd2be219d00001ee5aa0,2021-09-27_16h02.26.170,forced_choiceRT_color,2021.2.3,Win32,60.16485169,,,,,,,,5,Fast,short,k,1,1.8806,7,2,30,3,1,,,,,
,1.12,,,,,,,,,d,orange,58fdcd2be219d00001ee5aa0,2021-09-27_16h02.26.170,forced_choiceRT_color,2021.2.3,Win32,60.16485169,,,,,,,,5,Fast,short,d,1,1.8211,7,3,31,0,1,,,,,
,0.51,,,,,,,,,k,purple,58fdcd2be219d00001ee5aa0,2021-09-27_16h02.26.170,forced_choiceRT_color,2021.2.3,Win32,60.16485169,,,,,,,,5,Slow,short,k,1,2.1339,8,0,32,3,1,,,,,
,1.25,,,,,,,,,j,red,58fdcd2be219d00001ee5aa0,2021-09-27_16h02.26.170,forced_choiceRT_color,2021.2.3,Win32,60.16485169,,,,,,,,5,Slow,short,j,1,2.14,8,1,33,2,1,,,,,
,0.01,,,,,,,,,f,blue,58fdcd2be219d00001ee5aa0,2021-09-27_16h02.26.170,forced_choiceRT_color,2021.2.3,Win32,60.16485169,,,,,,,,5,Fast,short,f,1,1.7802,8,2,34,1,1,,,,,
,0.09,,,,,,,,,f,blue,58fdcd2be219d00001ee5aa0,2021-09-27_16h02.26.170,forced_choiceRT_color,2021.2.3,Win32,60.16485169,,,,,,,,5,Fast,short,f,1,1.8616,8,3,35,1,1,,,,,
,0.26,,,,,,,,,f,blue,58fdcd2be219d00001ee5aa0,2021-09-27_16h02.26.170,forced_choiceRT_color,2021.2.3,Win32,60.16485169,,,,,,,,5,Ontime,short,f,1,2.0128,9,0,36,1,1,,,,,
,0.25,,,,,,,,,k,purple,58fdcd2be219d00001ee5aa0,2021-09-27_16h02.26.170,forced_choiceRT_color,2021.2.3,Win32,60.16485169,,,,,,,,5,Slow,short,k,1,2.1165,9,1,37,3,1,,,,,
,1.5,,,,,,,,,k,purple,58fdcd2be219d00001ee5aa0,2021-09-27_16h02.26.170,forced_choiceRT_color,2021.2.3,Win32,60.16485169,,,,,,,,5,Slow,short,k,1,2.2958,9,2,38,3,1,,,,,
,0.7,,,,,,,,,d,orange,58fdcd2be219d00001ee5aa0,2021-09-27_16h02.26.170,forced_choiceRT_color,2021.2.3,Win32,60.16485169,,,,,,,,5,Slow,short,d,1,2.1009,9,3,39,0,1,,,,,
,,,,,,,,,,,,58fdcd2be219d00001ee5aa0,2021-09-27_16h02.26.170,forced_choiceRT_color,2021.2.3,Win32,60.16485169,,,,,,,,,,,,,,,,,,,4,0,4,0,1
,1.83,,,,,,,,,j,red,58fdcd2be219d00001ee5aa0,2021-09-27_16h02.26.170,forced_choiceRT_color,2021.2.3,Win32,60.16485169,,,,,,,,6,Slow,short,j,1,2.4327,0,0,0,2,1,,,,,
,1.79,,,,,,,,,j,red,58fdcd2be219d00001ee5aa0,2021-09-27_16h02.26.170,forced_choiceRT_color,2021.2.3,Win32,60.16485169,,,,,,,,6,Slow,short,j,1,2.3198,0,1,1,2,1,,,,,
,1.2,,,,,,,,,j,red,58fdcd2be219d00001ee5aa0,2021-09-27_16h02.26.170,forced_choiceRT_color,2021.2.3,Win32,60.16485169,,,,,,,,6,Fast,short,j,1,1.8233,0,2,2,2,1,,,,,
,1.72,,,,,,,,,d,orange,58fdcd2be219d00001ee5aa0,2021-09-27_16h02.26.170,forced_choiceRT_color,2021.2.3,Win32,60.16485169,,,,,,,,6,Slow,short,d,1,2.4376,0,3,3,0,1,,,,,
,0.94,,,,,,,,,f,blue,58fdcd2be219d00001ee5aa0,2021-09-27_16h02.26.170,forced_choiceRT_color,2021.2.3,Win32,60.16485169,,,,,,,,6,Fast,short,d,0,1.8222,1,0,4,1,1,,,,,
,1.47,,,,,,,,,j,red,58fdcd2be219d00001ee5aa0,2021-09-27_16h02.26.170,forced_choiceRT_color,2021.2.3,Win32,60.16485169,,,,,,,,6,Ontime,short,f,0,2.0345,1,1,5,2,1,,,,,
,0.7,,,,,,,,,f,blue,58fdcd2be219d00001ee5aa0,2021-09-27_16h02.26.170,forced_choiceRT_color,2021.2.3,Win32,60.16485169,,,,,,,,6,Fast,short,j,0,0.1176,1,2,6,1,1,,,,,
,0.73,,,,,,,,,f,blue,58fdcd2be219d00001ee5aa0,2021-09-27_16h02.26.170,forced_choiceRT_color,2021.2.3,Win32,60.16485169,,,,,,,,6,Fast,short,f,1,1.6972,1,3,7,1,1,,,,,
,1.07,,,,,,,,,d,orange,58fdcd2be219d00001ee5aa0,2021-09-27_16h02.26.170,forced_choiceRT_color,2021.2.3,Win32,60.16485169,,,,,,,,6,Fast,short,d,1,1.8297,2,0,8,0,1,,,,,
,0.69,,,,,,,,,k,purple,58fdcd2be219d00001ee5aa0,2021-09-27_16h02.26.170,forced_choiceRT_color,2021.2.3,Win32,60.16485169,,,,,,,,6,Ontime,short,k,1,1.9361,2,1,9,3,1,,,,,
,0.21,,,,,,,,,j,red,58fdcd2be219d00001ee5aa0,2021-09-27_16h02.26.170,forced_choiceRT_color,2021.2.3,Win32,60.16485169,,,,,,,,6,Ontime,short,j,1,2.0511,2,2,10,2,1,,,,,
,1.29,,,,,,,,,j,red,58fdcd2be219d00001ee5aa0,2021-09-27_16h02.26.170,forced_choiceRT_color,2021.2.3,Win32,60.16485169,,,,,,,,6,Ontime,short,j,1,1.9808,2,3,11,2,1,,,,,
,1.56,,,,,,,,,k,purple,58fdcd2be219d00001ee5aa0,2021-09-27_16h02.26.170,forced_choiceRT_color,2021.2.3,Win32,60.16485169,,,,,,,,6,Slow,short,j,0,2.1467,3,0,12,3,1,,,,,
,0.69,,,,,,,,,k,purple,58fdcd2be219d00001ee5aa0,2021-09-27_16h02.26.170,forced_choiceRT_color,2021.2.3,Win32,60.16485169,,,,,,,,6,Ontime,short,k,1,1.9971,3,1,13,3,1,,,,,
,0.7,,,,,,,,,k,purple,58fdcd2be219d00001ee5aa0,2021-09-27_16h02.26.170,forced_choiceRT_color,2021.2.3,Win32,60.16485169,,,,,,,,6,Slow,short,k,1,2.1735,3,2,14,3,1,,,,,
,0.64,,,,,,,,,d,orange,58fdcd2be219d00001ee5aa0,2021-09-27_16h02.26.170,forced_choiceRT_color,2021.2.3,Win32,60.16485169,,,,,,,,6,Ontime,short,d,1,1.996,3,3,15,0,1,,,,,
,0.71,,,,,,,,,d,orange,58fdcd2be219d00001ee5aa0,2021-09-27_16h02.26.170,forced_choiceRT_color,2021.2.3,Win32,60.16485169,,,,,,,,6,Ontime,short,d,1,2.0626,4,0,16,0,1,,,,,
,0.03,,,,,,,,,d,orange,58fdcd2be219d00001ee5aa0,2021-09-27_16h02.26.170,forced_choiceRT_color,2021.2.3,Win32,60.16485169,,,,,,,,6,Fast,short,d,1,1.8112,4,1,17,0,1,,,,,
,0.29,,,,,,,,,f,blue,58fdcd2be219d00001ee5aa0,2021-09-27_16h02.26.170,forced_choiceRT_color,2021.2.3,Win32,60.16485169,,,,,,,,6,Slow,short,j,0,2.2303,4,2,18,1,1,,,,,
,1.42,,,,,,,,,j,red,58fdcd2be219d00001ee5aa0,2021-09-27_16h02.26.170,forced_choiceRT_color,2021.2.3,Win32,60.16485169,,,,,,,,6,Ontime,short,j,1,2.032,4,3,19,2,1,,,,,
,1.68,,,,,,,,,k,purple,58fdcd2be219d00001ee5aa0,2021-09-27_16h02.26.170,forced_choiceRT_color,2021.2.3,Win32,60.16485169,,,,,,,,6,Slow,short,k,1,2.2907,5,0,20,3,1,,,,,
,1.55,,,,,,,,,d,orange,58fdcd2be219d00001ee5aa0,2021-09-27_16h02.26.170,forced_choiceRT_color,2021.2.3,Win32,60.16485169,,,,,,,,6,Slow,short,d,1,2.2373,5,1,21,0,1,,,,,
,1.29,,,,,,,,,j,red,58fdcd2be219d00001ee5aa0,2021-09-27_16h02.26.170,forced_choiceRT_color,2021.2.3,Win32,60.16485169,,,,,,,,6,Ontime,short,j,1,2.0595,5,2,22,2,1,,,,,
,0.98,,,,,,,,,f,blue,58fdcd2be219d00001ee5aa0,2021-09-27_16h02.26.170,forced_choiceRT_color,2021.2.3,Win32,60.16485169,,,,,,,,6,Ontime,short,f,1,2.0693,5,3,23,1,1,,,,,
,0.11,,,,,,,,,k,purple,58fdcd2be219d00001ee5aa0,2021-09-27_16h02.26.170,forced_choiceRT_color,2021.2.3,Win32,60.16485169,,,,,,,,6,Ontime,short,k,1,2.0699,6,0,24,3,1,,,,,
,0.81,,,,,,,,,d,orange,58fdcd2be219d00001ee5aa0,2021-09-27_16h02.26.170,forced_choiceRT_color,2021.2.3,Win32,60.16485169,,,,,,,,6,Slow,short,d,1,2.1294,6,1,25,0,1,,,,,
,1.9,,,,,,,,,f,blue,58fdcd2be219d00001ee5aa0,2021-09-27_16h02.26.170,forced_choiceRT_color,2021.2.3,Win32,60.16485169,,,,,,,,6,Slow,short,d,0,2.1632,6,2,26,1,1,,,,,
,1.14,,,,,,,,,d,orange,58fdcd2be219d00001ee5aa0,2021-09-27_16h02.26.170,forced_choiceRT_color,2021.2.3,Win32,60.16485169,,,,,,,,6,Fast,short,f,0,1.8294,6,3,27,0,1,,,,,
,1.3,,,,,,,,,f,blue,58fdcd2be219d00001ee5aa0,2021-09-27_16h02.26.170,forced_choiceRT_color,2021.2.3,Win32,60.16485169,,,,,,,,6,Ontime,short,f,1,1.9867,7,0,28,1,1,,,,,
,1.35,,,,,,,,,d,orange,58fdcd2be219d00001ee5aa0,2021-09-27_16h02.26.170,forced_choiceRT_color,2021.2.3,Win32,60.16485169,,,,,,,,6,Ontime,short,d,1,2.0388,7,1,29,0,1,,,,,
,1.79,,,,,,,,,k,purple,58fdcd2be219d00001ee5aa0,2021-09-27_16h02.26.170,forced_choiceRT_color,2021.2.3,Win32,60.16485169,,,,,,,,6,Slow,short,k,1,2.3785,7,2,30,3,1,,,,,
,0.47,,,,,,,,,k,purple,58fdcd2be219d00001ee5aa0,2021-09-27_16h02.26.170,forced_choiceRT_color,2021.2.3,Win32,60.16485169,,,,,,,,6,Fast,short,k,1,1.8994,7,3,31,3,1,,,,,
,1.32,,,,,,,,,f,blue,58fdcd2be219d00001ee5aa0,2021-09-27_16h02.26.170,forced_choiceRT_color,2021.2.3,Win32,60.16485169,,,,,,,,6,Ontime,short,j,0,2.0373,8,0,32,1,1,,,,,
,0.6,,,,,,,,,f,blue,58fdcd2be219d00001ee5aa0,2021-09-27_16h02.26.170,forced_choiceRT_color,2021.2.3,Win32,60.16485169,,,,,,,,6,Slow,short,f,1,2.2278,8,1,33,1,1,,,,,
,0.14,,,,,,,,,d,orange,58fdcd2be219d00001ee5aa0,2021-09-27_16h02.26.170,forced_choiceRT_color,2021.2.3,Win32,60.16485169,,,,,,,,6,Fast,short,d,1,1.8466,8,2,34,0,1,,,,,
,1.54,,,,,,,,,j,red,58fdcd2be219d00001ee5aa0,2021-09-27_16h02.26.170,forced_choiceRT_color,2021.2.3,Win32,60.16485169,,,,,,,,6,Ontime,short,j,1,2.0712,8,3,35,2,1,,,,,
,0.28,,,,,,,,,k,purple,58fdcd2be219d00001ee5aa0,2021-09-27_16h02.26.170,forced_choiceRT_color,2021.2.3,Win32,60.16485169,,,,,,,,6,Ontime,short,k,1,2.0178,9,0,36,3,1,,,,,
,0.51,,,,,,,,,j,red,58fdcd2be219d00001ee5aa0,2021-09-27_16h02.26.170,forced_choiceRT_color,2021.2.3,Win32,60.16485169,,,,,,,,6,Slow,short,j,1,2.1172,9,1,37,2,1,,,,,
,1.47,,,,,,,,,f,blue,58fdcd2be219d00001ee5aa0,2021-09-27_16h02.26.170,forced_choiceRT_color,2021.2.3,Win32,60.16485169,,,,,,,,6,Ontime,short,d,0,1.9631,9,2,38,1,1,,,,,
,0.66,,,,,,,,,k,purple,58fdcd2be219d00001ee5aa0,2021-09-27_16h02.26.170,forced_choiceRT_color,2021.2.3,Win32,60.16485169,,,,,,,,6,Ontime,short,k,1,1.9274,9,3,39,3,1,,,,,
,,,,,,,,,,,,58fdcd2be219d00001ee5aa0,2021-09-27_16h02.26.170,forced_choiceRT_color,2021.2.3,Win32,60.16485169,,,,,,,,,,,,,,,,,,,5,0,5,0,1
,0.81,,,,,,,,,d,orange,58fdcd2be219d00001ee5aa0,2021-09-27_16h02.26.170,forced_choiceRT_color,2021.2.3,Win32,60.16485169,,,,,,,,7,Fast,short,d,1,1.7598,0,0,0,0,1,,,,,
,1.91,,,,,,,,,k,purple,58fdcd2be219d00001ee5aa0,2021-09-27_16h02.26.170,forced_choiceRT_color,2021.2.3,Win32,60.16485169,,,,,,,,7,Slow,short,d,0,2.1333,0,1,1,3,1,,,,,
,1.67,,,,,,,,,k,purple,58fdcd2be219d00001ee5aa0,2021-09-27_16h02.26.170,forced_choiceRT_color,2021.2.3,Win32,60.16485169,,,,,,,,7,Ontime,short,k,1,2.0327,0,2,2,3,1,,,,,
,1.05,,,,,,,,,f,blue,58fdcd2be219d00001ee5aa0,2021-09-27_16h02.26.170,forced_choiceRT_color,2021.2.3,Win32,60.16485169,,,,,,,,7,Ontime,short,j,0,2.063,0,3,3,1,1,,,,,
,1.55,,,,,,,,,f,blue,58fdcd2be219d00001ee5aa0,2021-09-27_16h02.26.170,forced_choiceRT_color,2021.2.3,Win32,60.16485169,,,,,,,,7,Slow,short,f,1,2.2126,1,0,4,1,1,,,,,
,1.13,,,,,,,,,f,blue,58fdcd2be219d00001ee5aa0,2021-09-27_16h02.26.170,forced_choiceRT_color,2021.2.3,Win32,60.16485169,,,,,,,,7,Ontime,short,f,1,2.0293,1,1,5,1,1,,,,,
,0.18,,,,,,,,,k,purple,58fdcd2be219d00001ee5aa0,2021-09-27_16h02.26.170,forced_choiceRT_color,2021.2.3,Win32,60.16485169,,,,,,,,7,Ontime,short,k,1,2.0301,1,2,6,3,1,,,,,
,1.58,,,,,,,,,k,purple,58fdcd2be219d00001ee5aa0,2021-09-27_16h02.26.170,forced_choiceRT_color,2021.2.3,Win32,60.16485169,,,,,,,,7,Slow,short,k,1,2.1636,1,3,7,3,1,,,,,
,0.95,,,,,,,,,f,blue,58fdcd2be219d00001ee5aa0,2021-09-27_16h02.26.170,forced_choiceRT_color,2021.2.3,Win32,60.16485169,,,,,,,,7,Fast,short,f,1,1.8204,2,0,8,1,1,,,,,
,0.83,,,,,,,,,f,blue,58fdcd2be219d00001ee5aa0,2021-09-27_16h02.26.170,forced_choiceRT_color,2021.2.3,Win32,60.16485169,,,,,,,,7,Fast,short,f,1,1.5567,2,1,9,1,1,,,,,
,0.07,,,,,,,,,f,blue,58fdcd2be219d00001ee5aa0,2021-09-27_16h02.26.170,forced_choiceRT_color,2021.2.3,Win32,60.16485169,,,,,,,,7,Ontime,short,f,1,1.9491,2,2,10,1,1,,,,,
,0.27,,,,,,,,,f,blue,58fdcd2be219d00001ee5aa0,2021-09-27_16h02.26.170,forced_choiceRT_color,2021.2.3,Win32,60.16485169,,,,,,,,7,Ontime,short,f,1,1.9349,2,3,11,1,1,,,,,
,0.99,,,,,,,,,k,purple,58fdcd2be219d00001ee5aa0,2021-09-27_16h02.26.170,forced_choiceRT_color,2021.2.3,Win32,60.16485169,,,,,,,,7,Fast,short,k,1,1.7365,3,0,12,3,1,,,,,
,1.16,,,,,,,,,j,red,58fdcd2be219d00001ee5aa0,2021-09-27_16h02.26.170,forced_choiceRT_color,2021.2.3,Win32,60.16485169,,,,,,,,7,Fast,short,j,1,1.7384,3,1,13,2,1,,,,,
,1.17,,,,,,,,,k,purple,58fdcd2be219d00001ee5aa0,2021-09-27_16h02.26.170,forced_choiceRT_color,2021.2.3,Win32,60.16485169,,,,,,,,7,Fast,short,j,0,1.7573,3,2,14,3,1,,,,,
,0.14,,,,,,,,,j,red,58fdcd2be219d00001ee5aa0,2021-09-27_16h02.26.170,forced_choiceRT_color,2021.2.3,Win32,60.16485169,,,,,,,,7,Ontime,short,j,1,1.9468,3,3,15,2,1,,,,,
,0.87,,,,,,,,,d,orange,58fdcd2be219d00001ee5aa0,2021-09-27_16h02.26.170,forced_choiceRT_color,2021.2.3,Win32,60.16485169,,,,,,,,7,Fast,short,d,1,1.8994,4,0,16,0,1,,,,,
,1.57,,,,,,,,,j,red,58fdcd2be219d00001ee5aa0,2021-09-27_16h02.26.170,forced_choiceRT_color,2021.2.3,Win32,60.16485169,,,,,,,,7,Ontime,short,j,1,2.082,4,1,17,2,1,,,,,
,0.87,,,,,,,,,d,orange,58fdcd2be219d00001ee5aa0,2021-09-27_16h02.26.170,forced_choiceRT_color,2021.2.3,Win32,60.16485169,,,,,,,,7,Ontime,short,d,1,1.9789,4,2,18,0,1,,,,,
,1.7,,,,,,,,,f,blue,58fdcd2be219d00001ee5aa0,2021-09-27_16h02.26.170,forced_choiceRT_color,2021.2.3,Win32,60.16485169,,,,,,,,7,Slow,short,k,0,2.7871,4,3,19,1,1,,,,,
,0.92,,,,,,,,,j,red,58fdcd2be219d00001ee5aa0,2021-09-27_16h02.26.170,forced_choiceRT_color,2021.2.3,Win32,60.16485169,,,,,,,,7,Ontime,short,j,1,1.9723,5,0,20,2,1,,,,,
,1.51,,,,,,,,,d,orange,58fdcd2be219d00001ee5aa0,2021-09-27_16h02.26.170,forced_choiceRT_color,2021.2.3,Win32,60.16485169,,,,,,,,7,Slow,short,d,1,2.1403,5,1,21,0,1,,,,,
,0.26,,,,,,,,,j,red,58fdcd2be219d00001ee5aa0,2021-09-27_16h02.26.170,forced_choiceRT_color,2021.2.3,Win32,60.16485169,,,,,,,,7,Ontime,short,j,1,2.0974,5,2,22,2,1,,,,,
,0.55,,,,,,,,,k,purple,58fdcd2be219d00001ee5aa0,2021-09-27_16h02.26.170,forced_choiceRT_color,2021.2.3,Win32,60.16485169,,,,,,,,7,Ontime,short,k,1,2.0337,5,3,23,3,1,,,,,
,1.03,,,,,,,,,d,orange,58fdcd2be219d00001ee5aa0,2021-09-27_16h02.26.170,forced_choiceRT_color,2021.2.3,Win32,60.16485169,,,,,,,,7,Ontime,short,d,1,2.0613,6,0,24,0,1,,,,,
,1.09,,,,,,,,,j,red,58fdcd2be219d00001ee5aa0,2021-09-27_16h02.26.170,forced_choiceRT_color,2021.2.3,Win32,60.16485169,,,,,,,,7,Slow,short,j,1,2.1406,6,1,25,2,1,,,,,
,1.08,,,,,,,,,j,red,58fdcd2be219d00001ee5aa0,2021-09-27_16h02.26.170,forced_choiceRT_color,2021.2.3,Win32,60.16485169,,,,,,,,7,Ontime,short,j,1,2.0021,6,2,26,2,1,,,,,
,0.96,,,,,,,,,j,red,58fdcd2be219d00001ee5aa0,2021-09-27_16h02.26.170,forced_choiceRT_color,2021.2.3,Win32,60.16485169,,,,,,,,7,Ontime,short,j,1,1.9971,6,3,27,2,1,,,,,
,1.95,,,,,,,,,d,orange,58fdcd2be219d00001ee5aa0,2021-09-27_16h02.26.170,forced_choiceRT_color,2021.2.3,Win32,60.16485169,,,,,,,,7,Slow,short,j,0,2.1079,7,0,28,0,1,,,,,
,1.33,,,,,,,,,k,purple,58fdcd2be219d00001ee5aa0,2021-09-27_16h02.26.170,forced_choiceRT_color,2021.2.3,Win32,60.16485169,,,,,,,,7,Fast,short,d,0,1.8028,7,1,29,3,1,,,,,
,0.78,,,,,,,,,j,red,58fdcd2be219d00001ee5aa0,2021-09-27_16h02.26.170,forced_choiceRT_color,2021.2.3,Win32,60.16485169,,,,,,,,7,Ontime,short,j,1,1.9045,7,2,30,2,1,,,,,
,0.06,,,,,,,,,k,purple,58fdcd2be219d00001ee5aa0,2021-09-27_16h02.26.170,forced_choiceRT_color,2021.2.3,Win32,60.16485169,,,,,,,,7,Ontime,short,k,1,1.925,7,3,31,3,1,,,,,
,1.24,,,,,,,,,j,red,58fdcd2be219d00001ee5aa0,2021-09-27_16h02.26.170,forced_choiceRT_color,2021.2.3,Win32,60.16485169,,,,,,,,7,Fast,short,j,1,1.779,8,0,32,2,1,,,,,
,0.82,,,,,,,,,f,blue,58fdcd2be219d00001ee5aa0,2021-09-27_16h02.26.170,forced_choiceRT_color,2021.2.3,Win32,60.16485169,,,,,,,,7,Fast,short,f,1,1.807,8,1,33,1,1,,,,,
,1.87,,,,,,,,,f,blue,58fdcd2be219d00001ee5aa0,2021-09-27_16h02.26.170,forced_choiceRT_color,2021.2.3,Win32,60.16485169,,,,,,,,7,Slow,short,f,1,2.1637,8,2,34,1,1,,,,,
,0.89,,,,,,,,,d,orange,58fdcd2be219d00001ee5aa0,2021-09-27_16h02.26.170,forced_choiceRT_color,2021.2.3,Win32,60.16485169,,,,,,,,7,Ontime,short,d,1,2.0062,8,3,35,0,1,,,,,
,0.41,,,,,,,,,k,purple,58fdcd2be219d00001ee5aa0,2021-09-27_16h02.26.170,forced_choiceRT_color,2021.2.3,Win32,60.16485169,,,,,,,,7,Fast,short,k,1,1.6814,9,0,36,3,1,,,,,
,1.95,,,,,,,,,d,orange,58fdcd2be219d00001ee5aa0,2021-09-27_16h02.26.170,forced_choiceRT_color,2021.2.3,Win32,60.16485169,,,,,,,,7,Slow,short,k,0,2.2143,9,1,37,0,1,,,,,
,1.12,,,,,,,,,d,orange,58fdcd2be219d00001ee5aa0,2021-09-27_16h02.26.170,forced_choiceRT_color,2021.2.3,Win32,60.16485169,,,,,,,,7,Ontime,short,d,1,2.0677,9,2,38,0,1,,,,,
,0.24,,,,,,,,,d,orange,58fdcd2be219d00001ee5aa0,2021-09-27_16h02.26.170,forced_choiceRT_color,2021.2.3,Win32,60.16485169,,,,,,,,7,Fast,short,d,1,1.8844,9,3,39,0,1,,,,,
,,,,,,,,,,,,58fdcd2be219d00001ee5aa0,2021-09-27_16h02.26.170,forced_choiceRT_color,2021.2.3,Win32,60.16485169,,,,,,,,,,,,,,,,,,,6,0,6,0,1
,0.12,,,,,,,,,k,purple,58fdcd2be219d00001ee5aa0,2021-09-27_16h02.26.170,forced_choiceRT_color,2021.2.3,Win32,60.16485169,,,,,,,,8,Ontime,short,k,1,2.0266,0,0,0,3,1,,,,,
,1.36,,,,,,,,,d,orange,58fdcd2be219d00001ee5aa0,2021-09-27_16h02.26.170,forced_choiceRT_color,2021.2.3,Win32,60.16485169,,,,,,,,8,Ontime,short,d,1,2.0957,0,1,1,0,1,,,,,
,1.19,,,,,,,,,k,purple,58fdcd2be219d00001ee5aa0,2021-09-27_16h02.26.170,forced_choiceRT_color,2021.2.3,Win32,60.16485169,,,,,,,,8,Ontime,short,k,1,2.0793,0,2,2,3,1,,,,,
,0.58,,,,,,,,,f,blue,58fdcd2be219d00001ee5aa0,2021-09-27_16h02.26.170,forced_choiceRT_color,2021.2.3,Win32,60.16485169,,,,,,,,8,Ontime,short,f,1,2.0461,0,3,3,1,1,,,,,
,1.96,,,,,,,,,j,red,58fdcd2be219d00001ee5aa0,2021-09-27_16h02.26.170,forced_choiceRT_color,2021.2.3,Win32,60.16485169,,,,,,,,8,Slow,short,d,0,2.3956,1,0,4,2,1,,,,,
,0.85,,,,,,,,,j,red,58fdcd2be219d00001ee5aa0,2021-09-27_16h02.26.170,forced_choiceRT_color,2021.2.3,Win32,60.16485169,,,,,,,,8,Slow,short,j,1,2.2378,1,1,5,2,1,,,,,
,0.31,,,,,,,,,k,purple,58fdcd2be219d00001ee5aa0,2021-09-27_16h02.26.170,forced_choiceRT_color,2021.2.3,Win32,60.16485169,,,,,,,,8,Ontime,short,k,1,1.9598,1,2,6,3,1,,,,,
,1.15,,,,,,,,,j,red,58fdcd2be219d00001ee5aa0,2021-09-27_16h02.26.170,forced_choiceRT_color,2021.2.3,Win32,60.16485169,,,,,,,,8,Ontime,short,j,1,2.0339,1,3,7,2,1,,,,,
,1.39,,,,,,,,,k,purple,58fdcd2be219d00001ee5aa0,2021-09-27_16h02.26.170,forced_choiceRT_color,2021.2.3,Win32,60.16485169,,,,,,,,8,Slow,short,k,1,2.2374,2,0,8,3,1,,,,,
,0.28,,,,,,,,,k,purple,58fdcd2be219d00001ee5aa0,2021-09-27_16h02.26.170,forced_choiceRT_color,2021.2.3,Win32,60.16485169,,,,,,,,8,Fast,short,k,1,1.7714,2,1,9,3,1,,,,,
,1.39,,,,,,,,,k,purple,58fdcd2be219d00001ee5aa0,2021-09-27_16h02.26.170,forced_choiceRT_color,2021.2.3,Win32,60.16485169,,,,,,,,8,Fast,short,k,1,1.8526,2,2,10,3,1,,,,,
,0.02,,,,,,,,,j,red,58fdcd2be219d00001ee5aa0,2021-09-27_16h02.26.170,forced_choiceRT_color,2021.2.3,Win32,60.16485169,,,,,,,,8,Fast,short,j,1,1.7947,2,3,11,2,1,,,,,
,0.35,,,,,,,,,f,blue,58fdcd2be219d00001ee5aa0,2021-09-27_16h02.26.170,forced_choiceRT_color,2021.2.3,Win32,60.16485169,,,,,,,,8,Fast,short,f,1,1.7699,3,0,12,1,1,,,,,
,0.15,,,,,,,,,d,orange,58fdcd2be219d00001ee5aa0,2021-09-27_16h02.26.170,forced_choiceRT_color,2021.2.3,Win32,60.16485169,,,,,,,,8,Slow,short,d,1,2.1081,3,1,13,0,1,,,,,
,1.51,,,,,,,,,k,purple,58fdcd2be219d00001ee5aa0,2021-09-27_16h02.26.170,forced_choiceRT_color,2021.2.3,Win32,60.16485169,,,,,,,,8,Ontime,short,j,0,1.9625,3,2,14,3,1,,,,,
,0,,,,,,,,,d,orange,58fdcd2be219d00001ee5aa0,2021-09-27_16h02.26.170,forced_choiceRT_color,2021.2.3,Win32,60.16485169,,,,,,,,8,Fast,short,d,1,1.852,3,3,15,0,1,,,,,
,1.8,,,,,,,,,f,blue,58fdcd2be219d00001ee5aa0,2021-09-27_16h02.26.170,forced_choiceRT_color,2021.2.3,Win32,60.16485169,,,,,,,,8,Slow,short,d,0,2.1461,4,0,16,1,1,,,,,
,0.52,,,,,,,,,f,blue,58fdcd2be219d00001ee5aa0,2021-09-27_16h02.26.170,forced_choiceRT_color,2021.2.3,Win32,60.16485169,,,,,,,,8,Slow,short,f,1,2.157,4,1,17,1,1,,,,,
,1.18,,,,,,,,,k,purple,58fdcd2be219d00001ee5aa0,2021-09-27_16h02.26.170,forced_choiceRT_color,2021.2.3,Win32,60.16485169,,,,,,,,8,Slow,short,k,1,2.1126,4,2,18,3,1,,,,,
,1.21,,,,,,,,,j,red,58fdcd2be219d00001ee5aa0,2021-09-27_16h02.26.170,forced_choiceRT_color,2021.2.3,Win32,60.16485169,,,,,,,,8,Fast,short,j,1,1.851,4,3,19,2,1,,,,,
,0.32,,,,,,,,,f,blue,58fdcd2be219d00001ee5aa0,2021-09-27_16h02.26.170,forced_choiceRT_color,2021.2.3,Win32,60.16485169,,,,,,,,8,Ontime,short,f,1,2.0898,5,0,20,1,1,,,,,
,0.01,,,,,,,,,d,orange,58fdcd2be219d00001ee5aa0,2021-09-27_16h02.26.170,forced_choiceRT_color,2021.2.3,Win32,60.16485169,,,,,,,,8,Ontime,short,d,1,1.9002,5,1,21,0,1,,,,,
,1.07,,,,,,,,,j,red,58fdcd2be219d00001ee5aa0,2021-09-27_16h02.26.170,forced_choiceRT_color,2021.2.3,Win32,60.16485169,,,,,,,,8,Fast,short,j,1,1.8832,5,2,22,2,1,,,,,
,0.52,,,,,,,,,f,blue,58fdcd2be219d00001ee5aa0,2021-09-27_16h02.26.170,forced_choiceRT_color,2021.2.3,Win32,60.16485169,,,,,,,,8,Ontime,short,f,1,2.0808,5,3,23,1,1,,,,,
,1.16,,,,,,,,,k,purple,58fdcd2be219d00001ee5aa0,2021-09-27_16h02.26.170,forced_choiceRT_color,2021.2.3,Win32,60.16485169,,,,,,,,8,Ontime,short,k,1,2.0266,6,0,24,3,1,,,,,
,0.16,,,,,,,,,d,orange,58fdcd2be219d00001ee5aa0,2021-09-27_16h02.26.170,forced_choiceRT_color,2021.2.3,Win32,60.16485169,,,,,,,,8,Ontime,short,d,1,2.0779,6,1,25,0,1,,,,,
,0.06,,,,,,,,,d,orange,58fdcd2be219d00001ee5aa0,2021-09-27_16h02.26.170,forced_choiceRT_color,2021.2.3,Win32,60.16485169,,,,,,,,8,Ontime,short,d,1,2.0572,6,2,26,0,1,,,,,
,0.65,,,,,,,,,d,orange,58fdcd2be219d00001ee5aa0,2021-09-27_16h02.26.170,forced_choiceRT_color,2021.2.3,Win32,60.16485169,,,,,,,,8,Ontime,short,d,1,2.0891,6,3,27,0,1,,,,,
,0.34,,,,,,,,,d,orange,58fdcd2be219d00001ee5aa0,2021-09-27_16h02.26.170,forced_choiceRT_color,2021.2.3,Win32,60.16485169,,,,,,,,8,Fast,short,d,1,1.8328,7,0,28,0,1,,,,,
,1.42,,,,,,,,,j,red,58fdcd2be219d00001ee5aa0,2021-09-27_16h02.26.170,forced_choiceRT_color,2021.2.3,Win32,60.16485169,,,,,,,,8,Slow,short,j,1,2.1384,7,1,29,2,1,,,,,
,1.45,,,,,,,,,j,red,58fdcd2be219d00001ee5aa0,2021-09-27_16h02.26.170,forced_choiceRT_color,2021.2.3,Win32,60.16485169,,,,,,,,8,Ontime,short,j,1,2.0389,7,2,30,2,1,,,,,
,0.98,,,,,,,,,d,orange,58fdcd2be219d00001ee5aa0,2021-09-27_16h02.26.170,forced_choiceRT_color,2021.2.3,Win32,60.16485169,,,,,,,,8,Slow,short,f,0,2.2123,7,3,31,0,1,,,,,
,1.71,,,,,,,,,j,red,58fdcd2be219d00001ee5aa0,2021-09-27_16h02.26.170,forced_choiceRT_color,2021.2.3,Win32,60.16485169,,,,,,,,8,Slow,short,j,1,2.3452,8,0,32,2,1,,,,,
,1.88,,,,,,,,,f,blue,58fdcd2be219d00001ee5aa0,2021-09-27_16h02.26.170,forced_choiceRT_color,2021.2.3,Win32,60.16485169,,,,,,,,8,Slow,short,j,0,2.7274,8,1,33,1,1,,,,,
,0.54,,,,,,,,,j,red,58fdcd2be219d00001ee5aa0,2021-09-27_16h02.26.170,forced_choiceRT_color,2021.2.3,Win32,60.16485169,,,,,,,,8,Ontime,short,j,1,2.08,8,2,34,2,1,,,,,
,1.8,,,,,,,,,d,orange,58fdcd2be219d00001ee5aa0,2021-09-27_16h02.26.170,forced_choiceRT_color,2021.2.3,Win32,60.16485169,,,,,,,,8,Slow,short,j,0,2.2664,8,3,35,0,1,,,,,
,0.02,,,,,,,,,f,blue,58fdcd2be219d00001ee5aa0,2021-09-27_16h02.26.170,forced_choiceRT_color,2021.2.3,Win32,60.16485169,,,,,,,,8,Ontime,short,f,1,1.9865,9,0,36,1,1,,,,,
,1.44,,,,,,,,,f,blue,58fdcd2be219d00001ee5aa0,2021-09-27_16h02.26.170,forced_choiceRT_color,2021.2.3,Win32,60.16485169,,,,,,,,8,Ontime,short,f,1,1.9478,9,1,37,1,1,,,,,
,0.54,,,,,,,,,k,purple,58fdcd2be219d00001ee5aa0,2021-09-27_16h02.26.170,forced_choiceRT_color,2021.2.3,Win32,60.16485169,,,,,,,,8,Slow,short,k,1,2.1207,9,2,38,3,1,,,,,
,0.36,,,,,,,,,f,blue,58fdcd2be219d00001ee5aa0,2021-09-27_16h02.26.170,forced_choiceRT_color,2021.2.3,Win32,60.16485169,,,,,,,,8,Fast,short,f,1,1.8146,9,3,39,1,1,,,,,
,,,,,,,,,,,,58fdcd2be219d00001ee5aa0,2021-09-27_16h02.26.170,forced_choiceRT_color,2021.2.3,Win32,60.16485169,,,,,,,,,,,,,,,,,,,7,0,7,0,1
,0.67,,,,,,,,,f,blue,58fdcd2be219d00001ee5aa0,2021-09-27_16h02.26.170,forced_choiceRT_color,2021.2.3,Win32,60.16485169,,,,,,,,9,Ontime,short,f,1,1.9807,0,0,0,1,1,,,,,
,1.82,,,,,,,,,d,orange,58fdcd2be219d00001ee5aa0,2021-09-27_16h02.26.170,forced_choiceRT_color,2021.2.3,Win32,60.16485169,,,,,,,,9,Slow,short,f,0,2.129,0,1,1,0,1,,,,,
,1.73,,,,,,,,,f,blue,58fdcd2be219d00001ee5aa0,2021-09-27_16h02.26.170,forced_choiceRT_color,2021.2.3,Win32,60.16485169,,,,,,,,9,Slow,short,d,0,2.1616,0,2,2,1,1,,,,,
,0.65,,,,,,,,,f,blue,58fdcd2be219d00001ee5aa0,2021-09-27_16h02.26.170,forced_choiceRT_color,2021.2.3,Win32,60.16485169,,,,,,,,9,Ontime,short,f,1,2.0129,0,3,3,1,1,,,,,
,0.87,,,,,,,,,d,orange,58fdcd2be219d00001ee5aa0,2021-09-27_16h02.26.170,forced_choiceRT_color,2021.2.3,Win32,60.16485169,,,,,,,,9,Ontime,short,d,1,1.9797,1,0,4,0,1,,,,,
,1.62,,,,,,,,,d,orange,58fdcd2be219d00001ee5aa0,2021-09-27_16h02.26.170,forced_choiceRT_color,2021.2.3,Win32,60.16485169,,,,,,,,9,Slow,short,d,1,2.1458,1,1,5,0,1,,,,,
,0.41,,,,,,,,,j,red,58fdcd2be219d00001ee5aa0,2021-09-27_16h02.26.170,forced_choiceRT_color,2021.2.3,Win32,60.16485169,,,,,,,,9,Ontime,short,j,1,1.9972,1,2,6,2,1,,,,,
,0.11,,,,,,,,,j,red,58fdcd2be219d00001ee5aa0,2021-09-27_16h02.26.170,forced_choiceRT_color,2021.2.3,Win32,60.16485169,,,,,,,,9,Ontime,short,j,1,2.0009,1,3,7,2,1,,,,,
,1.5,,,,,,,,,f,blue,58fdcd2be219d00001ee5aa0,2021-09-27_16h02.26.170,forced_choiceRT_color,2021.2.3,Win32,60.16485169,,,,,,,,9,Slow,short,f,1,2.1004,2,0,8,1,1,,,,,
,0.77,,,,,,,,,d,orange,58fdcd2be219d00001ee5aa0,2021-09-27_16h02.26.170,forced_choiceRT_color,2021.2.3,Win32,60.16485169,,,,,,,,9,Ontime,short,d,1,1.9138,2,1,9,0,1,,,,,
,1.09,,,,,,,,,k,purple,58fdcd2be219d00001ee5aa0,2021-09-27_16h02.26.170,forced_choiceRT_color,2021.2.3,Win32,60.16485169,,,,,,,,9,Fast,short,k,1,1.8872,2,2,10,3,1,,,,,
,0.2,,,,,,,,,j,red,58fdcd2be219d00001ee5aa0,2021-09-27_16h02.26.170,forced_choiceRT_color,2021.2.3,Win32,60.16485169,,,,,,,,9,Fast,short,j,1,1.8836,2,3,11,2,1,,,,,
,1.36,,,,,,,,,f,blue,58fdcd2be219d00001ee5aa0,2021-09-27_16h02.26.170,forced_choiceRT_color,2021.2.3,Win32,60.16485169,,,,,,,,9,Slow,short,f,1,2.2,3,0,12,1,1,,,,,
,1.02,,,,,,,,,f,blue,58fdcd2be219d00001ee5aa0,2021-09-27_16h02.26.170,forced_choiceRT_color,2021.2.3,Win32,60.16485169,,,,,,,,9,Fast,short,f,1,1.7962,3,1,13,1,1,,,,,
,0.59,,,,,,,,,f,blue,58fdcd2be219d00001ee5aa0,2021-09-27_16h02.26.170,forced_choiceRT_color,2021.2.3,Win32,60.16485169,,,,,,,,9,Ontime,short,f,1,2.0443,3,2,14,1,1,,,,,
,1.38,,,,,,,,,k,purple,58fdcd2be219d00001ee5aa0,2021-09-27_16h02.26.170,forced_choiceRT_color,2021.2.3,Win32,60.16485169,,,,,,,,9,Ontime,short,j,0,1.9681,3,3,15,3,1,,,,,
,0.57,,,,,,,,,j,red,58fdcd2be219d00001ee5aa0,2021-09-27_16h02.26.170,forced_choiceRT_color,2021.2.3,Win32,60.16485169,,,,,,,,9,Fast,short,k,0,0.0682,4,0,16,2,1,,,,,
,0.5,,,,,,,,,j,red,58fdcd2be219d00001ee5aa0,2021-09-27_16h02.26.170,forced_choiceRT_color,2021.2.3,Win32,60.16485169,,,,,,,,9,Ontime,short,j,1,1.9483,4,1,17,2,1,,,,,
,1.02,,,,,,,,,k,purple,58fdcd2be219d00001ee5aa0,2021-09-27_16h02.26.170,forced_choiceRT_color,2021.2.3,Win32,60.16485169,,,,,,,,9,Ontime,short,k,1,2.099,4,2,18,3,1,,,,,
,1.98,,,,,,,,,d,orange,58fdcd2be219d00001ee5aa0,2021-09-27_16h02.26.170,forced_choiceRT_color,2021.2.3,Win32,60.16485169,,,,,,,,9,Slow,short,d,1,2.4721,4,3,19,0,1,,,,,
,0.61,,,,,,,,,j,red,58fdcd2be219d00001ee5aa0,2021-09-27_16h02.26.170,forced_choiceRT_color,2021.2.3,Win32,60.16485169,,,,,,,,9,Fast,short,j,1,1.8135,5,0,20,2,1,,,,,
,1.43,,,,,,,,,d,orange,58fdcd2be219d00001ee5aa0,2021-09-27_16h02.26.170,forced_choiceRT_color,2021.2.3,Win32,60.16485169,,,,,,,,9,Ontime,short,j,0,1.9023,5,1,21,0,1,,,,,
,0.26,,,,,,,,,k,purple,58fdcd2be219d00001ee5aa0,2021-09-27_16h02.26.170,forced_choiceRT_color,2021.2.3,Win32,60.16485169,,,,,,,,9,Slow,short,k,1,2.1456,5,2,22,3,1,,,,,
,0.19,,,,,,,,,k,purple,58fdcd2be219d00001ee5aa0,2021-09-27_16h02.26.170,forced_choiceRT_color,2021.2.3,Win32,60.16485169,,,,,,,,9,Ontime,short,k,1,1.9204,5,3,23,3,1,,,,,
,0.26,,,,,,,,,f,blue,58fdcd2be219d00001ee5aa0,2021-09-27_16h02.26.170,forced_choiceRT_color,2021.2.3,Win32,60.16485169,,,,,,,,9,Fast,short,f,1,1.8715,6,0,24,1,1,,,,,
,0.91,,,,,,,,,j,red,58fdcd2be219d00001ee5aa0,2021-09-27_16h02.26.170,forced_choiceRT_color,2021.2.3,Win32,60.16485169,,,,,,,,9,Ontime,short,j,1,1.9404,6,1,25,2,1,,,,,
,0.92,,,,,,,,,d,orange,58fdcd2be219d00001ee5aa0,2021-09-27_16h02.26.170,forced_choiceRT_color,2021.2.3,Win32,60.16485169,,,,,,,,9,Ontime,short,d,1,2.0462,6,2,26,0,1,,,,,
,0,,,,,,,,,k,purple,58fdcd2be219d00001ee5aa0,2021-09-27_16h02.26.170,forced_choiceRT_color,2021.2.3,Win32,60.16485169,,,,,,,,9,Ontime,short,k,1,2.0298,6,3,27,3,1,,,,,
,1.97,,,,,,,,,k,purple,58fdcd2be219d00001ee5aa0,2021-09-27_16h02.26.170,forced_choiceRT_color,2021.2.3,Win32,60.16485169,,,,,,,,9,Slow,short,d,0,2.2152,7,0,28,3,1,,,,,
,0.41,,,,,,,,,k,purple,58fdcd2be219d00001ee5aa0,2021-09-27_16h02.26.170,forced_choiceRT_color,2021.2.3,Win32,60.16485169,,,,,,,,9,Ontime,short,k,1,2.0309,7,1,29,3,1,,,,,
,1.88,,,,,,,,,j,red,58fdcd2be219d00001ee5aa0,2021-09-27_16h02.26.170,forced_choiceRT_color,2021.2.3,Win32,60.16485169,,,,,,,,9,Slow,short,f,0,2.4122,7,2,30,2,1,,,,,
,0.33,,,,,,,,,j,red,58fdcd2be219d00001ee5aa0,2021-09-27_16h02.26.170,forced_choiceRT_color,2021.2.3,Win32,60.16485169,,,,,,,,9,Ontime,short,j,1,1.9118,7,3,31,2,1,,,,,
,1.76,,,,,,,,,d,orange,58fdcd2be219d00001ee5aa0,2021-09-27_16h02.26.170,forced_choiceRT_color,2021.2.3,Win32,60.16485169,,,,,,,,9,Slow,short,d,1,2.3954,8,0,32,0,1,,,,,
,1.79,,,,,,,,,k,purple,58fdcd2be219d00001ee5aa0,2021-09-27_16h02.26.170,forced_choiceRT_color,2021.2.3,Win32,60.16485169,,,,,,,,9,Ontime,short,d,0,1.9002,8,1,33,3,1,,,,,
,1.93,,,,,,,,,d,orange,58fdcd2be219d00001ee5aa0,2021-09-27_16h02.26.170,forced_choiceRT_color,2021.2.3,Win32,60.16485169,,,,,,,,9,Ontime,short,d,1,1.9803,8,2,34,0,1,,,,,
,1.56,,,,,,,,,k,purple,58fdcd2be219d00001ee5aa0,2021-09-27_16h02.26.170,forced_choiceRT_color,2021.2.3,Win32,60.16485169,,,,,,,,9,Slow,short,d,0,2.1222,8,3,35,3,1,,,,,
,0.48,,,,,,,,,f,blue,58fdcd2be219d00001ee5aa0,2021-09-27_16h02.26.170,forced_choiceRT_color,2021.2.3,Win32,60.16485169,,,,,,,,9,Slow,short,f,1,2.125,9,0,36,1,1,,,,,
,0.56,,,,,,,,,f,blue,58fdcd2be219d00001ee5aa0,2021-09-27_16h02.26.170,forced_choiceRT_color,2021.2.3,Win32,60.16485169,,,,,,,,9,Ontime,short,f,1,1.9526,9,1,37,1,1,,,,,
,0.42,,,,,,,,,j,red,58fdcd2be219d00001ee5aa0,2021-09-27_16h02.26.170,forced_choiceRT_color,2021.2.3,Win32,60.16485169,,,,,,,,9,Ontime,short,j,1,1.9579,9,2,38,2,1,,,,,
,0.67,,,,,,,,,d,orange,58fdcd2be219d00001ee5aa0,2021-09-27_16h02.26.170,forced_choiceRT_color,2021.2.3,Win32,60.16485169,,,,,,,,9,Ontime,short,d,1,2.0795,9,3,39,0,1,,,,,
,,,,,,,,,,,,58fdcd2be219d00001ee5aa0,2021-09-27_16h02.26.170,forced_choiceRT_color,2021.2.3,Win32,60.16485169,,,,,,,,,,,,,,,,,,,8,0,8,0,1
,0.57,,,,,,,,,k,purple,58fdcd2be219d00001ee5aa0,2021-09-27_16h02.26.170,forced_choiceRT_color,2021.2.3,Win32,60.16485169,,,,,,,,10,Ontime,short,k,1,1.9942,0,0,0,3,1,,,,,
,1.64,,,,,,,,,k,purple,58fdcd2be219d00001ee5aa0,2021-09-27_16h02.26.170,forced_choiceRT_color,2021.2.3,Win32,60.16485169,,,,,,,,10,Ontime,short,j,0,1.9905,0,1,1,3,1,,,,,
,0.04,,,,,,,,,d,orange,58fdcd2be219d00001ee5aa0,2021-09-27_16h02.26.170,forced_choiceRT_color,2021.2.3,Win32,60.16485169,,,,,,,,10,Fast,short,d,1,1.8902,0,2,2,0,1,,,,,
,0.21,,,,,,,,,j,red,58fdcd2be219d00001ee5aa0,2021-09-27_16h02.26.170,forced_choiceRT_color,2021.2.3,Win32,60.16485169,,,,,,,,10,Ontime,short,j,1,2.0069,0,3,3,2,1,,,,,
,1.02,,,,,,,,,j,red,58fdcd2be219d00001ee5aa0,2021-09-27_16h02.26.170,forced_choiceRT_color,2021.2.3,Win32,60.16485169,,,,,,,,10,Slow,short,j,1,2.1466,1,0,4,2,1,,,,,
,1.44,,,,,,,,,d,orange,58fdcd2be219d00001ee5aa0,2021-09-27_16h02.26.170,forced_choiceRT_color,2021.2.3,Win32,60.16485169,,,,,,,,10,Ontime,short,d,1,1.9555,1,1,5,0,1,,,,,
,1.92,,,,,,,,,f,blue,58fdcd2be219d00001ee5aa0,2021-09-27_16h02.26.170,forced_choiceRT_color,2021.2.3,Win32,60.16485169,,,,,,,,10,Ontime,short,d,0,2.0288,1,2,6,1,1,,,,,
,1.2,,,,,,,,,j,red,58fdcd2be219d00001ee5aa0,2021-09-27_16h02.26.170,forced_choiceRT_color,2021.2.3,Win32,60.16485169,,,,,,,,10,Ontime,short,j,1,1.9761,1,3,7,2,1,,,,,
,1.66,,,,,,,,,k,purple,58fdcd2be219d00001ee5aa0,2021-09-27_16h02.26.170,forced_choiceRT_color,2021.2.3,Win32,60.16485169,,,,,,,,10,Slow,short,k,1,2.1961,2,0,8,3,1,,,,,
,1.96,,,,,,,,,k,purple,58fdcd2be219d00001ee5aa0,2021-09-27_16h02.26.170,forced_choiceRT_color,2021.2.3,Win32,60.16485169,,,,,,,,10,Ontime,short,j,0,1.992,2,1,9,3,1,,,,,
,1.08,,,,,,,,,j,red,58fdcd2be219d00001ee5aa0,2021-09-27_16h02.26.170,forced_choiceRT_color,2021.2.3,Win32,60.16485169,,,,,,,,10,Slow,short,j,1,2.1566,2,2,10,2,1,,,,,
,1.78,,,,,,,,,j,red,58fdcd2be219d00001ee5aa0,2021-09-27_16h02.26.170,forced_choiceRT_color,2021.2.3,Win32,60.16485169,,,,,,,,10,Ontime,short,k,0,2.0127,2,3,11,2,1,,,,,
,1.19,,,,,,,,,f,blue,58fdcd2be219d00001ee5aa0,2021-09-27_16h02.26.170,forced_choiceRT_color,2021.2.3,Win32,60.16485169,,,,,,,,10,Ontime,short,f,1,2.0132,3,0,12,1,1,,,,,
,0.1,,,,,,,,,f,blue,58fdcd2be219d00001ee5aa0,2021-09-27_16h02.26.170,forced_choiceRT_color,2021.2.3,Win32,60.16485169,,,,,,,,10,Ontime,short,f,1,2.0238,3,1,13,1,1,,,,,
,0.51,,,,,,,,,f,blue,58fdcd2be219d00001ee5aa0,2021-09-27_16h02.26.170,forced_choiceRT_color,2021.2.3,Win32,60.16485169,,,,,,,,10,Fast,short,f,1,1.7966,3,2,14,1,1,,,,,
,1.17,,,,,,,,,d,orange,58fdcd2be219d00001ee5aa0,2021-09-27_16h02.26.170,forced_choiceRT_color,2021.2.3,Win32,60.16485169,,,,,,,,10,Fast,short,d,1,1.871,3,3,15,0,1,,,,,
,0.08,,,,,,,,,j,red,58fdcd2be219d00001ee5aa0,2021-09-27_16h02.26.170,forced_choiceRT_color,2021.2.3,Win32,60.16485169,,,,,,,,10,Ontime,short,j,1,1.9299,4,0,16,2,1,,,,,
,1.38,,,,,,,,,j,red,58fdcd2be219d00001ee5aa0,2021-09-27_16h02.26.170,forced_choiceRT_color,2021.2.3,Win32,60.16485169,,,,,,,,10,Fast,short,j,1,1.8451,4,1,17,2,1,,,,,
,0.52,,,,,,,,,k,purple,58fdcd2be219d00001ee5aa0,2021-09-27_16h02.26.170,forced_choiceRT_color,2021.2.3,Win32,60.16485169,,,,,,,,10,Ontime,short,k,1,2.0969,4,2,18,3,1,,,,,
,0.34,,,,,,,,,d,orange,58fdcd2be219d00001ee5aa0,2021-09-27_16h02.26.170,forced_choiceRT_color,2021.2.3,Win32,60.16485169,,,,,,,,10,Ontime,short,d,1,2.0793,4,3,19,0,1,,,,,
,0.54,,,,,,,,,k,purple,58fdcd2be219d00001ee5aa0,2021-09-27_16h02.26.170,forced_choiceRT_color,2021.2.3,Win32,60.16485169,,,,,,,,10,Ontime,short,k,1,2.0302,5,0,20,3,1,,,,,
,1.77,,,,,,,,,f,blue,58fdcd2be219d00001ee5aa0,2021-09-27_16h02.26.170,forced_choiceRT_color,2021.2.3,Win32,60.16485169,,,,,,,,10,Slow,short,j,0,2.1122,5,1,21,1,1,,,,,
,1.87,,,,,,,,,k,purple,58fdcd2be219d00001ee5aa0,2021-09-27_16h02.26.170,forced_choiceRT_color,2021.2.3,Win32,60.16485169,,,,,,,,10,Slow,short,j,0,2.2841,5,2,22,3,1,,,,,
,1.17,,,,,,,,,d,orange,58fdcd2be219d00001ee5aa0,2021-09-27_16h02.26.170,forced_choiceRT_color,2021.2.3,Win32,60.16485169,,,,,,,,10,Fast,short,d,1,1.7801,5,3,23,0,1,,,,,
,1.92,,,,,,,,,f,blue,58fdcd2be219d00001ee5aa0,2021-09-27_16h02.26.170,forced_choiceRT_color,2021.2.3,Win32,60.16485169,,,,,,,,10,Slow,short,d,0,2.1281,6,0,24,1,1,,,,,
,0.09,,,,,,,,,k,purple,58fdcd2be219d00001ee5aa0,2021-09-27_16h02.26.170,forced_choiceRT_color,2021.2.3,Win32,60.16485169,,,,,,,,10,Fast,short,k,1,1.8899,6,1,25,3,1,,,,,
,0.07,,,,,,,,,f,blue,58fdcd2be219d00001ee5aa0,2021-09-27_16h02.26.170,forced_choiceRT_color,2021.2.3,Win32,60.16485169,,,,,,,,10,Fast,short,f,1,1.7747,6,2,26,1,1,,,,,
,0.51,,,,,,,,,d,orange,58fdcd2be219d00001ee5aa0,2021-09-27_16h02.26.170,forced_choiceRT_color,2021.2.3,Win32,60.16485169,,,,,,,,10,Slow,short,d,1,2.2536,6,3,27,0,1,,,,,
,0.94,,,,,,,,,k,purple,58fdcd2be219d00001ee5aa0,2021-09-27_16h02.26.170,forced_choiceRT_color,2021.2.3,Win32,60.16485169,,,,,,,,10,Fast,short,k,1,1.7815,7,0,28,3,1,,,,,
,0.31,,,,,,,,,d,orange,58fdcd2be219d00001ee5aa0,2021-09-27_16h02.26.170,forced_choiceRT_color,2021.2.3,Win32,60.16485169,,,,,,,,10,Fast,short,d,1,1.7992,7,1,29,0,1,,,,,
,1.45,,,,,,,,,j,red,58fdcd2be219d00001ee5aa0,2021-09-27_16h02.26.170,forced_choiceRT_color,2021.2.3,Win32,60.16485169,,,,,,,,10,Ontime,short,j,1,2.0312,7,2,30,2,1,,,,,
,0.44,,,,,,,,,d,orange,58fdcd2be219d00001ee5aa0,2021-09-27_16h02.26.170,forced_choiceRT_color,2021.2.3,Win32,60.16485169,,,,,,,,10,Fast,short,d,1,1.8665,7,3,31,0,1,,,,,
,1.98,,,,,,,,,d,orange,58fdcd2be219d00001ee5aa0,2021-09-27_16h02.26.170,forced_choiceRT_color,2021.2.3,Win32,60.16485169,,,,,,,,10,Ontime,short,d,1,2.0919,8,0,32,0,1,,,,,
,0.84,,,,,,,,,d,orange,58fdcd2be219d00001ee5aa0,2021-09-27_16h02.26.170,forced_choiceRT_color,2021.2.3,Win32,60.16485169,,,,,,,,10,Ontime,short,d,1,2.0795,8,1,33,0,1,,,,,
,1.7,,,,,,,,,j,red,58fdcd2be219d00001ee5aa0,2021-09-27_16h02.26.170,forced_choiceRT_color,2021.2.3,Win32,60.16485169,,,,,,,,10,Slow,short,d,0,2.2382,8,2,34,2,1,,,,,
,0.57,,,,,,,,,f,blue,58fdcd2be219d00001ee5aa0,2021-09-27_16h02.26.170,forced_choiceRT_color,2021.2.3,Win32,60.16485169,,,,,,,,10,Ontime,short,f,1,1.9797,8,3,35,1,1,,,,,
,1.11,,,,,,,,,k,purple,58fdcd2be219d00001ee5aa0,2021-09-27_16h02.26.170,forced_choiceRT_color,2021.2.3,Win32,60.16485169,,,,,,,,10,Slow,short,k,1,2.2952,9,0,36,3,1,,,,,
,0.27,,,,,,,,,f,blue,58fdcd2be219d00001ee5aa0,2021-09-27_16h02.26.170,forced_choiceRT_color,2021.2.3,Win32,60.16485169,,,,,,,,10,Fast,short,f,1,1.8803,9,1,37,1,1,,,,,
,0.62,,,,,,,,,f,blue,58fdcd2be219d00001ee5aa0,2021-09-27_16h02.26.170,forced_choiceRT_color,2021.2.3,Win32,60.16485169,,,,,,,,10,Slow,short,f,1,2.1765,9,2,38,1,1,,,,,
,0.78,,,,,,,,,j,red,58fdcd2be219d00001ee5aa0,2021-09-27_16h02.26.170,forced_choiceRT_color,2021.2.3,Win32,60.16485169,,,,,,,,10,Ontime,short,j,1,2.0391,9,3,39,2,1,,,,,
,,,,,,,,,,,,58fdcd2be219d00001ee5aa0,2021-09-27_16h02.26.170,forced_choiceRT_color,2021.2.3,Win32,60.16485169,,,,,,,,,,,,,,,,,,,9,0,9,0,1
