IP_Addresss,target_onset,trial_resp_sp.keys,trial_resp_sp.corr,trial_resp_sp.rt,trials_train_loop.thisRepN,trials_train_loop.thisTrialN,trials_train_loop.thisN,trials_train_loop.thisIndex,trials_train_loop.ran,correct_key,color,participant,date,expName,psychopyVersion,OS,frameRate,trial_resp_timing.keys,trial_resp_timing.rt,trials_train_timing.thisRepN,trials_train_timing.thisTrialN,trials_train_timing.thisN,trials_train_timing.thisIndex,trials_train_timing.ran,block_id,ontime,feedback_cond,forcedRT_resp.keys,forcedRT_resp.corr,forcedRT_resp.rt,trials.thisRepN,trials.thisTrialN,trials.thisN,trials.thisIndex,trials.ran,blocks.thisRepN,blocks.thisTrialN,blocks.thisN,blocks.thisIndex,blocks.ran
73.64.187.218,0,j,1,0.8187,0,0,0,2,1,j,red,5a33d736bf4d770001e6097a,2021-09-28_13h04.37.204,forced_choiceRT_color,2021.2.3,Win32,60.04563468,,,,,,,,,,,,,,,,,,,,,,,
,0,k,1,0.7068,0,1,1,3,1,k,purple,5a33d736bf4d770001e6097a,2021-09-28_13h04.37.204,forced_choiceRT_color,2021.2.3,Win32,60.04563468,,,,,,,,,,,,,,,,,,,,,,,
,0,d,1,0.5877,0,2,2,0,1,d,orange,5a33d736bf4d770001e6097a,2021-09-28_13h04.37.204,forced_choiceRT_color,2021.2.3,Win32,60.04563468,,,,,,,,,,,,,,,,,,,,,,,
,0,j,1,0.7199,0,3,3,2,1,j,red,5a33d736bf4d770001e6097a,2021-09-28_13h04.37.204,forced_choiceRT_color,2021.2.3,Win32,60.04563468,,,,,,,,,,,,,,,,,,,,,,,
,0,k,1,0.6229,1,0,4,3,1,k,purple,5a33d736bf4d770001e6097a,2021-09-28_13h04.37.204,forced_choiceRT_color,2021.2.3,Win32,60.04563468,,,,,,,,,,,,,,,,,,,,,,,
,0,f,1,0.6104,1,1,5,1,1,f,blue,5a33d736bf4d770001e6097a,2021-09-28_13h04.37.204,forced_choiceRT_color,2021.2.3,Win32,60.04563468,,,,,,,,,,,,,,,,,,,,,,,
,0,d,0,0.6619,1,2,6,2,1,j,red,5a33d736bf4d770001e6097a,2021-09-28_13h04.37.204,forced_choiceRT_color,2021.2.3,Win32,60.04563468,,,,,,,,,,,,,,,,,,,,,,,
,0,d,1,0.7864,1,3,7,0,1,d,orange,5a33d736bf4d770001e6097a,2021-09-28_13h04.37.204,forced_choiceRT_color,2021.2.3,Win32,60.04563468,,,,,,,,,,,,,,,,,,,,,,,
,0,d,1,0.5142,2,0,8,0,1,d,orange,5a33d736bf4d770001e6097a,2021-09-28_13h04.37.204,forced_choiceRT_color,2021.2.3,Win32,60.04563468,,,,,,,,,,,,,,,,,,,,,,,
,0,k,1,0.7613,2,1,9,3,1,k,purple,5a33d736bf4d770001e6097a,2021-09-28_13h04.37.204,forced_choiceRT_color,2021.2.3,Win32,60.04563468,,,,,,,,,,,,,,,,,,,,,,,
,0,k,1,0.4991,2,2,10,3,1,k,purple,5a33d736bf4d770001e6097a,2021-09-28_13h04.37.204,forced_choiceRT_color,2021.2.3,Win32,60.04563468,,,,,,,,,,,,,,,,,,,,,,,
,0,k,1,0.498,2,3,11,3,1,k,purple,5a33d736bf4d770001e6097a,2021-09-28_13h04.37.204,forced_choiceRT_color,2021.2.3,Win32,60.04563468,,,,,,,,,,,,,,,,,,,,,,,
,0,j,1,0.5704,3,0,12,2,1,j,red,5a33d736bf4d770001e6097a,2021-09-28_13h04.37.204,forced_choiceRT_color,2021.2.3,Win32,60.04563468,,,,,,,,,,,,,,,,,,,,,,,
,0,k,1,0.7336,3,1,13,3,1,k,purple,5a33d736bf4d770001e6097a,2021-09-28_13h04.37.204,forced_choiceRT_color,2021.2.3,Win32,60.04563468,,,,,,,,,,,,,,,,,,,,,,,
,0,f,1,0.7838,3,2,14,1,1,f,blue,5a33d736bf4d770001e6097a,2021-09-28_13h04.37.204,forced_choiceRT_color,2021.2.3,Win32,60.04563468,,,,,,,,,,,,,,,,,,,,,,,
,0,k,1,0.7708,3,3,15,3,1,k,purple,5a33d736bf4d770001e6097a,2021-09-28_13h04.37.204,forced_choiceRT_color,2021.2.3,Win32,60.04563468,,,,,,,,,,,,,,,,,,,,,,,
,0,k,1,0.4506,4,0,16,3,1,k,purple,5a33d736bf4d770001e6097a,2021-09-28_13h04.37.204,forced_choiceRT_color,2021.2.3,Win32,60.04563468,,,,,,,,,,,,,,,,,,,,,,,
,0,f,1,0.685,4,1,17,1,1,f,blue,5a33d736bf4d770001e6097a,2021-09-28_13h04.37.204,forced_choiceRT_color,2021.2.3,Win32,60.04563468,,,,,,,,,,,,,,,,,,,,,,,
,0,j,1,0.7147,4,2,18,2,1,j,red,5a33d736bf4d770001e6097a,2021-09-28_13h04.37.204,forced_choiceRT_color,2021.2.3,Win32,60.04563468,,,,,,,,,,,,,,,,,,,,,,,
,0,d,1,0.6223,4,3,19,0,1,d,orange,5a33d736bf4d770001e6097a,2021-09-28_13h04.37.204,forced_choiceRT_color,2021.2.3,Win32,60.04563468,,,,,,,,,,,,,,,,,,,,,,,
,0,j,1,0.6546,5,0,20,2,1,j,red,5a33d736bf4d770001e6097a,2021-09-28_13h04.37.204,forced_choiceRT_color,2021.2.3,Win32,60.04563468,,,,,,,,,,,,,,,,,,,,,,,
,0,f,1,0.8164,5,1,21,1,1,f,blue,5a33d736bf4d770001e6097a,2021-09-28_13h04.37.204,forced_choiceRT_color,2021.2.3,Win32,60.04563468,,,,,,,,,,,,,,,,,,,,,,,
,0,f,1,0.5641,5,2,22,1,1,f,blue,5a33d736bf4d770001e6097a,2021-09-28_13h04.37.204,forced_choiceRT_color,2021.2.3,Win32,60.04563468,,,,,,,,,,,,,,,,,,,,,,,
,0,f,1,0.4473,5,3,23,1,1,f,blue,5a33d736bf4d770001e6097a,2021-09-28_13h04.37.204,forced_choiceRT_color,2021.2.3,Win32,60.04563468,,,,,,,,,,,,,,,,,,,,,,,
,0,k,1,0.6533,6,0,24,3,1,k,purple,5a33d736bf4d770001e6097a,2021-09-28_13h04.37.204,forced_choiceRT_color,2021.2.3,Win32,60.04563468,,,,,,,,,,,,,,,,,,,,,,,
,0,f,1,0.6271,6,1,25,1,1,f,blue,5a33d736bf4d770001e6097a,2021-09-28_13h04.37.204,forced_choiceRT_color,2021.2.3,Win32,60.04563468,,,,,,,,,,,,,,,,,,,,,,,
,0,j,1,1.1131,6,2,26,2,1,j,red,5a33d736bf4d770001e6097a,2021-09-28_13h04.37.204,forced_choiceRT_color,2021.2.3,Win32,60.04563468,,,,,,,,,,,,,,,,,,,,,,,
,0,k,1,0.6293,6,3,27,3,1,k,purple,5a33d736bf4d770001e6097a,2021-09-28_13h04.37.204,forced_choiceRT_color,2021.2.3,Win32,60.04563468,,,,,,,,,,,,,,,,,,,,,,,
,0,j,1,0.6463,7,0,28,2,1,j,red,5a33d736bf4d770001e6097a,2021-09-28_13h04.37.204,forced_choiceRT_color,2021.2.3,Win32,60.04563468,,,,,,,,,,,,,,,,,,,,,,,
,0,f,1,0.684,7,1,29,1,1,f,blue,5a33d736bf4d770001e6097a,2021-09-28_13h04.37.204,forced_choiceRT_color,2021.2.3,Win32,60.04563468,,,,,,,,,,,,,,,,,,,,,,,
,0,d,1,0.5715,7,2,30,0,1,d,orange,5a33d736bf4d770001e6097a,2021-09-28_13h04.37.204,forced_choiceRT_color,2021.2.3,Win32,60.04563468,,,,,,,,,,,,,,,,,,,,,,,
,0,j,1,0.6462,7,3,31,2,1,j,red,5a33d736bf4d770001e6097a,2021-09-28_13h04.37.204,forced_choiceRT_color,2021.2.3,Win32,60.04563468,,,,,,,,,,,,,,,,,,,,,,,
,0,f,1,1.0874,8,0,32,1,1,f,blue,5a33d736bf4d770001e6097a,2021-09-28_13h04.37.204,forced_choiceRT_color,2021.2.3,Win32,60.04563468,,,,,,,,,,,,,,,,,,,,,,,
,0,f,1,0.4806,8,1,33,1,1,f,blue,5a33d736bf4d770001e6097a,2021-09-28_13h04.37.204,forced_choiceRT_color,2021.2.3,Win32,60.04563468,,,,,,,,,,,,,,,,,,,,,,,
,0,k,1,0.6307,8,2,34,3,1,k,purple,5a33d736bf4d770001e6097a,2021-09-28_13h04.37.204,forced_choiceRT_color,2021.2.3,Win32,60.04563468,,,,,,,,,,,,,,,,,,,,,,,
,0,d,1,0.6188,8,3,35,0,1,d,orange,5a33d736bf4d770001e6097a,2021-09-28_13h04.37.204,forced_choiceRT_color,2021.2.3,Win32,60.04563468,,,,,,,,,,,,,,,,,,,,,,,
,0,j,0,0.6149,9,0,36,3,1,k,purple,5a33d736bf4d770001e6097a,2021-09-28_13h04.37.204,forced_choiceRT_color,2021.2.3,Win32,60.04563468,,,,,,,,,,,,,,,,,,,,,,,
,0,k,1,0.647,9,1,37,3,1,k,purple,5a33d736bf4d770001e6097a,2021-09-28_13h04.37.204,forced_choiceRT_color,2021.2.3,Win32,60.04563468,,,,,,,,,,,,,,,,,,,,,,,
,0,j,1,0.5275,9,2,38,2,1,j,red,5a33d736bf4d770001e6097a,2021-09-28_13h04.37.204,forced_choiceRT_color,2021.2.3,Win32,60.04563468,,,,,,,,,,,,,,,,,,,,,,,
,0,j,1,0.6078,9,3,39,2,1,j,red,5a33d736bf4d770001e6097a,2021-09-28_13h04.37.204,forced_choiceRT_color,2021.2.3,Win32,60.04563468,,,,,,,,,,,,,,,,,,,,,,,
,0,d,1,0.695,10,0,40,0,1,d,orange,5a33d736bf4d770001e6097a,2021-09-28_13h04.37.204,forced_choiceRT_color,2021.2.3,Win32,60.04563468,,,,,,,,,,,,,,,,,,,,,,,
,0,k,1,0.6056,10,1,41,3,1,k,purple,5a33d736bf4d770001e6097a,2021-09-28_13h04.37.204,forced_choiceRT_color,2021.2.3,Win32,60.04563468,,,,,,,,,,,,,,,,,,,,,,,
,0,d,1,0.7628,10,2,42,0,1,d,orange,5a33d736bf4d770001e6097a,2021-09-28_13h04.37.204,forced_choiceRT_color,2021.2.3,Win32,60.04563468,,,,,,,,,,,,,,,,,,,,,,,
,0,d,1,0.4572,10,3,43,0,1,d,orange,5a33d736bf4d770001e6097a,2021-09-28_13h04.37.204,forced_choiceRT_color,2021.2.3,Win32,60.04563468,,,,,,,,,,,,,,,,,,,,,,,
,0,f,1,0.5386,11,0,44,1,1,f,blue,5a33d736bf4d770001e6097a,2021-09-28_13h04.37.204,forced_choiceRT_color,2021.2.3,Win32,60.04563468,,,,,,,,,,,,,,,,,,,,,,,
,0,d,1,0.6238,11,1,45,0,1,d,orange,5a33d736bf4d770001e6097a,2021-09-28_13h04.37.204,forced_choiceRT_color,2021.2.3,Win32,60.04563468,,,,,,,,,,,,,,,,,,,,,,,
,0,f,1,0.5202,11,2,46,1,1,f,blue,5a33d736bf4d770001e6097a,2021-09-28_13h04.37.204,forced_choiceRT_color,2021.2.3,Win32,60.04563468,,,,,,,,,,,,,,,,,,,,,,,
,0,f,1,0.6308,11,3,47,1,1,f,blue,5a33d736bf4d770001e6097a,2021-09-28_13h04.37.204,forced_choiceRT_color,2021.2.3,Win32,60.04563468,,,,,,,,,,,,,,,,,,,,,,,
,0,d,1,0.5159,12,0,48,0,1,d,orange,5a33d736bf4d770001e6097a,2021-09-28_13h04.37.204,forced_choiceRT_color,2021.2.3,Win32,60.04563468,,,,,,,,,,,,,,,,,,,,,,,
,0,d,1,0.3808,12,1,49,0,1,d,orange,5a33d736bf4d770001e6097a,2021-09-28_13h04.37.204,forced_choiceRT_color,2021.2.3,Win32,60.04563468,,,,,,,,,,,,,,,,,,,,,,,
,0,j,1,0.5478,12,2,50,2,1,j,red,5a33d736bf4d770001e6097a,2021-09-28_13h04.37.204,forced_choiceRT_color,2021.2.3,Win32,60.04563468,,,,,,,,,,,,,,,,,,,,,,,
,0,j,1,0.4154,12,3,51,2,1,j,red,5a33d736bf4d770001e6097a,2021-09-28_13h04.37.204,forced_choiceRT_color,2021.2.3,Win32,60.04563468,,,,,,,,,,,,,,,,,,,,,,,
,0,d,0,0.6695,13,0,52,1,1,f,blue,5a33d736bf4d770001e6097a,2021-09-28_13h04.37.204,forced_choiceRT_color,2021.2.3,Win32,60.04563468,,,,,,,,,,,,,,,,,,,,,,,
,0,d,1,0.6899,13,1,53,0,1,d,orange,5a33d736bf4d770001e6097a,2021-09-28_13h04.37.204,forced_choiceRT_color,2021.2.3,Win32,60.04563468,,,,,,,,,,,,,,,,,,,,,,,
,0,d,1,0.6024,13,2,54,0,1,d,orange,5a33d736bf4d770001e6097a,2021-09-28_13h04.37.204,forced_choiceRT_color,2021.2.3,Win32,60.04563468,,,,,,,,,,,,,,,,,,,,,,,
,0,j,1,0.6909,13,3,55,2,1,j,red,5a33d736bf4d770001e6097a,2021-09-28_13h04.37.204,forced_choiceRT_color,2021.2.3,Win32,60.04563468,,,,,,,,,,,,,,,,,,,,,,,
,0,j,1,0.4643,14,0,56,2,1,j,red,5a33d736bf4d770001e6097a,2021-09-28_13h04.37.204,forced_choiceRT_color,2021.2.3,Win32,60.04563468,,,,,,,,,,,,,,,,,,,,,,,
,0,f,1,0.6811,14,1,57,1,1,f,blue,5a33d736bf4d770001e6097a,2021-09-28_13h04.37.204,forced_choiceRT_color,2021.2.3,Win32,60.04563468,,,,,,,,,,,,,,,,,,,,,,,
,0,k,1,0.5897,14,2,58,3,1,k,purple,5a33d736bf4d770001e6097a,2021-09-28_13h04.37.204,forced_choiceRT_color,2021.2.3,Win32,60.04563468,,,,,,,,,,,,,,,,,,,,,,,
,0,d,1,0.6541,14,3,59,0,1,d,orange,5a33d736bf4d770001e6097a,2021-09-28_13h04.37.204,forced_choiceRT_color,2021.2.3,Win32,60.04563468,,,,,,,,,,,,,,,,,,,,,,,
,,,,,,,,,,,,5a33d736bf4d770001e6097a,2021-09-28_13h04.37.204,forced_choiceRT_color,2021.2.3,Win32,60.04563468,j,2.2118,0,0,0,0,1,,,,,,,,,,,,,,,,
,,,,,,,,,,,,5a33d736bf4d770001e6097a,2021-09-28_13h04.37.204,forced_choiceRT_color,2021.2.3,Win32,60.04563468,j,2.099,1,0,1,0,1,,,,,,,,,,,,,,,,
,,,,,,,,,,,,5a33d736bf4d770001e6097a,2021-09-28_13h04.37.204,forced_choiceRT_color,2021.2.3,Win32,60.04563468,j,2.0911,2,0,2,0,1,,,,,,,,,,,,,,,,
,,,,,,,,,,,,5a33d736bf4d770001e6097a,2021-09-28_13h04.37.204,forced_choiceRT_color,2021.2.3,Win32,60.04563468,k,2.167,3,0,3,0,1,,,,,,,,,,,,,,,,
,,,,,,,,,,,,5a33d736bf4d770001e6097a,2021-09-28_13h04.37.204,forced_choiceRT_color,2021.2.3,Win32,60.04563468,k,2.02,4,0,4,0,1,,,,,,,,,,,,,,,,
,,,,,,,,,,,,5a33d736bf4d770001e6097a,2021-09-28_13h04.37.204,forced_choiceRT_color,2021.2.3,Win32,60.04563468,f,1.9746,5,0,5,0,1,,,,,,,,,,,,,,,,
,,,,,,,,,,,,5a33d736bf4d770001e6097a,2021-09-28_13h04.37.204,forced_choiceRT_color,2021.2.3,Win32,60.04563468,f,2.0757,6,0,6,0,1,,,,,,,,,,,,,,,,
,,,,,,,,,,,,5a33d736bf4d770001e6097a,2021-09-28_13h04.37.204,forced_choiceRT_color,2021.2.3,Win32,60.04563468,d,2.1202,7,0,7,0,1,,,,,,,,,,,,,,,,
,,,,,,,,,,,,5a33d736bf4d770001e6097a,2021-09-28_13h04.37.204,forced_choiceRT_color,2021.2.3,Win32,60.04563468,k,1.9429,8,0,8,0,1,,,,,,,,,,,,,,,,
,,,,,,,,,,,,5a33d736bf4d770001e6097a,2021-09-28_13h04.37.204,forced_choiceRT_color,2021.2.3,Win32,60.04563468,d,1.0957,9,0,9,0,1,,,,,,,,,,,,,,,,
,,,,,,,,,,,,5a33d736bf4d770001e6097a,2021-09-28_13h04.37.204,forced_choiceRT_color,2021.2.3,Win32,60.04563468,j,2.1107,10,0,10,0,1,,,,,,,,,,,,,,,,
,,,,,,,,,,,,5a33d736bf4d770001e6097a,2021-09-28_13h04.37.204,forced_choiceRT_color,2021.2.3,Win32,60.04563468,k,2.0522,11,0,11,0,1,,,,,,,,,,,,,,,,
,,,,,,,,,,,,5a33d736bf4d770001e6097a,2021-09-28_13h04.37.204,forced_choiceRT_color,2021.2.3,Win32,60.04563468,j,2.128,12,0,12,0,1,,,,,,,,,,,,,,,,
,,,,,,,,,,,,5a33d736bf4d770001e6097a,2021-09-28_13h04.37.204,forced_choiceRT_color,2021.2.3,Win32,60.04563468,j,2.0612,13,0,13,0,1,,,,,,,,,,,,,,,,
,,,,,,,,,,,,5a33d736bf4d770001e6097a,2021-09-28_13h04.37.204,forced_choiceRT_color,2021.2.3,Win32,60.04563468,k,1.9618,14,0,14,0,1,,,,,,,,,,,,,,,,
,,,,,,,,,,,,5a33d736bf4d770001e6097a,2021-09-28_13h04.37.204,forced_choiceRT_color,2021.2.3,Win32,60.04563468,k,1.9009,15,0,15,0,1,,,,,,,,,,,,,,,,
,,,,,,,,,,,,5a33d736bf4d770001e6097a,2021-09-28_13h04.37.204,forced_choiceRT_color,2021.2.3,Win32,60.04563468,j,1.7941,16,0,16,0,1,,,,,,,,,,,,,,,,
,,,,,,,,,,,,5a33d736bf4d770001e6097a,2021-09-28_13h04.37.204,forced_choiceRT_color,2021.2.3,Win32,60.04563468,f,1.8167,17,0,17,0,1,,,,,,,,,,,,,,,,
,,,,,,,,,,,,5a33d736bf4d770001e6097a,2021-09-28_13h04.37.204,forced_choiceRT_color,2021.2.3,Win32,60.04563468,f,2.0238,18,0,18,0,1,,,,,,,,,,,,,,,,
,,,,,,,,,,,,5a33d736bf4d770001e6097a,2021-09-28_13h04.37.204,forced_choiceRT_color,2021.2.3,Win32,60.04563468,d,1.9003,19,0,19,0,1,,,,,,,,,,,,,,,,
,1.41,,,,,,,,,d,orange,5a33d736bf4d770001e6097a,2021-09-28_13h04.37.204,forced_choiceRT_color,2021.2.3,Win32,60.04563468,,,,,,,,1,Ontime,long,k,0,1.9364,0,0,0,0,1,,,,,
,0.05,,,,,,,,,f,blue,5a33d736bf4d770001e6097a,2021-09-28_13h04.37.204,forced_choiceRT_color,2021.2.3,Win32,60.04563468,,,,,,,,1,Ontime,long,f,1,2.0627,0,1,1,1,1,,,,,
,1.6,,,,,,,,,d,orange,5a33d736bf4d770001e6097a,2021-09-28_13h04.37.204,forced_choiceRT_color,2021.2.3,Win32,60.04563468,,,,,,,,1,Ontime,long,j,0,2.0021,0,2,2,0,1,,,,,
,1.45,,,,,,,,,k,purple,5a33d736bf4d770001e6097a,2021-09-28_13h04.37.204,forced_choiceRT_color,2021.2.3,Win32,60.04563468,,,,,,,,1,Ontime,long,k,1,1.962,0,3,3,3,1,,,,,
,1.28,,,,,,,,,j,red,5a33d736bf4d770001e6097a,2021-09-28_13h04.37.204,forced_choiceRT_color,2021.2.3,Win32,60.04563468,,,,,,,,1,Fast,long,j,1,1.7681,1,0,4,2,1,,,,,
,1.56,,,,,,,,,k,purple,5a33d736bf4d770001e6097a,2021-09-28_13h04.37.204,forced_choiceRT_color,2021.2.3,Win32,60.04563468,,,,,,,,1,Ontime,long,k,1,2.0703,1,1,5,3,1,,,,,
,1.4,,,,,,,,,d,orange,5a33d736bf4d770001e6097a,2021-09-28_13h04.37.204,forced_choiceRT_color,2021.2.3,Win32,60.04563468,,,,,,,,1,Ontime,long,d,1,1.9131,1,2,6,0,1,,,,,
,0.73,,,,,,,,,j,red,5a33d736bf4d770001e6097a,2021-09-28_13h04.37.204,forced_choiceRT_color,2021.2.3,Win32,60.04563468,,,,,,,,1,Fast,long,j,1,1.5701,1,3,7,2,1,,,,,
,0.71,,,,,,,,,f,blue,5a33d736bf4d770001e6097a,2021-09-28_13h04.37.204,forced_choiceRT_color,2021.2.3,Win32,60.04563468,,,,,,,,1,Fast,long,d,0,1.711,2,0,8,1,1,,,,,
,0.47,,,,,,,,,d,orange,5a33d736bf4d770001e6097a,2021-09-28_13h04.37.204,forced_choiceRT_color,2021.2.3,Win32,60.04563468,,,,,,,,1,Ontime,long,d,1,1.9129,2,1,9,0,1,,,,,
,1.25,,,,,,,,,f,blue,5a33d736bf4d770001e6097a,2021-09-28_13h04.37.204,forced_choiceRT_color,2021.2.3,Win32,60.04563468,,,,,,,,1,Ontime,long,f,1,1.9495,2,2,10,1,1,,,,,
,1.08,,,,,,,,,f,blue,5a33d736bf4d770001e6097a,2021-09-28_13h04.37.204,forced_choiceRT_color,2021.2.3,Win32,60.04563468,,,,,,,,1,Fast,long,f,1,1.7454,2,3,11,1,1,,,,,
,1.77,,,,,,,,,j,red,5a33d736bf4d770001e6097a,2021-09-28_13h04.37.204,forced_choiceRT_color,2021.2.3,Win32,60.04563468,,,,,,,,1,Slow,long,j,1,2.2471,3,0,12,2,1,,,,,
,1.93,,,,,,,,,d,orange,5a33d736bf4d770001e6097a,2021-09-28_13h04.37.204,forced_choiceRT_color,2021.2.3,Win32,60.04563468,,,,,,,,1,Slow,long,j,0,2.3953,3,1,13,0,1,,,,,
,0.04,,,,,,,,,k,purple,5a33d736bf4d770001e6097a,2021-09-28_13h04.37.204,forced_choiceRT_color,2021.2.3,Win32,60.04563468,,,,,,,,1,Ontime,long,k,1,1.9622,3,2,14,3,1,,,,,
,0.15,,,,,,,,,k,purple,5a33d736bf4d770001e6097a,2021-09-28_13h04.37.204,forced_choiceRT_color,2021.2.3,Win32,60.04563468,,,,,,,,1,Fast,long,k,1,1.8691,3,3,15,3,1,,,,,
,1.62,,,,,,,,,d,orange,5a33d736bf4d770001e6097a,2021-09-28_13h04.37.204,forced_choiceRT_color,2021.2.3,Win32,60.04563468,,,,,,,,1,Slow,long,d,1,2.1477,4,0,16,0,1,,,,,
,1.26,,,,,,,,,f,blue,5a33d736bf4d770001e6097a,2021-09-28_13h04.37.204,forced_choiceRT_color,2021.2.3,Win32,60.04563468,,,,,,,,1,Slow,long,f,1,2.1053,4,1,17,1,1,,,,,
,0.27,,,,,,,,,d,orange,5a33d736bf4d770001e6097a,2021-09-28_13h04.37.204,forced_choiceRT_color,2021.2.3,Win32,60.04563468,,,,,,,,1,Ontime,long,d,1,1.988,4,2,18,0,1,,,,,
,0.08,,,,,,,,,k,purple,5a33d736bf4d770001e6097a,2021-09-28_13h04.37.204,forced_choiceRT_color,2021.2.3,Win32,60.04563468,,,,,,,,1,Ontime,long,k,1,1.9364,4,3,19,3,1,,,,,
,1.24,,,,,,,,,k,purple,5a33d736bf4d770001e6097a,2021-09-28_13h04.37.204,forced_choiceRT_color,2021.2.3,Win32,60.04563468,,,,,,,,1,Ontime,long,k,1,1.9295,5,0,20,3,1,,,,,
,0.41,,,,,,,,,d,orange,5a33d736bf4d770001e6097a,2021-09-28_13h04.37.204,forced_choiceRT_color,2021.2.3,Win32,60.04563468,,,,,,,,1,Ontime,long,d,1,1.9508,5,1,21,0,1,,,,,
,1.72,,,,,,,,,f,blue,5a33d736bf4d770001e6097a,2021-09-28_13h04.37.204,forced_choiceRT_color,2021.2.3,Win32,60.04563468,,,,,,,,1,Slow,long,f,1,2.1861,5,2,22,1,1,,,,,
,0.02,,,,,,,,,d,orange,5a33d736bf4d770001e6097a,2021-09-28_13h04.37.204,forced_choiceRT_color,2021.2.3,Win32,60.04563468,,,,,,,,1,Ontime,long,d,1,1.9144,5,3,23,0,1,,,,,
,1.58,,,,,,,,,f,blue,5a33d736bf4d770001e6097a,2021-09-28_13h04.37.204,forced_choiceRT_color,2021.2.3,Win32,60.04563468,,,,,,,,1,Slow,long,j,0,2.1949,6,0,24,1,1,,,,,
,0.39,,,,,,,,,j,red,5a33d736bf4d770001e6097a,2021-09-28_13h04.37.204,forced_choiceRT_color,2021.2.3,Win32,60.04563468,,,,,,,,1,Ontime,long,j,1,2.006,6,1,25,2,1,,,,,
,1.91,,,,,,,,,j,red,5a33d736bf4d770001e6097a,2021-09-28_13h04.37.204,forced_choiceRT_color,2021.2.3,Win32,60.04563468,,,,,,,,1,Slow,long,j,1,2.2215,6,2,26,2,1,,,,,
,0.58,,,,,,,,,f,blue,5a33d736bf4d770001e6097a,2021-09-28_13h04.37.204,forced_choiceRT_color,2021.2.3,Win32,60.04563468,,,,,,,,1,Fast,long,d,0,0.0296,6,3,27,1,1,,,,,
,1.17,,,,,,,,,j,red,5a33d736bf4d770001e6097a,2021-09-28_13h04.37.204,forced_choiceRT_color,2021.2.3,Win32,60.04563468,,,,,,,,1,Ontime,long,j,1,2.0696,7,0,28,2,1,,,,,
,0.99,,,,,,,,,j,red,5a33d736bf4d770001e6097a,2021-09-28_13h04.37.204,forced_choiceRT_color,2021.2.3,Win32,60.04563468,,,,,,,,1,Ontime,long,j,1,2.0482,7,1,29,2,1,,,,,
,1.57,,,,,,,,,k,purple,5a33d736bf4d770001e6097a,2021-09-28_13h04.37.204,forced_choiceRT_color,2021.2.3,Win32,60.04563468,,,,,,,,1,Ontime,long,k,1,2.0489,7,2,30,3,1,,,,,
,0.82,,,,,,,,,f,blue,5a33d736bf4d770001e6097a,2021-09-28_13h04.37.204,forced_choiceRT_color,2021.2.3,Win32,60.04563468,,,,,,,,1,Ontime,long,f,1,2.0295,7,3,31,1,1,,,,,
,0.1,,,,,,,,,k,purple,5a33d736bf4d770001e6097a,2021-09-28_13h04.37.204,forced_choiceRT_color,2021.2.3,Win32,60.04563468,,,,,,,,1,Ontime,long,k,1,1.9832,8,0,32,3,1,,,,,
,0.79,,,,,,,,,f,blue,5a33d736bf4d770001e6097a,2021-09-28_13h04.37.204,forced_choiceRT_color,2021.2.3,Win32,60.04563468,,,,,,,,1,Ontime,long,f,1,2.0067,8,1,33,1,1,,,,,
,0.08,,,,,,,,,k,purple,5a33d736bf4d770001e6097a,2021-09-28_13h04.37.204,forced_choiceRT_color,2021.2.3,Win32,60.04563468,,,,,,,,1,Ontime,long,k,1,1.9344,8,2,34,3,1,,,,,
,0.42,,,,,,,,,j,red,5a33d736bf4d770001e6097a,2021-09-28_13h04.37.204,forced_choiceRT_color,2021.2.3,Win32,60.04563468,,,,,,,,1,Ontime,long,j,1,1.9882,8,3,35,2,1,,,,,
,1.17,,,,,,,,,j,red,5a33d736bf4d770001e6097a,2021-09-28_13h04.37.204,forced_choiceRT_color,2021.2.3,Win32,60.04563468,,,,,,,,1,Fast,long,j,1,1.841,9,0,36,2,1,,,,,
,0.21,,,,,,,,,k,purple,5a33d736bf4d770001e6097a,2021-09-28_13h04.37.204,forced_choiceRT_color,2021.2.3,Win32,60.04563468,,,,,,,,1,Ontime,long,k,1,2.0136,9,1,37,3,1,,,,,
,1.02,,,,,,,,,j,red,5a33d736bf4d770001e6097a,2021-09-28_13h04.37.204,forced_choiceRT_color,2021.2.3,Win32,60.04563468,,,,,,,,1,Slow,long,j,1,2.2463,9,2,38,2,1,,,,,
,1.05,,,,,,,,,d,orange,5a33d736bf4d770001e6097a,2021-09-28_13h04.37.204,forced_choiceRT_color,2021.2.3,Win32,60.04563468,,,,,,,,1,Slow,long,d,1,2.1363,9,3,39,0,1,,,,,
,,,,,,,,,,,,5a33d736bf4d770001e6097a,2021-09-28_13h04.37.204,forced_choiceRT_color,2021.2.3,Win32,60.04563468,,,,,,,,,,,,,,,,,,,0,0,0,0,1
,0.79,,,,,,,,,f,blue,5a33d736bf4d770001e6097a,2021-09-28_13h04.37.204,forced_choiceRT_color,2021.2.3,Win32,60.04563468,,,,,,,,2,Slow,long,f,1,2.3553,0,0,0,1,1,,,,,
,1.01,,,,,,,,,k,purple,5a33d736bf4d770001e6097a,2021-09-28_13h04.37.204,forced_choiceRT_color,2021.2.3,Win32,60.04563468,,,,,,,,2,Ontime,long,k,1,2.0044,0,1,1,3,1,,,,,
,0.06,,,,,,,,,d,orange,5a33d736bf4d770001e6097a,2021-09-28_13h04.37.204,forced_choiceRT_color,2021.2.3,Win32,60.04563468,,,,,,,,2,Fast,long,d,1,1.8028,0,2,2,0,1,,,,,
,1.28,,,,,,,,,j,red,5a33d736bf4d770001e6097a,2021-09-28_13h04.37.204,forced_choiceRT_color,2021.2.3,Win32,60.04563468,,,,,,,,2,Ontime,long,j,1,2.0128,0,3,3,2,1,,,,,
,0.53,,,,,,,,,f,blue,5a33d736bf4d770001e6097a,2021-09-28_13h04.37.204,forced_choiceRT_color,2021.2.3,Win32,60.04563468,,,,,,,,2,Ontime,long,f,1,1.9496,1,0,4,1,1,,,,,
,0.97,,,,,,,,,k,purple,5a33d736bf4d770001e6097a,2021-09-28_13h04.37.204,forced_choiceRT_color,2021.2.3,Win32,60.04563468,,,,,,,,2,Ontime,long,k,1,1.9623,1,1,5,3,1,,,,,
,0.55,,,,,,,,,k,purple,5a33d736bf4d770001e6097a,2021-09-28_13h04.37.204,forced_choiceRT_color,2021.2.3,Win32,60.04563468,,,,,,,,2,Ontime,long,k,1,1.9691,1,2,6,3,1,,,,,
,1.99,,,,,,,,,k,purple,5a33d736bf4d770001e6097a,2021-09-28_13h04.37.204,forced_choiceRT_color,2021.2.3,Win32,60.04563468,,,,,,,,2,Slow,long,k,1,2.354,1,3,7,3,1,,,,,
,0.61,,,,,,,,,k,purple,5a33d736bf4d770001e6097a,2021-09-28_13h04.37.204,forced_choiceRT_color,2021.2.3,Win32,60.04563468,,,,,,,,2,Ontime,long,k,1,2.007,2,0,8,3,1,,,,,
,1.01,,,,,,,,,d,orange,5a33d736bf4d770001e6097a,2021-09-28_13h04.37.204,forced_choiceRT_color,2021.2.3,Win32,60.04563468,,,,,,,,2,Ontime,long,d,1,2.0585,2,1,9,0,1,,,,,
,1.7,,,,,,,,,f,blue,5a33d736bf4d770001e6097a,2021-09-28_13h04.37.204,forced_choiceRT_color,2021.2.3,Win32,60.04563468,,,,,,,,2,Slow,long,f,1,2.213,2,2,10,1,1,,,,,
,1.65,,,,,,,,,k,purple,5a33d736bf4d770001e6097a,2021-09-28_13h04.37.204,forced_choiceRT_color,2021.2.3,Win32,60.04563468,,,,,,,,2,Slow,long,k,1,2.1487,2,3,11,3,1,,,,,
,0.88,,,,,,,,,k,purple,5a33d736bf4d770001e6097a,2021-09-28_13h04.37.204,forced_choiceRT_color,2021.2.3,Win32,60.04563468,,,,,,,,2,Ontime,long,k,1,1.9615,3,0,12,3,1,,,,,
,1.25,,,,,,,,,f,blue,5a33d736bf4d770001e6097a,2021-09-28_13h04.37.204,forced_choiceRT_color,2021.2.3,Win32,60.04563468,,,,,,,,2,Ontime,long,f,1,1.9191,3,1,13,1,1,,,,,
,1.63,,,,,,,,,d,orange,5a33d736bf4d770001e6097a,2021-09-28_13h04.37.204,forced_choiceRT_color,2021.2.3,Win32,60.04563468,,,,,,,,2,Slow,long,f,0,2.1533,3,2,14,0,1,,,,,
,0.9,,,,,,,,,j,red,5a33d736bf4d770001e6097a,2021-09-28_13h04.37.204,forced_choiceRT_color,2021.2.3,Win32,60.04563468,,,,,,,,2,Ontime,long,j,1,2.0489,3,3,15,2,1,,,,,
,1.04,,,,,,,,,d,orange,5a33d736bf4d770001e6097a,2021-09-28_13h04.37.204,forced_choiceRT_color,2021.2.3,Win32,60.04563468,,,,,,,,2,Ontime,long,d,1,2.0267,4,0,16,0,1,,,,,
,1.44,,,,,,,,,j,red,5a33d736bf4d770001e6097a,2021-09-28_13h04.37.204,forced_choiceRT_color,2021.2.3,Win32,60.04563468,,,,,,,,2,Ontime,long,k,0,2.0302,4,1,17,2,1,,,,,
,0.68,,,,,,,,,k,purple,5a33d736bf4d770001e6097a,2021-09-28_13h04.37.204,forced_choiceRT_color,2021.2.3,Win32,60.04563468,,,,,,,,2,Ontime,long,k,1,1.9331,4,2,18,3,1,,,,,
,1.12,,,,,,,,,j,red,5a33d736bf4d770001e6097a,2021-09-28_13h04.37.204,forced_choiceRT_color,2021.2.3,Win32,60.04563468,,,,,,,,2,Fast,long,j,1,1.6718,4,3,19,2,1,,,,,
,0.57,,,,,,,,,j,red,5a33d736bf4d770001e6097a,2021-09-28_13h04.37.204,forced_choiceRT_color,2021.2.3,Win32,60.04563468,,,,,,,,2,Ontime,long,j,1,2.0373,5,0,20,2,1,,,,,
,1.1,,,,,,,,,j,red,5a33d736bf4d770001e6097a,2021-09-28_13h04.37.204,forced_choiceRT_color,2021.2.3,Win32,60.04563468,,,,,,,,2,Ontime,long,j,1,2.0944,5,1,21,2,1,,,,,
,1.33,,,,,,,,,j,red,5a33d736bf4d770001e6097a,2021-09-28_13h04.37.204,forced_choiceRT_color,2021.2.3,Win32,60.04563468,,,,,,,,2,Ontime,long,j,1,2.0883,5,2,22,2,1,,,,,
,1.38,,,,,,,,,k,purple,5a33d736bf4d770001e6097a,2021-09-28_13h04.37.204,forced_choiceRT_color,2021.2.3,Win32,60.04563468,,,,,,,,2,Ontime,long,k,1,2.0452,5,3,23,3,1,,,,,
,0.87,,,,,,,,,j,red,5a33d736bf4d770001e6097a,2021-09-28_13h04.37.204,forced_choiceRT_color,2021.2.3,Win32,60.04563468,,,,,,,,2,Fast,long,d,0,1.879,6,0,24,2,1,,,,,
,1.52,,,,,,,,,d,orange,5a33d736bf4d770001e6097a,2021-09-28_13h04.37.204,forced_choiceRT_color,2021.2.3,Win32,60.04563468,,,,,,,,2,Slow,long,d,1,2.1053,6,1,25,0,1,,,,,
,1.2,,,,,,,,,j,red,5a33d736bf4d770001e6097a,2021-09-28_13h04.37.204,forced_choiceRT_color,2021.2.3,Win32,60.04563468,,,,,,,,2,Ontime,long,j,1,1.9707,6,2,26,2,1,,,,,
,1.64,,,,,,,,,f,blue,5a33d736bf4d770001e6097a,2021-09-28_13h04.37.204,forced_choiceRT_color,2021.2.3,Win32,60.04563468,,,,,,,,2,Ontime,long,d,0,2.0949,6,3,27,1,1,,,,,
,1.8,,,,,,,,,f,blue,5a33d736bf4d770001e6097a,2021-09-28_13h04.37.204,forced_choiceRT_color,2021.2.3,Win32,60.04563468,,,,,,,,2,Slow,long,f,1,2.2783,7,0,28,1,1,,,,,
,0.96,,,,,,,,,j,red,5a33d736bf4d770001e6097a,2021-09-28_13h04.37.204,forced_choiceRT_color,2021.2.3,Win32,60.04563468,,,,,,,,2,Ontime,long,j,1,2.0792,7,1,29,2,1,,,,,
,1.05,,,,,,,,,f,blue,5a33d736bf4d770001e6097a,2021-09-28_13h04.37.204,forced_choiceRT_color,2021.2.3,Win32,60.04563468,,,,,,,,2,Slow,long,f,1,2.131,7,2,30,1,1,,,,,
,0.98,,,,,,,,,f,blue,5a33d736bf4d770001e6097a,2021-09-28_13h04.37.204,forced_choiceRT_color,2021.2.3,Win32,60.04563468,,,,,,,,2,Ontime,long,f,1,1.9137,7,3,31,1,1,,,,,
,1.08,,,,,,,,,f,blue,5a33d736bf4d770001e6097a,2021-09-28_13h04.37.204,forced_choiceRT_color,2021.2.3,Win32,60.04563468,,,,,,,,2,Fast,long,f,1,1.7721,8,0,32,1,1,,,,,
,1.06,,,,,,,,,d,orange,5a33d736bf4d770001e6097a,2021-09-28_13h04.37.204,forced_choiceRT_color,2021.2.3,Win32,60.04563468,,,,,,,,2,Ontime,long,d,1,1.9111,8,1,33,0,1,,,,,
,1.26,,,,,,,,,d,orange,5a33d736bf4d770001e6097a,2021-09-28_13h04.37.204,forced_choiceRT_color,2021.2.3,Win32,60.04563468,,,,,,,,2,Ontime,long,d,1,1.9983,8,2,34,0,1,,,,,
,0.07,,,,,,,,,d,orange,5a33d736bf4d770001e6097a,2021-09-28_13h04.37.204,forced_choiceRT_color,2021.2.3,Win32,60.04563468,,,,,,,,2,Ontime,long,d,1,1.9433,8,3,35,0,1,,,,,
,0.95,,,,,,,,,k,purple,5a33d736bf4d770001e6097a,2021-09-28_13h04.37.204,forced_choiceRT_color,2021.2.3,Win32,60.04563468,,,,,,,,2,Ontime,long,k,1,2.0218,9,0,36,3,1,,,,,
,0.71,,,,,,,,,d,orange,5a33d736bf4d770001e6097a,2021-09-28_13h04.37.204,forced_choiceRT_color,2021.2.3,Win32,60.04563468,,,,,,,,2,Ontime,long,d,1,2.0962,9,1,37,0,1,,,,,
,1.64,,,,,,,,,f,blue,5a33d736bf4d770001e6097a,2021-09-28_13h04.37.204,forced_choiceRT_color,2021.2.3,Win32,60.04563468,,,,,,,,2,Fast,long,d,0,0.1304,9,2,38,1,1,,,,,
,1.83,,,,,,,,,d,orange,5a33d736bf4d770001e6097a,2021-09-28_13h04.37.204,forced_choiceRT_color,2021.2.3,Win32,60.04563468,,,,,,,,2,Slow,long,d,1,2.4319,9,3,39,0,1,,,,,
,,,,,,,,,,,,5a33d736bf4d770001e6097a,2021-09-28_13h04.37.204,forced_choiceRT_color,2021.2.3,Win32,60.04563468,,,,,,,,,,,,,,,,,,,1,0,1,0,1
,1.07,,,,,,,,,d,orange,5a33d736bf4d770001e6097a,2021-09-28_13h04.37.204,forced_choiceRT_color,2021.2.3,Win32,60.04563468,,,,,,,,3,Ontime,long,d,1,2.0665,0,0,0,0,1,,,,,
,0.63,,,,,,,,,d,orange,5a33d736bf4d770001e6097a,2021-09-28_13h04.37.204,forced_choiceRT_color,2021.2.3,Win32,60.04563468,,,,,,,,3,Ontime,long,d,1,1.9485,0,1,1,0,1,,,,,
,0.21,,,,,,,,,f,blue,5a33d736bf4d770001e6097a,2021-09-28_13h04.37.204,forced_choiceRT_color,2021.2.3,Win32,60.04563468,,,,,,,,3,Ontime,long,f,1,1.915,0,2,2,1,1,,,,,
,0.22,,,,,,,,,j,red,5a33d736bf4d770001e6097a,2021-09-28_13h04.37.204,forced_choiceRT_color,2021.2.3,Win32,60.04563468,,,,,,,,3,Slow,long,j,1,2.1388,0,3,3,2,1,,,,,
,1.91,,,,,,,,,f,blue,5a33d736bf4d770001e6097a,2021-09-28_13h04.37.204,forced_choiceRT_color,2021.2.3,Win32,60.04563468,,,,,,,,3,Slow,long,f,1,2.643,1,0,4,1,1,,,,,
,1.49,,,,,,,,,j,red,5a33d736bf4d770001e6097a,2021-09-28_13h04.37.204,forced_choiceRT_color,2021.2.3,Win32,60.04563468,,,,,,,,3,Slow,long,j,1,2.208,1,1,5,2,1,,,,,
,0.33,,,,,,,,,f,blue,5a33d736bf4d770001e6097a,2021-09-28_13h04.37.204,forced_choiceRT_color,2021.2.3,Win32,60.04563468,,,,,,,,3,Ontime,long,f,1,1.9051,1,2,6,1,1,,,,,
,0.58,,,,,,,,,j,red,5a33d736bf4d770001e6097a,2021-09-28_13h04.37.204,forced_choiceRT_color,2021.2.3,Win32,60.04563468,,,,,,,,3,Fast,long,j,1,1.8992,1,3,7,2,1,,,,,
,0.42,,,,,,,,,f,blue,5a33d736bf4d770001e6097a,2021-09-28_13h04.37.204,forced_choiceRT_color,2021.2.3,Win32,60.04563468,,,,,,,,3,Ontime,long,f,1,1.9449,2,0,8,1,1,,,,,
,0.56,,,,,,,,,f,blue,5a33d736bf4d770001e6097a,2021-09-28_13h04.37.204,forced_choiceRT_color,2021.2.3,Win32,60.04563468,,,,,,,,3,Ontime,long,f,1,1.9655,2,1,9,1,1,,,,,
,1.93,,,,,,,,,f,blue,5a33d736bf4d770001e6097a,2021-09-28_13h04.37.204,forced_choiceRT_color,2021.2.3,Win32,60.04563468,,,,,,,,3,Slow,long,j,0,2.2812,2,2,10,1,1,,,,,
,1.27,,,,,,,,,k,purple,5a33d736bf4d770001e6097a,2021-09-28_13h04.37.204,forced_choiceRT_color,2021.2.3,Win32,60.04563468,,,,,,,,3,Ontime,long,k,1,2.071,2,3,11,3,1,,,,,
,0.02,,,,,,,,,j,red,5a33d736bf4d770001e6097a,2021-09-28_13h04.37.204,forced_choiceRT_color,2021.2.3,Win32,60.04563468,,,,,,,,3,Ontime,long,j,1,1.9974,3,0,12,2,1,,,,,
,0.45,,,,,,,,,f,blue,5a33d736bf4d770001e6097a,2021-09-28_13h04.37.204,forced_choiceRT_color,2021.2.3,Win32,60.04563468,,,,,,,,3,Ontime,long,f,1,1.9942,3,1,13,1,1,,,,,
,0.29,,,,,,,,,k,purple,5a33d736bf4d770001e6097a,2021-09-28_13h04.37.204,forced_choiceRT_color,2021.2.3,Win32,60.04563468,,,,,,,,3,Ontime,long,k,1,2.0626,3,2,14,3,1,,,,,
,1.06,,,,,,,,,f,blue,5a33d736bf4d770001e6097a,2021-09-28_13h04.37.204,forced_choiceRT_color,2021.2.3,Win32,60.04563468,,,,,,,,3,Slow,long,f,1,2.1452,3,3,15,1,1,,,,,
,0.18,,,,,,,,,k,purple,5a33d736bf4d770001e6097a,2021-09-28_13h04.37.204,forced_choiceRT_color,2021.2.3,Win32,60.04563468,,,,,,,,3,Ontime,long,k,1,1.9638,4,0,16,3,1,,,,,
,1.33,,,,,,,,,k,purple,5a33d736bf4d770001e6097a,2021-09-28_13h04.37.204,forced_choiceRT_color,2021.2.3,Win32,60.04563468,,,,,,,,3,Ontime,long,k,1,2.0645,4,1,17,3,1,,,,,
,0.12,,,,,,,,,d,orange,5a33d736bf4d770001e6097a,2021-09-28_13h04.37.204,forced_choiceRT_color,2021.2.3,Win32,60.04563468,,,,,,,,3,Ontime,long,d,1,1.939,4,2,18,0,1,,,,,
,1.92,,,,,,,,,j,red,5a33d736bf4d770001e6097a,2021-09-28_13h04.37.204,forced_choiceRT_color,2021.2.3,Win32,60.04563468,,,,,,,,3,Slow,long,j,1,2.3274,4,3,19,2,1,,,,,
,1.94,,,,,,,,,d,orange,5a33d736bf4d770001e6097a,2021-09-28_13h04.37.204,forced_choiceRT_color,2021.2.3,Win32,60.04563468,,,,,,,,3,Slow,long,f,0,2.3282,5,0,20,0,1,,,,,
,0.02,,,,,,,,,d,orange,5a33d736bf4d770001e6097a,2021-09-28_13h04.37.204,forced_choiceRT_color,2021.2.3,Win32,60.04563468,,,,,,,,3,Ontime,long,d,1,2.0666,5,1,21,0,1,,,,,
,0.03,,,,,,,,,f,blue,5a33d736bf4d770001e6097a,2021-09-28_13h04.37.204,forced_choiceRT_color,2021.2.3,Win32,60.04563468,,,,,,,,3,Ontime,long,f,1,2.0688,5,2,22,1,1,,,,,
,0.49,,,,,,,,,k,purple,5a33d736bf4d770001e6097a,2021-09-28_13h04.37.204,forced_choiceRT_color,2021.2.3,Win32,60.04563468,,,,,,,,3,Ontime,long,k,1,2.0783,5,3,23,3,1,,,,,
,0.81,,,,,,,,,d,orange,5a33d736bf4d770001e6097a,2021-09-28_13h04.37.204,forced_choiceRT_color,2021.2.3,Win32,60.04563468,,,,,,,,3,Ontime,long,d,1,2.0724,6,0,24,0,1,,,,,
,0,,,,,,,,,k,purple,5a33d736bf4d770001e6097a,2021-09-28_13h04.37.204,forced_choiceRT_color,2021.2.3,Win32,60.04563468,,,,,,,,3,Fast,long,k,1,0.7051,6,1,25,3,1,,,,,
,1.95,,,,,,,,,j,red,5a33d736bf4d770001e6097a,2021-09-28_13h04.37.204,forced_choiceRT_color,2021.2.3,Win32,60.04563468,,,,,,,,3,Slow,long,k,0,2.347,6,2,26,2,1,,,,,
,1.64,,,,,,,,,k,purple,5a33d736bf4d770001e6097a,2021-09-28_13h04.37.204,forced_choiceRT_color,2021.2.3,Win32,60.04563468,,,,,,,,3,Slow,long,k,1,2.1887,6,3,27,3,1,,,,,
,1.28,,,,,,,,,j,red,5a33d736bf4d770001e6097a,2021-09-28_13h04.37.204,forced_choiceRT_color,2021.2.3,Win32,60.04563468,,,,,,,,3,Slow,long,j,1,2.1803,7,0,28,2,1,,,,,
,1.08,,,,,,,,,k,purple,5a33d736bf4d770001e6097a,2021-09-28_13h04.37.204,forced_choiceRT_color,2021.2.3,Win32,60.04563468,,,,,,,,3,Ontime,long,k,1,1.921,7,1,29,3,1,,,,,
,1.74,,,,,,,,,d,orange,5a33d736bf4d770001e6097a,2021-09-28_13h04.37.204,forced_choiceRT_color,2021.2.3,Win32,60.04563468,,,,,,,,3,Slow,long,d,1,2.2291,7,2,30,0,1,,,,,
,1.57,,,,,,,,,j,red,5a33d736bf4d770001e6097a,2021-09-28_13h04.37.204,forced_choiceRT_color,2021.2.3,Win32,60.04563468,,,,,,,,3,Slow,long,j,1,2.1367,7,3,31,2,1,,,,,
,1.06,,,,,,,,,f,blue,5a33d736bf4d770001e6097a,2021-09-28_13h04.37.204,forced_choiceRT_color,2021.2.3,Win32,60.04563468,,,,,,,,3,Ontime,long,f,1,1.9753,8,0,32,1,1,,,,,
,1.16,,,,,,,,,j,red,5a33d736bf4d770001e6097a,2021-09-28_13h04.37.204,forced_choiceRT_color,2021.2.3,Win32,60.04563468,,,,,,,,3,Ontime,long,j,1,2.0318,8,1,33,2,1,,,,,
,0.41,,,,,,,,,d,orange,5a33d736bf4d770001e6097a,2021-09-28_13h04.37.204,forced_choiceRT_color,2021.2.3,Win32,60.04563468,,,,,,,,3,Ontime,long,d,1,1.9475,8,2,34,0,1,,,,,
,0.67,,,,,,,,,j,red,5a33d736bf4d770001e6097a,2021-09-28_13h04.37.204,forced_choiceRT_color,2021.2.3,Win32,60.04563468,,,,,,,,3,Fast,long,j,1,1.8541,8,3,35,2,1,,,,,
,1.27,,,,,,,,,k,purple,5a33d736bf4d770001e6097a,2021-09-28_13h04.37.204,forced_choiceRT_color,2021.2.3,Win32,60.04563468,,,,,,,,3,Ontime,long,k,1,2.0311,9,0,36,3,1,,,,,
,0.27,,,,,,,,,k,purple,5a33d736bf4d770001e6097a,2021-09-28_13h04.37.204,forced_choiceRT_color,2021.2.3,Win32,60.04563468,,,,,,,,3,Ontime,long,k,1,1.9668,9,1,37,3,1,,,,,
,0.11,,,,,,,,,d,orange,5a33d736bf4d770001e6097a,2021-09-28_13h04.37.204,forced_choiceRT_color,2021.2.3,Win32,60.04563468,,,,,,,,3,Ontime,long,d,1,1.9471,9,2,38,0,1,,,,,
,1.56,,,,,,,,,d,orange,5a33d736bf4d770001e6097a,2021-09-28_13h04.37.204,forced_choiceRT_color,2021.2.3,Win32,60.04563468,,,,,,,,3,Ontime,long,d,1,2.0545,9,3,39,0,1,,,,,
,,,,,,,,,,,,5a33d736bf4d770001e6097a,2021-09-28_13h04.37.204,forced_choiceRT_color,2021.2.3,Win32,60.04563468,,,,,,,,,,,,,,,,,,,2,0,2,0,1
,1.02,,,,,,,,,d,orange,5a33d736bf4d770001e6097a,2021-09-28_13h04.37.204,forced_choiceRT_color,2021.2.3,Win32,60.04563468,,,,,,,,4,Ontime,long,d,1,2.0845,0,0,0,0,1,,,,,
,0.78,,,,,,,,,j,red,5a33d736bf4d770001e6097a,2021-09-28_13h04.37.204,forced_choiceRT_color,2021.2.3,Win32,60.04563468,,,,,,,,4,Slow,long,j,1,2.1008,0,1,1,2,1,,,,,
,1.92,,,,,,,,,j,red,5a33d736bf4d770001e6097a,2021-09-28_13h04.37.204,forced_choiceRT_color,2021.2.3,Win32,60.04563468,,,,,,,,4,Slow,long,f,0,2.3226,0,2,2,2,1,,,,,
,0.84,,,,,,,,,k,purple,5a33d736bf4d770001e6097a,2021-09-28_13h04.37.204,forced_choiceRT_color,2021.2.3,Win32,60.04563468,,,,,,,,4,Ontime,long,k,1,2.0281,0,3,3,3,1,,,,,
,1.46,,,,,,,,,d,orange,5a33d736bf4d770001e6097a,2021-09-28_13h04.37.204,forced_choiceRT_color,2021.2.3,Win32,60.04563468,,,,,,,,4,Slow,long,d,1,2.1447,1,0,4,0,1,,,,,
,1.17,,,,,,,,,j,red,5a33d736bf4d770001e6097a,2021-09-28_13h04.37.204,forced_choiceRT_color,2021.2.3,Win32,60.04563468,,,,,,,,4,Ontime,long,j,1,2.0496,1,1,5,2,1,,,,,
,1.91,,,,,,,,,f,blue,5a33d736bf4d770001e6097a,2021-09-28_13h04.37.204,forced_choiceRT_color,2021.2.3,Win32,60.04563468,,,,,,,,4,Slow,long,k,0,2.2376,1,2,6,1,1,,,,,
,0.85,,,,,,,,,f,blue,5a33d736bf4d770001e6097a,2021-09-28_13h04.37.204,forced_choiceRT_color,2021.2.3,Win32,60.04563468,,,,,,,,4,Slow,long,f,1,2.1172,1,3,7,1,1,,,,,
,1.21,,,,,,,,,f,blue,5a33d736bf4d770001e6097a,2021-09-28_13h04.37.204,forced_choiceRT_color,2021.2.3,Win32,60.04563468,,,,,,,,4,Slow,long,f,1,2.1355,2,0,8,1,1,,,,,
,0.16,,,,,,,,,d,orange,5a33d736bf4d770001e6097a,2021-09-28_13h04.37.204,forced_choiceRT_color,2021.2.3,Win32,60.04563468,,,,,,,,4,Fast,long,d,1,1.8815,2,1,9,0,1,,,,,
,0.29,,,,,,,,,k,purple,5a33d736bf4d770001e6097a,2021-09-28_13h04.37.204,forced_choiceRT_color,2021.2.3,Win32,60.04563468,,,,,,,,4,Fast,long,k,1,1.8641,2,2,10,3,1,,,,,
,0.46,,,,,,,,,f,blue,5a33d736bf4d770001e6097a,2021-09-28_13h04.37.204,forced_choiceRT_color,2021.2.3,Win32,60.04563468,,,,,,,,4,Ontime,long,f,1,1.9356,2,3,11,1,1,,,,,
,0.21,,,,,,,,,j,red,5a33d736bf4d770001e6097a,2021-09-28_13h04.37.204,forced_choiceRT_color,2021.2.3,Win32,60.04563468,,,,,,,,4,Ontime,long,j,1,1.9233,3,0,12,2,1,,,,,
,1.64,,,,,,,,,d,orange,5a33d736bf4d770001e6097a,2021-09-28_13h04.37.204,forced_choiceRT_color,2021.2.3,Win32,60.04563468,,,,,,,,4,Slow,long,d,1,2.1644,3,1,13,0,1,,,,,
,1.81,,,,,,,,,j,red,5a33d736bf4d770001e6097a,2021-09-28_13h04.37.204,forced_choiceRT_color,2021.2.3,Win32,60.04563468,,,,,,,,4,Fast,long,d,0,0.5683,3,2,14,2,1,,,,,
,0.11,,,,,,,,,f,blue,5a33d736bf4d770001e6097a,2021-09-28_13h04.37.204,forced_choiceRT_color,2021.2.3,Win32,60.04563468,,,,,,,,4,Ontime,long,f,1,1.9263,3,3,15,1,1,,,,,
,0.48,,,,,,,,,k,purple,5a33d736bf4d770001e6097a,2021-09-28_13h04.37.204,forced_choiceRT_color,2021.2.3,Win32,60.04563468,,,,,,,,4,Ontime,long,k,1,1.9612,4,0,16,3,1,,,,,
,1.72,,,,,,,,,f,blue,5a33d736bf4d770001e6097a,2021-09-28_13h04.37.204,forced_choiceRT_color,2021.2.3,Win32,60.04563468,,,,,,,,4,Slow,long,d,0,2.1846,4,1,17,1,1,,,,,
,0.61,,,,,,,,,k,purple,5a33d736bf4d770001e6097a,2021-09-28_13h04.37.204,forced_choiceRT_color,2021.2.3,Win32,60.04563468,,,,,,,,4,Ontime,long,k,1,1.9591,4,2,18,3,1,,,,,
,1.64,,,,,,,,,j,red,5a33d736bf4d770001e6097a,2021-09-28_13h04.37.204,forced_choiceRT_color,2021.2.3,Win32,60.04563468,,,,,,,,4,Ontime,long,j,1,2.0278,4,3,19,2,1,,,,,
,1.65,,,,,,,,,k,purple,5a33d736bf4d770001e6097a,2021-09-28_13h04.37.204,forced_choiceRT_color,2021.2.3,Win32,60.04563468,,,,,,,,4,Slow,long,j,0,2.1546,5,0,20,3,1,,,,,
,1.58,,,,,,,,,d,orange,5a33d736bf4d770001e6097a,2021-09-28_13h04.37.204,forced_choiceRT_color,2021.2.3,Win32,60.04563468,,,,,,,,4,Ontime,long,d,1,2.0853,5,1,21,0,1,,,,,
,1.55,,,,,,,,,f,blue,5a33d736bf4d770001e6097a,2021-09-28_13h04.37.204,forced_choiceRT_color,2021.2.3,Win32,60.04563468,,,,,,,,4,Fast,long,f,1,1.895,5,2,22,1,1,,,,,
,0.68,,,,,,,,,k,purple,5a33d736bf4d770001e6097a,2021-09-28_13h04.37.204,forced_choiceRT_color,2021.2.3,Win32,60.04563468,,,,,,,,4,Ontime,long,k,1,1.968,5,3,23,3,1,,,,,
,1.84,,,,,,,,,k,purple,5a33d736bf4d770001e6097a,2021-09-28_13h04.37.204,forced_choiceRT_color,2021.2.3,Win32,60.04563468,,,,,,,,4,Slow,long,f,0,2.2133,6,0,24,3,1,,,,,
,0.26,,,,,,,,,d,orange,5a33d736bf4d770001e6097a,2021-09-28_13h04.37.204,forced_choiceRT_color,2021.2.3,Win32,60.04563468,,,,,,,,4,Ontime,long,d,1,1.944,6,1,25,0,1,,,,,
,0.22,,,,,,,,,f,blue,5a33d736bf4d770001e6097a,2021-09-28_13h04.37.204,forced_choiceRT_color,2021.2.3,Win32,60.04563468,,,,,,,,4,Ontime,long,f,1,1.9114,6,2,26,1,1,,,,,
,1.43,,,,,,,,,k,purple,5a33d736bf4d770001e6097a,2021-09-28_13h04.37.204,forced_choiceRT_color,2021.2.3,Win32,60.04563468,,,,,,,,4,Ontime,long,k,1,2.0327,6,3,27,3,1,,,,,
,1.41,,,,,,,,,d,orange,5a33d736bf4d770001e6097a,2021-09-28_13h04.37.204,forced_choiceRT_color,2021.2.3,Win32,60.04563468,,,,,,,,4,Ontime,long,d,1,2.0499,7,0,28,0,1,,,,,
,1.41,,,,,,,,,j,red,5a33d736bf4d770001e6097a,2021-09-28_13h04.37.204,forced_choiceRT_color,2021.2.3,Win32,60.04563468,,,,,,,,4,Slow,long,j,1,2.1005,7,1,29,2,1,,,,,
,0.8,,,,,,,,,j,red,5a33d736bf4d770001e6097a,2021-09-28_13h04.37.204,forced_choiceRT_color,2021.2.3,Win32,60.04563468,,,,,,,,4,Ontime,long,j,1,1.96,7,2,30,2,1,,,,,
,1.61,,,,,,,,,d,orange,5a33d736bf4d770001e6097a,2021-09-28_13h04.37.204,forced_choiceRT_color,2021.2.3,Win32,60.04563468,,,,,,,,4,Ontime,long,d,1,2.0684,7,3,31,0,1,,,,,
,0.39,,,,,,,,,j,red,5a33d736bf4d770001e6097a,2021-09-28_13h04.37.204,forced_choiceRT_color,2021.2.3,Win32,60.04563468,,,,,,,,4,Ontime,long,j,1,2.0457,8,0,32,2,1,,,,,
,0.5,,,,,,,,,d,orange,5a33d736bf4d770001e6097a,2021-09-28_13h04.37.204,forced_choiceRT_color,2021.2.3,Win32,60.04563468,,,,,,,,4,Ontime,long,d,1,1.9906,8,1,33,0,1,,,,,
,0.86,,,,,,,,,d,orange,5a33d736bf4d770001e6097a,2021-09-28_13h04.37.204,forced_choiceRT_color,2021.2.3,Win32,60.04563468,,,,,,,,4,Ontime,long,d,1,1.9357,8,2,34,0,1,,,,,
,0.78,,,,,,,,,f,blue,5a33d736bf4d770001e6097a,2021-09-28_13h04.37.204,forced_choiceRT_color,2021.2.3,Win32,60.04563468,,,,,,,,4,Fast,long,f,1,1.8512,8,3,35,1,1,,,,,
,0.78,,,,,,,,,k,purple,5a33d736bf4d770001e6097a,2021-09-28_13h04.37.204,forced_choiceRT_color,2021.2.3,Win32,60.04563468,,,,,,,,4,Fast,long,k,1,1.878,9,0,36,3,1,,,,,
,0.08,,,,,,,,,k,purple,5a33d736bf4d770001e6097a,2021-09-28_13h04.37.204,forced_choiceRT_color,2021.2.3,Win32,60.04563468,,,,,,,,4,Ontime,long,k,1,1.9572,9,1,37,3,1,,,,,
,0.48,,,,,,,,,j,red,5a33d736bf4d770001e6097a,2021-09-28_13h04.37.204,forced_choiceRT_color,2021.2.3,Win32,60.04563468,,,,,,,,4,Ontime,long,j,1,1.9788,9,2,38,2,1,,,,,
,1.64,,,,,,,,,f,blue,5a33d736bf4d770001e6097a,2021-09-28_13h04.37.204,forced_choiceRT_color,2021.2.3,Win32,60.04563468,,,,,,,,4,Slow,long,f,1,2.1769,9,3,39,1,1,,,,,
,,,,,,,,,,,,5a33d736bf4d770001e6097a,2021-09-28_13h04.37.204,forced_choiceRT_color,2021.2.3,Win32,60.04563468,,,,,,,,,,,,,,,,,,,3,0,3,0,1
,1.51,,,,,,,,,j,red,5a33d736bf4d770001e6097a,2021-09-28_13h04.37.204,forced_choiceRT_color,2021.2.3,Win32,60.04563468,,,,,,,,5,Slow,long,j,1,2.1747,0,0,0,2,1,,,,,
,0.8,,,,,,,,,d,orange,5a33d736bf4d770001e6097a,2021-09-28_13h04.37.204,forced_choiceRT_color,2021.2.3,Win32,60.04563468,,,,,,,,5,Ontime,long,d,1,2.039,0,1,1,0,1,,,,,
,1.74,,,,,,,,,f,blue,5a33d736bf4d770001e6097a,2021-09-28_13h04.37.204,forced_choiceRT_color,2021.2.3,Win32,60.04563468,,,,,,,,5,Slow,long,f,1,2.3264,0,2,2,1,1,,,,,
,1.74,,,,,,,,,k,purple,5a33d736bf4d770001e6097a,2021-09-28_13h04.37.204,forced_choiceRT_color,2021.2.3,Win32,60.04563468,,,,,,,,5,Slow,long,k,1,2.3079,0,3,3,3,1,,,,,
,0.91,,,,,,,,,f,blue,5a33d736bf4d770001e6097a,2021-09-28_13h04.37.204,forced_choiceRT_color,2021.2.3,Win32,60.04563468,,,,,,,,5,Ontime,long,f,1,2.0344,1,0,4,1,1,,,,,
,1.03,,,,,,,,,k,purple,5a33d736bf4d770001e6097a,2021-09-28_13h04.37.204,forced_choiceRT_color,2021.2.3,Win32,60.04563468,,,,,,,,5,Ontime,long,k,1,1.9414,1,1,5,3,1,,,,,
,1.45,,,,,,,,,d,orange,5a33d736bf4d770001e6097a,2021-09-28_13h04.37.204,forced_choiceRT_color,2021.2.3,Win32,60.04563468,,,,,,,,5,Ontime,long,d,1,2.0438,1,2,6,0,1,,,,,
,1.17,,,,,,,,,k,purple,5a33d736bf4d770001e6097a,2021-09-28_13h04.37.204,forced_choiceRT_color,2021.2.3,Win32,60.04563468,,,,,,,,5,Ontime,long,k,1,1.9878,1,3,7,3,1,,,,,
,1.38,,,,,,,,,f,blue,5a33d736bf4d770001e6097a,2021-09-28_13h04.37.204,forced_choiceRT_color,2021.2.3,Win32,60.04563468,,,,,,,,5,Ontime,long,f,1,2.0317,2,0,8,1,1,,,,,
,0.55,,,,,,,,,d,orange,5a33d736bf4d770001e6097a,2021-09-28_13h04.37.204,forced_choiceRT_color,2021.2.3,Win32,60.04563468,,,,,,,,5,Slow,long,d,1,2.2262,2,1,9,0,1,,,,,
,0.83,,,,,,,,,d,orange,5a33d736bf4d770001e6097a,2021-09-28_13h04.37.204,forced_choiceRT_color,2021.2.3,Win32,60.04563468,,,,,,,,5,Fast,long,d,1,1.8485,2,2,10,0,1,,,,,
,1.03,,,,,,,,,k,purple,5a33d736bf4d770001e6097a,2021-09-28_13h04.37.204,forced_choiceRT_color,2021.2.3,Win32,60.04563468,,,,,,,,5,Ontime,long,k,1,2.013,2,3,11,3,1,,,,,
,0.27,,,,,,,,,f,blue,5a33d736bf4d770001e6097a,2021-09-28_13h04.37.204,forced_choiceRT_color,2021.2.3,Win32,60.04563468,,,,,,,,5,Ontime,long,f,1,1.9455,3,0,12,1,1,,,,,
,1.95,,,,,,,,,j,red,5a33d736bf4d770001e6097a,2021-09-28_13h04.37.204,forced_choiceRT_color,2021.2.3,Win32,60.04563468,,,,,,,,5,Slow,long,k,0,2.3552,3,1,13,2,1,,,,,
,0.26,,,,,,,,,f,blue,5a33d736bf4d770001e6097a,2021-09-28_13h04.37.204,forced_choiceRT_color,2021.2.3,Win32,60.04563468,,,,,,,,5,Ontime,long,f,1,1.945,3,2,14,1,1,,,,,
,1.42,,,,,,,,,d,orange,5a33d736bf4d770001e6097a,2021-09-28_13h04.37.204,forced_choiceRT_color,2021.2.3,Win32,60.04563468,,,,,,,,5,Slow,long,d,1,2.1549,3,3,15,0,1,,,,,
,0.96,,,,,,,,,d,orange,5a33d736bf4d770001e6097a,2021-09-28_13h04.37.204,forced_choiceRT_color,2021.2.3,Win32,60.04563468,,,,,,,,5,Fast,long,d,1,1.5874,4,0,16,0,1,,,,,
,1.1,,,,,,,,,k,purple,5a33d736bf4d770001e6097a,2021-09-28_13h04.37.204,forced_choiceRT_color,2021.2.3,Win32,60.04563468,,,,,,,,5,Ontime,long,k,1,2.0358,4,1,17,3,1,,,,,
,1.99,,,,,,,,,f,blue,5a33d736bf4d770001e6097a,2021-09-28_13h04.37.204,forced_choiceRT_color,2021.2.3,Win32,60.04563468,,,,,,,,5,Slow,long,j,0,2.2696,4,2,18,1,1,,,,,
,1.74,,,,,,,,,d,orange,5a33d736bf4d770001e6097a,2021-09-28_13h04.37.204,forced_choiceRT_color,2021.2.3,Win32,60.04563468,,,,,,,,5,Slow,long,d,1,2.1822,4,3,19,0,1,,,,,
,0.12,,,,,,,,,j,red,5a33d736bf4d770001e6097a,2021-09-28_13h04.37.204,forced_choiceRT_color,2021.2.3,Win32,60.04563468,,,,,,,,5,Ontime,long,j,1,1.985,5,0,20,2,1,,,,,
,1.29,,,,,,,,,k,purple,5a33d736bf4d770001e6097a,2021-09-28_13h04.37.204,forced_choiceRT_color,2021.2.3,Win32,60.04563468,,,,,,,,5,Ontime,long,k,1,1.9797,5,1,21,3,1,,,,,
,0.74,,,,,,,,,j,red,5a33d736bf4d770001e6097a,2021-09-28_13h04.37.204,forced_choiceRT_color,2021.2.3,Win32,60.04563468,,,,,,,,5,Ontime,long,j,1,2.0076,5,2,22,2,1,,,,,
,1.59,,,,,,,,,d,orange,5a33d736bf4d770001e6097a,2021-09-28_13h04.37.204,forced_choiceRT_color,2021.2.3,Win32,60.04563468,,,,,,,,5,Ontime,long,k,0,2.0771,5,3,23,0,1,,,,,
,0.67,,,,,,,,,d,orange,5a33d736bf4d770001e6097a,2021-09-28_13h04.37.204,forced_choiceRT_color,2021.2.3,Win32,60.04563468,,,,,,,,5,Ontime,long,d,1,1.937,6,0,24,0,1,,,,,
,1.65,,,,,,,,,j,red,5a33d736bf4d770001e6097a,2021-09-28_13h04.37.204,forced_choiceRT_color,2021.2.3,Win32,60.04563468,,,,,,,,5,Slow,long,d,0,2.1103,6,1,25,2,1,,,,,
,1.27,,,,,,,,,k,purple,5a33d736bf4d770001e6097a,2021-09-28_13h04.37.204,forced_choiceRT_color,2021.2.3,Win32,60.04563468,,,,,,,,5,Ontime,long,k,1,1.9472,6,2,26,3,1,,,,,
,0.74,,,,,,,,,k,purple,5a33d736bf4d770001e6097a,2021-09-28_13h04.37.204,forced_choiceRT_color,2021.2.3,Win32,60.04563468,,,,,,,,5,Fast,long,k,1,1.8311,6,3,27,3,1,,,,,
,1.43,,,,,,,,,j,red,5a33d736bf4d770001e6097a,2021-09-28_13h04.37.204,forced_choiceRT_color,2021.2.3,Win32,60.04563468,,,,,,,,5,Slow,long,j,1,2.1978,7,0,28,2,1,,,,,
,0.17,,,,,,,,,j,red,5a33d736bf4d770001e6097a,2021-09-28_13h04.37.204,forced_choiceRT_color,2021.2.3,Win32,60.04563468,,,,,,,,5,Fast,long,j,1,1.8586,7,1,29,2,1,,,,,
,0.51,,,,,,,,,d,orange,5a33d736bf4d770001e6097a,2021-09-28_13h04.37.204,forced_choiceRT_color,2021.2.3,Win32,60.04563468,,,,,,,,5,Ontime,long,d,1,1.9794,7,2,30,0,1,,,,,
,0.1,,,,,,,,,k,purple,5a33d736bf4d770001e6097a,2021-09-28_13h04.37.204,forced_choiceRT_color,2021.2.3,Win32,60.04563468,,,,,,,,5,Ontime,long,k,1,2.008,7,3,31,3,1,,,,,
,0.9,,,,,,,,,j,red,5a33d736bf4d770001e6097a,2021-09-28_13h04.37.204,forced_choiceRT_color,2021.2.3,Win32,60.04563468,,,,,,,,5,Ontime,long,j,1,1.9134,8,0,32,2,1,,,,,
,0.56,,,,,,,,,j,red,5a33d736bf4d770001e6097a,2021-09-28_13h04.37.204,forced_choiceRT_color,2021.2.3,Win32,60.04563468,,,,,,,,5,Ontime,long,j,1,1.9283,8,1,33,2,1,,,,,
,1.69,,,,,,,,,j,red,5a33d736bf4d770001e6097a,2021-09-28_13h04.37.204,forced_choiceRT_color,2021.2.3,Win32,60.04563468,,,,,,,,5,Slow,long,j,1,2.1659,8,2,34,2,1,,,,,
,1.99,,,,,,,,,f,blue,5a33d736bf4d770001e6097a,2021-09-28_13h04.37.204,forced_choiceRT_color,2021.2.3,Win32,60.04563468,,,,,,,,5,Slow,long,d,0,2.3366,8,3,35,1,1,,,,,
,1.39,,,,,,,,,k,purple,5a33d736bf4d770001e6097a,2021-09-28_13h04.37.204,forced_choiceRT_color,2021.2.3,Win32,60.04563468,,,,,,,,5,Ontime,long,j,0,1.9689,9,0,36,3,1,,,,,
,0.84,,,,,,,,,f,blue,5a33d736bf4d770001e6097a,2021-09-28_13h04.37.204,forced_choiceRT_color,2021.2.3,Win32,60.04563468,,,,,,,,5,Ontime,long,d,0,1.9252,9,1,37,1,1,,,,,
,0.35,,,,,,,,,f,blue,5a33d736bf4d770001e6097a,2021-09-28_13h04.37.204,forced_choiceRT_color,2021.2.3,Win32,60.04563468,,,,,,,,5,Ontime,long,f,1,1.9441,9,2,38,1,1,,,,,
,0.27,,,,,,,,,f,blue,5a33d736bf4d770001e6097a,2021-09-28_13h04.37.204,forced_choiceRT_color,2021.2.3,Win32,60.04563468,,,,,,,,5,Ontime,long,f,1,1.9494,9,3,39,1,1,,,,,
,,,,,,,,,,,,5a33d736bf4d770001e6097a,2021-09-28_13h04.37.204,forced_choiceRT_color,2021.2.3,Win32,60.04563468,,,,,,,,,,,,,,,,,,,4,0,4,0,1
,1,,,,,,,,,k,purple,5a33d736bf4d770001e6097a,2021-09-28_13h04.37.204,forced_choiceRT_color,2021.2.3,Win32,60.04563468,,,,,,,,6,Ontime,long,k,1,2.0032,0,0,0,3,1,,,,,
,1.65,,,,,,,,,f,blue,5a33d736bf4d770001e6097a,2021-09-28_13h04.37.204,forced_choiceRT_color,2021.2.3,Win32,60.04563468,,,,,,,,6,Ontime,long,f,1,1.9775,0,1,1,1,1,,,,,
,1.88,,,,,,,,,j,red,5a33d736bf4d770001e6097a,2021-09-28_13h04.37.204,forced_choiceRT_color,2021.2.3,Win32,60.04563468,,,,,,,,6,Slow,long,j,1,2.313,0,2,2,2,1,,,,,
,1.57,,,,,,,,,k,purple,5a33d736bf4d770001e6097a,2021-09-28_13h04.37.204,forced_choiceRT_color,2021.2.3,Win32,60.04563468,,,,,,,,6,Ontime,long,k,1,2.0322,0,3,3,3,1,,,,,
,1.92,,,,,,,,,d,orange,5a33d736bf4d770001e6097a,2021-09-28_13h04.37.204,forced_choiceRT_color,2021.2.3,Win32,60.04563468,,,,,,,,6,Slow,long,j,0,2.3435,1,0,4,0,1,,,,,
,0.64,,,,,,,,,j,red,5a33d736bf4d770001e6097a,2021-09-28_13h04.37.204,forced_choiceRT_color,2021.2.3,Win32,60.04563468,,,,,,,,6,Ontime,long,j,1,1.9726,1,1,5,2,1,,,,,
,1.55,,,,,,,,,k,purple,5a33d736bf4d770001e6097a,2021-09-28_13h04.37.204,forced_choiceRT_color,2021.2.3,Win32,60.04563468,,,,,,,,6,Ontime,long,k,1,1.9116,1,2,6,3,1,,,,,
,0.21,,,,,,,,,f,blue,5a33d736bf4d770001e6097a,2021-09-28_13h04.37.204,forced_choiceRT_color,2021.2.3,Win32,60.04563468,,,,,,,,6,Fast,long,f,1,1.3323,1,3,7,1,1,,,,,
,0.44,,,,,,,,,d,orange,5a33d736bf4d770001e6097a,2021-09-28_13h04.37.204,forced_choiceRT_color,2021.2.3,Win32,60.04563468,,,,,,,,6,Ontime,long,d,1,1.9563,2,0,8,0,1,,,,,
,0.55,,,,,,,,,j,red,5a33d736bf4d770001e6097a,2021-09-28_13h04.37.204,forced_choiceRT_color,2021.2.3,Win32,60.04563468,,,,,,,,6,Fast,long,j,1,1.8819,2,1,9,2,1,,,,,
,1.83,,,,,,,,,j,red,5a33d736bf4d770001e6097a,2021-09-28_13h04.37.204,forced_choiceRT_color,2021.2.3,Win32,60.04563468,,,,,,,,6,Slow,long,j,1,2.1968,2,2,10,2,1,,,,,
,1.78,,,,,,,,,d,orange,5a33d736bf4d770001e6097a,2021-09-28_13h04.37.204,forced_choiceRT_color,2021.2.3,Win32,60.04563468,,,,,,,,6,Slow,long,d,1,2.2495,2,3,11,0,1,,,,,
,0.07,,,,,,,,,f,blue,5a33d736bf4d770001e6097a,2021-09-28_13h04.37.204,forced_choiceRT_color,2021.2.3,Win32,60.04563468,,,,,,,,6,Fast,long,f,1,1.6648,3,0,12,1,1,,,,,
,1.24,,,,,,,,,j,red,5a33d736bf4d770001e6097a,2021-09-28_13h04.37.204,forced_choiceRT_color,2021.2.3,Win32,60.04563468,,,,,,,,6,Ontime,long,j,1,2.0304,3,1,13,2,1,,,,,
,1.93,,,,,,,,,k,purple,5a33d736bf4d770001e6097a,2021-09-28_13h04.37.204,forced_choiceRT_color,2021.2.3,Win32,60.04563468,,,,,,,,6,Slow,long,k,1,2.1267,3,2,14,3,1,,,,,
,0.28,,,,,,,,,d,orange,5a33d736bf4d770001e6097a,2021-09-28_13h04.37.204,forced_choiceRT_color,2021.2.3,Win32,60.04563468,,,,,,,,6,Ontime,long,d,1,1.9282,3,3,15,0,1,,,,,
,0.04,,,,,,,,,d,orange,5a33d736bf4d770001e6097a,2021-09-28_13h04.37.204,forced_choiceRT_color,2021.2.3,Win32,60.04563468,,,,,,,,6,Ontime,long,d,1,1.9673,4,0,16,0,1,,,,,
,1.71,,,,,,,,,f,blue,5a33d736bf4d770001e6097a,2021-09-28_13h04.37.204,forced_choiceRT_color,2021.2.3,Win32,60.04563468,,,,,,,,6,Ontime,long,f,1,2.0374,4,1,17,1,1,,,,,
,1.97,,,,,,,,,j,red,5a33d736bf4d770001e6097a,2021-09-28_13h04.37.204,forced_choiceRT_color,2021.2.3,Win32,60.04563468,,,,,,,,6,Slow,long,k,0,2.1981,4,2,18,2,1,,,,,
,0.19,,,,,,,,,f,blue,5a33d736bf4d770001e6097a,2021-09-28_13h04.37.204,forced_choiceRT_color,2021.2.3,Win32,60.04563468,,,,,,,,6,Fast,long,f,1,1.8605,4,3,19,1,1,,,,,
,1.57,,,,,,,,,d,orange,5a33d736bf4d770001e6097a,2021-09-28_13h04.37.204,forced_choiceRT_color,2021.2.3,Win32,60.04563468,,,,,,,,6,Fast,long,d,1,0.099,5,0,20,0,1,,,,,
,0.94,,,,,,,,,k,purple,5a33d736bf4d770001e6097a,2021-09-28_13h04.37.204,forced_choiceRT_color,2021.2.3,Win32,60.04563468,,,,,,,,6,Ontime,long,k,1,2.0227,5,1,21,3,1,,,,,
,1.46,,,,,,,,,f,blue,5a33d736bf4d770001e6097a,2021-09-28_13h04.37.204,forced_choiceRT_color,2021.2.3,Win32,60.04563468,,,,,,,,6,Ontime,long,f,1,2.0935,5,2,22,1,1,,,,,
,0.97,,,,,,,,,d,orange,5a33d736bf4d770001e6097a,2021-09-28_13h04.37.204,forced_choiceRT_color,2021.2.3,Win32,60.04563468,,,,,,,,6,Ontime,long,d,1,1.9284,5,3,23,0,1,,,,,
,0.15,,,,,,,,,d,orange,5a33d736bf4d770001e6097a,2021-09-28_13h04.37.204,forced_choiceRT_color,2021.2.3,Win32,60.04563468,,,,,,,,6,Fast,long,d,1,1.7944,6,0,24,0,1,,,,,
,0.84,,,,,,,,,k,purple,5a33d736bf4d770001e6097a,2021-09-28_13h04.37.204,forced_choiceRT_color,2021.2.3,Win32,60.04563468,,,,,,,,6,Fast,long,k,1,1.8829,6,1,25,3,1,,,,,
,1.42,,,,,,,,,f,blue,5a33d736bf4d770001e6097a,2021-09-28_13h04.37.204,forced_choiceRT_color,2021.2.3,Win32,60.04563468,,,,,,,,6,Ontime,long,f,1,1.9377,6,2,26,1,1,,,,,
,1.38,,,,,,,,,k,purple,5a33d736bf4d770001e6097a,2021-09-28_13h04.37.204,forced_choiceRT_color,2021.2.3,Win32,60.04563468,,,,,,,,6,Ontime,long,k,1,2.0556,6,3,27,3,1,,,,,
,0.25,,,,,,,,,f,blue,5a33d736bf4d770001e6097a,2021-09-28_13h04.37.204,forced_choiceRT_color,2021.2.3,Win32,60.04563468,,,,,,,,6,Fast,long,d,0,1.4506,7,0,28,1,1,,,,,
,0.33,,,,,,,,,k,purple,5a33d736bf4d770001e6097a,2021-09-28_13h04.37.204,forced_choiceRT_color,2021.2.3,Win32,60.04563468,,,,,,,,6,Fast,long,k,1,1.8843,7,1,29,3,1,,,,,
,1.45,,,,,,,,,j,red,5a33d736bf4d770001e6097a,2021-09-28_13h04.37.204,forced_choiceRT_color,2021.2.3,Win32,60.04563468,,,,,,,,6,Slow,long,j,1,2.1456,7,2,30,2,1,,,,,
,1.69,,,,,,,,,j,red,5a33d736bf4d770001e6097a,2021-09-28_13h04.37.204,forced_choiceRT_color,2021.2.3,Win32,60.04563468,,,,,,,,6,Slow,long,j,1,2.1547,7,3,31,2,1,,,,,
,0.56,,,,,,,,,j,red,5a33d736bf4d770001e6097a,2021-09-28_13h04.37.204,forced_choiceRT_color,2021.2.3,Win32,60.04563468,,,,,,,,6,Ontime,long,j,1,1.9991,8,0,32,2,1,,,,,
,1.64,,,,,,,,,k,purple,5a33d736bf4d770001e6097a,2021-09-28_13h04.37.204,forced_choiceRT_color,2021.2.3,Win32,60.04563468,,,,,,,,6,Ontime,long,k,1,2.0371,8,1,33,3,1,,,,,
,1.2,,,,,,,,,j,red,5a33d736bf4d770001e6097a,2021-09-28_13h04.37.204,forced_choiceRT_color,2021.2.3,Win32,60.04563468,,,,,,,,6,Ontime,long,j,1,2.0304,8,2,34,2,1,,,,,
,0.92,,,,,,,,,d,orange,5a33d736bf4d770001e6097a,2021-09-28_13h04.37.204,forced_choiceRT_color,2021.2.3,Win32,60.04563468,,,,,,,,6,Ontime,long,d,1,2.0138,8,3,35,0,1,,,,,
,0.75,,,,,,,,,f,blue,5a33d736bf4d770001e6097a,2021-09-28_13h04.37.204,forced_choiceRT_color,2021.2.3,Win32,60.04563468,,,,,,,,6,Ontime,long,f,1,2.0667,9,0,36,1,1,,,,,
,1.34,,,,,,,,,f,blue,5a33d736bf4d770001e6097a,2021-09-28_13h04.37.204,forced_choiceRT_color,2021.2.3,Win32,60.04563468,,,,,,,,6,Ontime,long,f,1,2.0692,9,1,37,1,1,,,,,
,0.37,,,,,,,,,k,purple,5a33d736bf4d770001e6097a,2021-09-28_13h04.37.204,forced_choiceRT_color,2021.2.3,Win32,60.04563468,,,,,,,,6,Fast,long,k,1,1.8717,9,2,38,3,1,,,,,
,1.18,,,,,,,,,d,orange,5a33d736bf4d770001e6097a,2021-09-28_13h04.37.204,forced_choiceRT_color,2021.2.3,Win32,60.04563468,,,,,,,,6,Slow,long,d,1,2.2781,9,3,39,0,1,,,,,
,,,,,,,,,,,,5a33d736bf4d770001e6097a,2021-09-28_13h04.37.204,forced_choiceRT_color,2021.2.3,Win32,60.04563468,,,,,,,,,,,,,,,,,,,5,0,5,0,1
,1.3,,,,,,,,,f,blue,5a33d736bf4d770001e6097a,2021-09-28_13h04.37.204,forced_choiceRT_color,2021.2.3,Win32,60.04563468,,,,,,,,7,Ontime,long,d,0,1.9624,0,0,0,1,1,,,,,
,1.11,,,,,,,,,f,blue,5a33d736bf4d770001e6097a,2021-09-28_13h04.37.204,forced_choiceRT_color,2021.2.3,Win32,60.04563468,,,,,,,,7,Ontime,long,f,1,1.919,0,1,1,1,1,,,,,
,1.74,,,,,,,,,f,blue,5a33d736bf4d770001e6097a,2021-09-28_13h04.37.204,forced_choiceRT_color,2021.2.3,Win32,60.04563468,,,,,,,,7,Slow,long,f,1,2.1915,0,2,2,1,1,,,,,
,1.18,,,,,,,,,j,red,5a33d736bf4d770001e6097a,2021-09-28_13h04.37.204,forced_choiceRT_color,2021.2.3,Win32,60.04563468,,,,,,,,7,Ontime,long,j,1,2.0178,0,3,3,2,1,,,,,
,0.4,,,,,,,,,j,red,5a33d736bf4d770001e6097a,2021-09-28_13h04.37.204,forced_choiceRT_color,2021.2.3,Win32,60.04563468,,,,,,,,7,Ontime,long,j,1,1.9812,1,0,4,2,1,,,,,
,0.52,,,,,,,,,k,purple,5a33d736bf4d770001e6097a,2021-09-28_13h04.37.204,forced_choiceRT_color,2021.2.3,Win32,60.04563468,,,,,,,,7,Fast,long,k,1,1.879,1,1,5,3,1,,,,,
,0.49,,,,,,,,,d,orange,5a33d736bf4d770001e6097a,2021-09-28_13h04.37.204,forced_choiceRT_color,2021.2.3,Win32,60.04563468,,,,,,,,7,Ontime,long,d,1,1.9278,1,2,6,0,1,,,,,
,0.49,,,,,,,,,f,blue,5a33d736bf4d770001e6097a,2021-09-28_13h04.37.204,forced_choiceRT_color,2021.2.3,Win32,60.04563468,,,,,,,,7,Ontime,long,f,1,1.9736,1,3,7,1,1,,,,,
,1.64,,,,,,,,,d,orange,5a33d736bf4d770001e6097a,2021-09-28_13h04.37.204,forced_choiceRT_color,2021.2.3,Win32,60.04563468,,,,,,,,7,Fast,long,d,1,0.4036,2,0,8,0,1,,,,,
,0.19,,,,,,,,,d,orange,5a33d736bf4d770001e6097a,2021-09-28_13h04.37.204,forced_choiceRT_color,2021.2.3,Win32,60.04563468,,,,,,,,7,Fast,long,d,1,1.8216,2,1,9,0,1,,,,,
,1.97,,,,,,,,,k,purple,5a33d736bf4d770001e6097a,2021-09-28_13h04.37.204,forced_choiceRT_color,2021.2.3,Win32,60.04563468,,,,,,,,7,Slow,long,j,0,2.2696,2,2,10,3,1,,,,,
,1.25,,,,,,,,,j,red,5a33d736bf4d770001e6097a,2021-09-28_13h04.37.204,forced_choiceRT_color,2021.2.3,Win32,60.04563468,,,,,,,,7,Fast,long,k,0,1.7446,2,3,11,2,1,,,,,
,1.04,,,,,,,,,j,red,5a33d736bf4d770001e6097a,2021-09-28_13h04.37.204,forced_choiceRT_color,2021.2.3,Win32,60.04563468,,,,,,,,7,Ontime,long,j,1,1.9122,3,0,12,2,1,,,,,
,1.88,,,,,,,,,f,blue,5a33d736bf4d770001e6097a,2021-09-28_13h04.37.204,forced_choiceRT_color,2021.2.3,Win32,60.04563468,,,,,,,,7,Slow,long,f,1,2.3942,3,1,13,1,1,,,,,
,1.09,,,,,,,,,f,blue,5a33d736bf4d770001e6097a,2021-09-28_13h04.37.204,forced_choiceRT_color,2021.2.3,Win32,60.04563468,,,,,,,,7,Ontime,long,f,1,2.0713,3,2,14,1,1,,,,,
,0.87,,,,,,,,,d,orange,5a33d736bf4d770001e6097a,2021-09-28_13h04.37.204,forced_choiceRT_color,2021.2.3,Win32,60.04563468,,,,,,,,7,Ontime,long,d,1,1.9187,3,3,15,0,1,,,,,
,0.4,,,,,,,,,j,red,5a33d736bf4d770001e6097a,2021-09-28_13h04.37.204,forced_choiceRT_color,2021.2.3,Win32,60.04563468,,,,,,,,7,Ontime,long,k,0,1.9992,4,0,16,2,1,,,,,
,1.14,,,,,,,,,k,purple,5a33d736bf4d770001e6097a,2021-09-28_13h04.37.204,forced_choiceRT_color,2021.2.3,Win32,60.04563468,,,,,,,,7,Slow,long,k,1,2.1849,4,1,17,3,1,,,,,
,0.96,,,,,,,,,j,red,5a33d736bf4d770001e6097a,2021-09-28_13h04.37.204,forced_choiceRT_color,2021.2.3,Win32,60.04563468,,,,,,,,7,Ontime,long,j,1,2.0772,4,2,18,2,1,,,,,
,1.39,,,,,,,,,k,purple,5a33d736bf4d770001e6097a,2021-09-28_13h04.37.204,forced_choiceRT_color,2021.2.3,Win32,60.04563468,,,,,,,,7,Ontime,long,k,1,1.9779,4,3,19,3,1,,,,,
,0.42,,,,,,,,,f,blue,5a33d736bf4d770001e6097a,2021-09-28_13h04.37.204,forced_choiceRT_color,2021.2.3,Win32,60.04563468,,,,,,,,7,Ontime,long,f,1,2.0937,5,0,20,1,1,,,,,
,0.08,,,,,,,,,j,red,5a33d736bf4d770001e6097a,2021-09-28_13h04.37.204,forced_choiceRT_color,2021.2.3,Win32,60.04563468,,,,,,,,7,Ontime,long,j,1,1.9823,5,1,21,2,1,,,,,
,1.8,,,,,,,,,k,purple,5a33d736bf4d770001e6097a,2021-09-28_13h04.37.204,forced_choiceRT_color,2021.2.3,Win32,60.04563468,,,,,,,,7,Slow,long,k,1,2.2133,5,2,22,3,1,,,,,
,1.22,,,,,,,,,d,orange,5a33d736bf4d770001e6097a,2021-09-28_13h04.37.204,forced_choiceRT_color,2021.2.3,Win32,60.04563468,,,,,,,,7,Ontime,long,d,1,1.9346,5,3,23,0,1,,,,,
,1.46,,,,,,,,,j,red,5a33d736bf4d770001e6097a,2021-09-28_13h04.37.204,forced_choiceRT_color,2021.2.3,Win32,60.04563468,,,,,,,,7,Fast,long,d,0,0.7545,6,0,24,2,1,,,,,
,1.1,,,,,,,,,d,orange,5a33d736bf4d770001e6097a,2021-09-28_13h04.37.204,forced_choiceRT_color,2021.2.3,Win32,60.04563468,,,,,,,,7,Ontime,long,d,1,1.9789,6,1,25,0,1,,,,,
,1.63,,,,,,,,,k,purple,5a33d736bf4d770001e6097a,2021-09-28_13h04.37.204,forced_choiceRT_color,2021.2.3,Win32,60.04563468,,,,,,,,7,Slow,long,k,1,2.1335,6,2,26,3,1,,,,,
,1,,,,,,,,,k,purple,5a33d736bf4d770001e6097a,2021-09-28_13h04.37.204,forced_choiceRT_color,2021.2.3,Win32,60.04563468,,,,,,,,7,Ontime,long,k,1,1.9887,6,3,27,3,1,,,,,
,0.37,,,,,,,,,d,orange,5a33d736bf4d770001e6097a,2021-09-28_13h04.37.204,forced_choiceRT_color,2021.2.3,Win32,60.04563468,,,,,,,,7,Fast,long,d,1,1.8102,7,0,28,0,1,,,,,
,1.23,,,,,,,,,f,blue,5a33d736bf4d770001e6097a,2021-09-28_13h04.37.204,forced_choiceRT_color,2021.2.3,Win32,60.04563468,,,,,,,,7,Ontime,long,f,1,2.0707,7,1,29,1,1,,,,,
,0.39,,,,,,,,,j,red,5a33d736bf4d770001e6097a,2021-09-28_13h04.37.204,forced_choiceRT_color,2021.2.3,Win32,60.04563468,,,,,,,,7,Ontime,long,j,1,2.0708,7,2,30,2,1,,,,,
,0.47,,,,,,,,,f,blue,5a33d736bf4d770001e6097a,2021-09-28_13h04.37.204,forced_choiceRT_color,2021.2.3,Win32,60.04563468,,,,,,,,7,Ontime,long,f,1,2.062,7,3,31,1,1,,,,,
,1.01,,,,,,,,,k,purple,5a33d736bf4d770001e6097a,2021-09-28_13h04.37.204,forced_choiceRT_color,2021.2.3,Win32,60.04563468,,,,,,,,7,Ontime,long,k,1,2.0405,8,0,32,3,1,,,,,
,1.25,,,,,,,,,d,orange,5a33d736bf4d770001e6097a,2021-09-28_13h04.37.204,forced_choiceRT_color,2021.2.3,Win32,60.04563468,,,,,,,,7,Ontime,long,d,1,1.995,8,1,33,0,1,,,,,
,0.69,,,,,,,,,j,red,5a33d736bf4d770001e6097a,2021-09-28_13h04.37.204,forced_choiceRT_color,2021.2.3,Win32,60.04563468,,,,,,,,7,Fast,long,d,0,1.3771,8,2,34,2,1,,,,,
,1.91,,,,,,,,,d,orange,5a33d736bf4d770001e6097a,2021-09-28_13h04.37.204,forced_choiceRT_color,2021.2.3,Win32,60.04563468,,,,,,,,7,Slow,long,d,1,2.5538,8,3,35,0,1,,,,,
,1.96,,,,,,,,,f,blue,5a33d736bf4d770001e6097a,2021-09-28_13h04.37.204,forced_choiceRT_color,2021.2.3,Win32,60.04563468,,,,,,,,7,Slow,long,j,0,2.3269,9,0,36,1,1,,,,,
,0.73,,,,,,,,,d,orange,5a33d736bf4d770001e6097a,2021-09-28_13h04.37.204,forced_choiceRT_color,2021.2.3,Win32,60.04563468,,,,,,,,7,Ontime,long,d,1,2.0192,9,1,37,0,1,,,,,
,1.77,,,,,,,,,k,purple,5a33d736bf4d770001e6097a,2021-09-28_13h04.37.204,forced_choiceRT_color,2021.2.3,Win32,60.04563468,,,,,,,,7,Slow,long,k,1,2.2224,9,2,38,3,1,,,,,
,1.67,,,,,,,,,k,purple,5a33d736bf4d770001e6097a,2021-09-28_13h04.37.204,forced_choiceRT_color,2021.2.3,Win32,60.04563468,,,,,,,,7,Slow,long,k,1,2.1729,9,3,39,3,1,,,,,
,,,,,,,,,,,,5a33d736bf4d770001e6097a,2021-09-28_13h04.37.204,forced_choiceRT_color,2021.2.3,Win32,60.04563468,,,,,,,,,,,,,,,,,,,6,0,6,0,1
,1.2,,,,,,,,,j,red,5a33d736bf4d770001e6097a,2021-09-28_13h04.37.204,forced_choiceRT_color,2021.2.3,Win32,60.04563468,,,,,,,,8,Slow,long,f,0,2.1914,0,0,0,2,1,,,,,
,0.47,,,,,,,,,j,red,5a33d736bf4d770001e6097a,2021-09-28_13h04.37.204,forced_choiceRT_color,2021.2.3,Win32,60.04563468,,,,,,,,8,Ontime,long,j,1,1.9539,0,1,1,2,1,,,,,
,0.41,,,,,,,,,k,purple,5a33d736bf4d770001e6097a,2021-09-28_13h04.37.204,forced_choiceRT_color,2021.2.3,Win32,60.04563468,,,,,,,,8,Ontime,long,k,1,1.9376,0,2,2,3,1,,,,,
,0.96,,,,,,,,,k,purple,5a33d736bf4d770001e6097a,2021-09-28_13h04.37.204,forced_choiceRT_color,2021.2.3,Win32,60.04563468,,,,,,,,8,Ontime,long,k,1,1.95,0,3,3,3,1,,,,,
,1.19,,,,,,,,,d,orange,5a33d736bf4d770001e6097a,2021-09-28_13h04.37.204,forced_choiceRT_color,2021.2.3,Win32,60.04563468,,,,,,,,8,Ontime,long,d,1,1.999,1,0,4,0,1,,,,,
,0.4,,,,,,,,,f,blue,5a33d736bf4d770001e6097a,2021-09-28_13h04.37.204,forced_choiceRT_color,2021.2.3,Win32,60.04563468,,,,,,,,8,Ontime,long,f,1,1.9945,1,1,5,1,1,,,,,
,1.7,,,,,,,,,j,red,5a33d736bf4d770001e6097a,2021-09-28_13h04.37.204,forced_choiceRT_color,2021.2.3,Win32,60.04563468,,,,,,,,8,Slow,long,j,1,2.1105,1,2,6,2,1,,,,,
,0.55,,,,,,,,,k,purple,5a33d736bf4d770001e6097a,2021-09-28_13h04.37.204,forced_choiceRT_color,2021.2.3,Win32,60.04563468,,,,,,,,8,Ontime,long,k,1,1.9556,1,3,7,3,1,,,,,
,1.51,,,,,,,,,j,red,5a33d736bf4d770001e6097a,2021-09-28_13h04.37.204,forced_choiceRT_color,2021.2.3,Win32,60.04563468,,,,,,,,8,Ontime,long,j,1,2.0866,2,0,8,2,1,,,,,
,0.83,,,,,,,,,d,orange,5a33d736bf4d770001e6097a,2021-09-28_13h04.37.204,forced_choiceRT_color,2021.2.3,Win32,60.04563468,,,,,,,,8,Ontime,long,d,1,1.9601,2,1,9,0,1,,,,,
,0.11,,,,,,,,,f,blue,5a33d736bf4d770001e6097a,2021-09-28_13h04.37.204,forced_choiceRT_color,2021.2.3,Win32,60.04563468,,,,,,,,8,Ontime,long,f,1,1.9293,2,2,10,1,1,,,,,
,0.46,,,,,,,,,f,blue,5a33d736bf4d770001e6097a,2021-09-28_13h04.37.204,forced_choiceRT_color,2021.2.3,Win32,60.04563468,,,,,,,,8,Ontime,long,f,1,1.985,2,3,11,1,1,,,,,
,1.28,,,,,,,,,d,orange,5a33d736bf4d770001e6097a,2021-09-28_13h04.37.204,forced_choiceRT_color,2021.2.3,Win32,60.04563468,,,,,,,,8,Ontime,long,f,0,1.9312,3,0,12,0,1,,,,,
,0.14,,,,,,,,,j,red,5a33d736bf4d770001e6097a,2021-09-28_13h04.37.204,forced_choiceRT_color,2021.2.3,Win32,60.04563468,,,,,,,,8,Ontime,long,j,1,1.929,3,1,13,2,1,,,,,
,0.47,,,,,,,,,k,purple,5a33d736bf4d770001e6097a,2021-09-28_13h04.37.204,forced_choiceRT_color,2021.2.3,Win32,60.04563468,,,,,,,,8,Ontime,long,k,1,1.9184,3,2,14,3,1,,,,,
,1.74,,,,,,,,,j,red,5a33d736bf4d770001e6097a,2021-09-28_13h04.37.204,forced_choiceRT_color,2021.2.3,Win32,60.04563468,,,,,,,,8,Fast,long,k,0,1.1337,3,3,15,2,1,,,,,
,1.81,,,,,,,,,d,orange,5a33d736bf4d770001e6097a,2021-09-28_13h04.37.204,forced_choiceRT_color,2021.2.3,Win32,60.04563468,,,,,,,,8,Slow,long,d,1,2.3278,4,0,16,0,1,,,,,
,0.83,,,,,,,,,f,blue,5a33d736bf4d770001e6097a,2021-09-28_13h04.37.204,forced_choiceRT_color,2021.2.3,Win32,60.04563468,,,,,,,,8,Ontime,long,f,1,2.0629,4,1,17,1,1,,,,,
,0.65,,,,,,,,,k,purple,5a33d736bf4d770001e6097a,2021-09-28_13h04.37.204,forced_choiceRT_color,2021.2.3,Win32,60.04563468,,,,,,,,8,Ontime,long,k,1,2.0524,4,2,18,3,1,,,,,
,0.63,,,,,,,,,d,orange,5a33d736bf4d770001e6097a,2021-09-28_13h04.37.204,forced_choiceRT_color,2021.2.3,Win32,60.04563468,,,,,,,,8,Ontime,long,d,1,2.0162,4,3,19,0,1,,,,,
,1.62,,,,,,,,,f,blue,5a33d736bf4d770001e6097a,2021-09-28_13h04.37.204,forced_choiceRT_color,2021.2.3,Win32,60.04563468,,,,,,,,8,Slow,long,f,1,2.2057,5,0,20,1,1,,,,,
,0.3,,,,,,,,,k,purple,5a33d736bf4d770001e6097a,2021-09-28_13h04.37.204,forced_choiceRT_color,2021.2.3,Win32,60.04563468,,,,,,,,8,Fast,long,k,1,1.812,5,1,21,3,1,,,,,
,0.71,,,,,,,,,f,blue,5a33d736bf4d770001e6097a,2021-09-28_13h04.37.204,forced_choiceRT_color,2021.2.3,Win32,60.04563468,,,,,,,,8,Ontime,long,f,1,2.0614,5,2,22,1,1,,,,,
,0.18,,,,,,,,,k,purple,5a33d736bf4d770001e6097a,2021-09-28_13h04.37.204,forced_choiceRT_color,2021.2.3,Win32,60.04563468,,,,,,,,8,Ontime,long,k,1,1.9037,5,3,23,3,1,,,,,
,0.34,,,,,,,,,j,red,5a33d736bf4d770001e6097a,2021-09-28_13h04.37.204,forced_choiceRT_color,2021.2.3,Win32,60.04563468,,,,,,,,8,Ontime,long,j,1,2.0164,6,0,24,2,1,,,,,
,0.33,,,,,,,,,d,orange,5a33d736bf4d770001e6097a,2021-09-28_13h04.37.204,forced_choiceRT_color,2021.2.3,Win32,60.04563468,,,,,,,,8,Ontime,long,d,1,1.954,6,1,25,0,1,,,,,
,0.59,,,,,,,,,f,blue,5a33d736bf4d770001e6097a,2021-09-28_13h04.37.204,forced_choiceRT_color,2021.2.3,Win32,60.04563468,,,,,,,,8,Ontime,long,f,1,2.0228,6,2,26,1,1,,,,,
,0.79,,,,,,,,,d,orange,5a33d736bf4d770001e6097a,2021-09-28_13h04.37.204,forced_choiceRT_color,2021.2.3,Win32,60.04563468,,,,,,,,8,Ontime,long,d,1,2.047,6,3,27,0,1,,,,,
,0.83,,,,,,,,,d,orange,5a33d736bf4d770001e6097a,2021-09-28_13h04.37.204,forced_choiceRT_color,2021.2.3,Win32,60.04563468,,,,,,,,8,Ontime,long,d,1,1.9954,7,0,28,0,1,,,,,
,0.15,,,,,,,,,j,red,5a33d736bf4d770001e6097a,2021-09-28_13h04.37.204,forced_choiceRT_color,2021.2.3,Win32,60.04563468,,,,,,,,8,Ontime,long,j,1,2.0131,7,1,29,2,1,,,,,
,0.44,,,,,,,,,k,purple,5a33d736bf4d770001e6097a,2021-09-28_13h04.37.204,forced_choiceRT_color,2021.2.3,Win32,60.04563468,,,,,,,,8,Ontime,long,k,1,1.9385,7,2,30,3,1,,,,,
,0.86,,,,,,,,,k,purple,5a33d736bf4d770001e6097a,2021-09-28_13h04.37.204,forced_choiceRT_color,2021.2.3,Win32,60.04563468,,,,,,,,8,Slow,long,k,1,2.2874,7,3,31,3,1,,,,,
,1.39,,,,,,,,,j,red,5a33d736bf4d770001e6097a,2021-09-28_13h04.37.204,forced_choiceRT_color,2021.2.3,Win32,60.04563468,,,,,,,,8,Ontime,long,j,1,2.0883,8,0,32,2,1,,,,,
,0.54,,,,,,,,,f,blue,5a33d736bf4d770001e6097a,2021-09-28_13h04.37.204,forced_choiceRT_color,2021.2.3,Win32,60.04563468,,,,,,,,8,Ontime,long,f,1,2.0772,8,1,33,1,1,,,,,
,1.8,,,,,,,,,d,orange,5a33d736bf4d770001e6097a,2021-09-28_13h04.37.204,forced_choiceRT_color,2021.2.3,Win32,60.04563468,,,,,,,,8,Slow,long,d,1,2.1611,8,2,34,0,1,,,,,
,1.46,,,,,,,,,f,blue,5a33d736bf4d770001e6097a,2021-09-28_13h04.37.204,forced_choiceRT_color,2021.2.3,Win32,60.04563468,,,,,,,,8,Ontime,long,f,1,1.9375,8,3,35,1,1,,,,,
,0.03,,,,,,,,,k,purple,5a33d736bf4d770001e6097a,2021-09-28_13h04.37.204,forced_choiceRT_color,2021.2.3,Win32,60.04563468,,,,,,,,8,Ontime,long,k,1,1.9809,9,0,36,3,1,,,,,
,1.64,,,,,,,,,d,orange,5a33d736bf4d770001e6097a,2021-09-28_13h04.37.204,forced_choiceRT_color,2021.2.3,Win32,60.04563468,,,,,,,,8,Slow,long,d,1,2.1279,9,1,37,0,1,,,,,
,1.82,,,,,,,,,j,red,5a33d736bf4d770001e6097a,2021-09-28_13h04.37.204,forced_choiceRT_color,2021.2.3,Win32,60.04563468,,,,,,,,8,Slow,long,j,1,2.4492,9,2,38,2,1,,,,,
,0.56,,,,,,,,,f,blue,5a33d736bf4d770001e6097a,2021-09-28_13h04.37.204,forced_choiceRT_color,2021.2.3,Win32,60.04563468,,,,,,,,8,Ontime,long,f,1,2.0189,9,3,39,1,1,,,,,
,,,,,,,,,,,,5a33d736bf4d770001e6097a,2021-09-28_13h04.37.204,forced_choiceRT_color,2021.2.3,Win32,60.04563468,,,,,,,,,,,,,,,,,,,7,0,7,0,1
,1.43,,,,,,,,,j,red,5a33d736bf4d770001e6097a,2021-09-28_13h04.37.204,forced_choiceRT_color,2021.2.3,Win32,60.04563468,,,,,,,,9,Ontime,long,j,1,2.0237,0,0,0,2,1,,,,,
,0.53,,,,,,,,,j,red,5a33d736bf4d770001e6097a,2021-09-28_13h04.37.204,forced_choiceRT_color,2021.2.3,Win32,60.04563468,,,,,,,,9,Fast,long,j,1,1.1216,0,1,1,2,1,,,,,
,1.73,,,,,,,,,f,blue,5a33d736bf4d770001e6097a,2021-09-28_13h04.37.204,forced_choiceRT_color,2021.2.3,Win32,60.04563468,,,,,,,,9,Ontime,long,f,1,2.0666,0,2,2,1,1,,,,,
,0.63,,,,,,,,,d,orange,5a33d736bf4d770001e6097a,2021-09-28_13h04.37.204,forced_choiceRT_color,2021.2.3,Win32,60.04563468,,,,,,,,9,Ontime,long,d,1,1.9986,0,3,3,0,1,,,,,
,0.12,,,,,,,,,d,orange,5a33d736bf4d770001e6097a,2021-09-28_13h04.37.204,forced_choiceRT_color,2021.2.3,Win32,60.04563468,,,,,,,,9,Fast,long,d,1,1.8345,1,0,4,0,1,,,,,
,0.43,,,,,,,,,k,purple,5a33d736bf4d770001e6097a,2021-09-28_13h04.37.204,forced_choiceRT_color,2021.2.3,Win32,60.04563468,,,,,,,,9,Ontime,long,k,1,1.9086,1,1,5,3,1,,,,,
,1.69,,,,,,,,,k,purple,5a33d736bf4d770001e6097a,2021-09-28_13h04.37.204,forced_choiceRT_color,2021.2.3,Win32,60.04563468,,,,,,,,9,Ontime,long,k,1,2.0976,1,2,6,3,1,,,,,
,1.72,,,,,,,,,d,orange,5a33d736bf4d770001e6097a,2021-09-28_13h04.37.204,forced_choiceRT_color,2021.2.3,Win32,60.04563468,,,,,,,,9,Slow,long,d,1,2.2495,1,3,7,0,1,,,,,
,1.72,,,,,,,,,f,blue,5a33d736bf4d770001e6097a,2021-09-28_13h04.37.204,forced_choiceRT_color,2021.2.3,Win32,60.04563468,,,,,,,,9,Slow,long,f,1,2.1,2,0,8,1,1,,,,,
,1.12,,,,,,,,,d,orange,5a33d736bf4d770001e6097a,2021-09-28_13h04.37.204,forced_choiceRT_color,2021.2.3,Win32,60.04563468,,,,,,,,9,Ontime,long,d,1,1.9432,2,1,9,0,1,,,,,
,0.65,,,,,,,,,j,red,5a33d736bf4d770001e6097a,2021-09-28_13h04.37.204,forced_choiceRT_color,2021.2.3,Win32,60.04563468,,,,,,,,9,Slow,long,j,1,2.2298,2,2,10,2,1,,,,,
,0.07,,,,,,,,,j,red,5a33d736bf4d770001e6097a,2021-09-28_13h04.37.204,forced_choiceRT_color,2021.2.3,Win32,60.04563468,,,,,,,,9,Ontime,long,j,1,1.9995,2,3,11,2,1,,,,,
,0.47,,,,,,,,,j,red,5a33d736bf4d770001e6097a,2021-09-28_13h04.37.204,forced_choiceRT_color,2021.2.3,Win32,60.04563468,,,,,,,,9,Fast,long,j,1,1.8624,3,0,12,2,1,,,,,
,0.41,,,,,,,,,k,purple,5a33d736bf4d770001e6097a,2021-09-28_13h04.37.204,forced_choiceRT_color,2021.2.3,Win32,60.04563468,,,,,,,,9,Ontime,long,k,1,2.0122,3,1,13,3,1,,,,,
,0.64,,,,,,,,,f,blue,5a33d736bf4d770001e6097a,2021-09-28_13h04.37.204,forced_choiceRT_color,2021.2.3,Win32,60.04563468,,,,,,,,9,Slow,long,f,1,2.1299,3,2,14,1,1,,,,,
,1.98,,,,,,,,,d,orange,5a33d736bf4d770001e6097a,2021-09-28_13h04.37.204,forced_choiceRT_color,2021.2.3,Win32,60.04563468,,,,,,,,9,Slow,long,k,0,2.269,3,3,15,0,1,,,,,
,0.3,,,,,,,,,k,purple,5a33d736bf4d770001e6097a,2021-09-28_13h04.37.204,forced_choiceRT_color,2021.2.3,Win32,60.04563468,,,,,,,,9,Ontime,long,k,1,1.9325,4,0,16,3,1,,,,,
,1.46,,,,,,,,,f,blue,5a33d736bf4d770001e6097a,2021-09-28_13h04.37.204,forced_choiceRT_color,2021.2.3,Win32,60.04563468,,,,,,,,9,Slow,long,f,1,2.1128,4,1,17,1,1,,,,,
,1.29,,,,,,,,,d,orange,5a33d736bf4d770001e6097a,2021-09-28_13h04.37.204,forced_choiceRT_color,2021.2.3,Win32,60.04563468,,,,,,,,9,Ontime,long,d,1,2.0042,4,2,18,0,1,,,,,
,1.91,,,,,,,,,d,orange,5a33d736bf4d770001e6097a,2021-09-28_13h04.37.204,forced_choiceRT_color,2021.2.3,Win32,60.04563468,,,,,,,,9,Slow,long,j,0,2.297,4,3,19,0,1,,,,,
,1.53,,,,,,,,,f,blue,5a33d736bf4d770001e6097a,2021-09-28_13h04.37.204,forced_choiceRT_color,2021.2.3,Win32,60.04563468,,,,,,,,9,Slow,long,d,0,2.108,5,0,20,1,1,,,,,
,0.71,,,,,,,,,j,red,5a33d736bf4d770001e6097a,2021-09-28_13h04.37.204,forced_choiceRT_color,2021.2.3,Win32,60.04563468,,,,,,,,9,Slow,long,j,1,2.1591,5,1,21,2,1,,,,,
,1.7,,,,,,,,,k,purple,5a33d736bf4d770001e6097a,2021-09-28_13h04.37.204,forced_choiceRT_color,2021.2.3,Win32,60.04563468,,,,,,,,9,Slow,long,j,0,2.26,5,2,22,3,1,,,,,
,0.77,,,,,,,,,k,purple,5a33d736bf4d770001e6097a,2021-09-28_13h04.37.204,forced_choiceRT_color,2021.2.3,Win32,60.04563468,,,,,,,,9,Ontime,long,k,1,1.9623,5,3,23,3,1,,,,,
,0.48,,,,,,,,,j,red,5a33d736bf4d770001e6097a,2021-09-28_13h04.37.204,forced_choiceRT_color,2021.2.3,Win32,60.04563468,,,,,,,,9,Ontime,long,j,1,1.952,6,0,24,2,1,,,,,
,1.75,,,,,,,,,d,orange,5a33d736bf4d770001e6097a,2021-09-28_13h04.37.204,forced_choiceRT_color,2021.2.3,Win32,60.04563468,,,,,,,,9,Slow,long,d,1,2.1779,6,1,25,0,1,,,,,
,0.61,,,,,,,,,j,red,5a33d736bf4d770001e6097a,2021-09-28_13h04.37.204,forced_choiceRT_color,2021.2.3,Win32,60.04563468,,,,,,,,9,Ontime,long,j,1,1.9184,6,2,26,2,1,,,,,
,1.07,,,,,,,,,f,blue,5a33d736bf4d770001e6097a,2021-09-28_13h04.37.204,forced_choiceRT_color,2021.2.3,Win32,60.04563468,,,,,,,,9,Fast,long,f,1,1.7869,6,3,27,1,1,,,,,
,0.11,,,,,,,,,k,purple,5a33d736bf4d770001e6097a,2021-09-28_13h04.37.204,forced_choiceRT_color,2021.2.3,Win32,60.04563468,,,,,,,,9,Ontime,long,k,1,1.9643,7,0,28,3,1,,,,,
,0.22,,,,,,,,,f,blue,5a33d736bf4d770001e6097a,2021-09-28_13h04.37.204,forced_choiceRT_color,2021.2.3,Win32,60.04563468,,,,,,,,9,Fast,long,f,1,1.8621,7,1,29,1,1,,,,,
,0.06,,,,,,,,,j,red,5a33d736bf4d770001e6097a,2021-09-28_13h04.37.204,forced_choiceRT_color,2021.2.3,Win32,60.04563468,,,,,,,,9,Fast,long,j,1,1.7864,7,2,30,2,1,,,,,
,1.45,,,,,,,,,d,orange,5a33d736bf4d770001e6097a,2021-09-28_13h04.37.204,forced_choiceRT_color,2021.2.3,Win32,60.04563468,,,,,,,,9,Ontime,long,f,0,1.9476,7,3,31,0,1,,,,,
,0.19,,,,,,,,,k,purple,5a33d736bf4d770001e6097a,2021-09-28_13h04.37.204,forced_choiceRT_color,2021.2.3,Win32,60.04563468,,,,,,,,9,Fast,long,k,1,1.4985,8,0,32,3,1,,,,,
,0.7,,,,,,,,,d,orange,5a33d736bf4d770001e6097a,2021-09-28_13h04.37.204,forced_choiceRT_color,2021.2.3,Win32,60.04563468,,,,,,,,9,Slow,long,d,1,2.1227,8,1,33,0,1,,,,,
,0.91,,,,,,,,,k,purple,5a33d736bf4d770001e6097a,2021-09-28_13h04.37.204,forced_choiceRT_color,2021.2.3,Win32,60.04563468,,,,,,,,9,Slow,long,k,1,2.1352,8,2,34,3,1,,,,,
,0.91,,,,,,,,,f,blue,5a33d736bf4d770001e6097a,2021-09-28_13h04.37.204,forced_choiceRT_color,2021.2.3,Win32,60.04563468,,,,,,,,9,Ontime,long,f,1,2.0062,8,3,35,1,1,,,,,
,1.5,,,,,,,,,j,red,5a33d736bf4d770001e6097a,2021-09-28_13h04.37.204,forced_choiceRT_color,2021.2.3,Win32,60.04563468,,,,,,,,9,Ontime,long,j,1,2.0899,9,0,36,2,1,,,,,
,0.78,,,,,,,,,k,purple,5a33d736bf4d770001e6097a,2021-09-28_13h04.37.204,forced_choiceRT_color,2021.2.3,Win32,60.04563468,,,,,,,,9,Ontime,long,k,1,1.981,9,1,37,3,1,,,,,
,1.14,,,,,,,,,f,blue,5a33d736bf4d770001e6097a,2021-09-28_13h04.37.204,forced_choiceRT_color,2021.2.3,Win32,60.04563468,,,,,,,,9,Ontime,long,f,1,2.0424,9,2,38,1,1,,,,,
,1.26,,,,,,,,,f,blue,5a33d736bf4d770001e6097a,2021-09-28_13h04.37.204,forced_choiceRT_color,2021.2.3,Win32,60.04563468,,,,,,,,9,Slow,long,f,1,2.1017,9,3,39,1,1,,,,,
,,,,,,,,,,,,5a33d736bf4d770001e6097a,2021-09-28_13h04.37.204,forced_choiceRT_color,2021.2.3,Win32,60.04563468,,,,,,,,,,,,,,,,,,,8,0,8,0,1
,0.78,,,,,,,,,k,purple,5a33d736bf4d770001e6097a,2021-09-28_13h04.37.204,forced_choiceRT_color,2021.2.3,Win32,60.04563468,,,,,,,,10,Ontime,long,k,1,2.0077,0,0,0,3,1,,,,,
,0.17,,,,,,,,,k,purple,5a33d736bf4d770001e6097a,2021-09-28_13h04.37.204,forced_choiceRT_color,2021.2.3,Win32,60.04563468,,,,,,,,10,Ontime,long,k,1,1.961,0,1,1,3,1,,,,,
,1.52,,,,,,,,,f,blue,5a33d736bf4d770001e6097a,2021-09-28_13h04.37.204,forced_choiceRT_color,2021.2.3,Win32,60.04563468,,,,,,,,10,Slow,long,f,1,2.1614,0,2,2,1,1,,,,,
,0.47,,,,,,,,,j,red,5a33d736bf4d770001e6097a,2021-09-28_13h04.37.204,forced_choiceRT_color,2021.2.3,Win32,60.04563468,,,,,,,,10,Ontime,long,j,1,1.9107,0,3,3,2,1,,,,,
,1.35,,,,,,,,,k,purple,5a33d736bf4d770001e6097a,2021-09-28_13h04.37.204,forced_choiceRT_color,2021.2.3,Win32,60.04563468,,,,,,,,10,Ontime,long,k,1,2.0122,1,0,4,3,1,,,,,
,0.78,,,,,,,,,j,red,5a33d736bf4d770001e6097a,2021-09-28_13h04.37.204,forced_choiceRT_color,2021.2.3,Win32,60.04563468,,,,,,,,10,Ontime,long,j,1,1.913,1,1,5,2,1,,,,,
,0.15,,,,,,,,,j,red,5a33d736bf4d770001e6097a,2021-09-28_13h04.37.204,forced_choiceRT_color,2021.2.3,Win32,60.04563468,,,,,,,,10,Ontime,long,j,1,2.0001,1,2,6,2,1,,,,,
,1.58,,,,,,,,,f,blue,5a33d736bf4d770001e6097a,2021-09-28_13h04.37.204,forced_choiceRT_color,2021.2.3,Win32,60.04563468,,,,,,,,10,Ontime,long,f,1,2.036,1,3,7,1,1,,,,,
,0.63,,,,,,,,,j,red,5a33d736bf4d770001e6097a,2021-09-28_13h04.37.204,forced_choiceRT_color,2021.2.3,Win32,60.04563468,,,,,,,,10,Ontime,long,j,1,2.0102,2,0,8,2,1,,,,,
,0.52,,,,,,,,,d,orange,5a33d736bf4d770001e6097a,2021-09-28_13h04.37.204,forced_choiceRT_color,2021.2.3,Win32,60.04563468,,,,,,,,10,Ontime,long,d,1,2.0283,2,1,9,0,1,,,,,
,1.61,,,,,,,,,d,orange,5a33d736bf4d770001e6097a,2021-09-28_13h04.37.204,forced_choiceRT_color,2021.2.3,Win32,60.04563468,,,,,,,,10,Ontime,long,d,1,2.0216,2,2,10,0,1,,,,,
,1.68,,,,,,,,,k,purple,5a33d736bf4d770001e6097a,2021-09-28_13h04.37.204,forced_choiceRT_color,2021.2.3,Win32,60.04563468,,,,,,,,10,Slow,long,k,1,2.1538,2,3,11,3,1,,,,,
,1.83,,,,,,,,,k,purple,5a33d736bf4d770001e6097a,2021-09-28_13h04.37.204,forced_choiceRT_color,2021.2.3,Win32,60.04563468,,,,,,,,10,Slow,long,k,1,2.2923,3,0,12,3,1,,,,,
,1.19,,,,,,,,,d,orange,5a33d736bf4d770001e6097a,2021-09-28_13h04.37.204,forced_choiceRT_color,2021.2.3,Win32,60.04563468,,,,,,,,10,Fast,long,f,0,1.7756,3,1,13,0,1,,,,,
,1.1,,,,,,,,,d,orange,5a33d736bf4d770001e6097a,2021-09-28_13h04.37.204,forced_choiceRT_color,2021.2.3,Win32,60.04563468,,,,,,,,10,Ontime,long,d,1,1.9953,3,2,14,0,1,,,,,
,1.2,,,,,,,,,j,red,5a33d736bf4d770001e6097a,2021-09-28_13h04.37.204,forced_choiceRT_color,2021.2.3,Win32,60.04563468,,,,,,,,10,Ontime,long,j,1,1.9524,3,3,15,2,1,,,,,
,1.39,,,,,,,,,f,blue,5a33d736bf4d770001e6097a,2021-09-28_13h04.37.204,forced_choiceRT_color,2021.2.3,Win32,60.04563468,,,,,,,,10,Ontime,long,f,1,1.9272,4,0,16,1,1,,,,,
,0.36,,,,,,,,,j,red,5a33d736bf4d770001e6097a,2021-09-28_13h04.37.204,forced_choiceRT_color,2021.2.3,Win32,60.04563468,,,,,,,,10,Fast,long,j,1,1.8963,4,1,17,2,1,,,,,
,1.1,,,,,,,,,f,blue,5a33d736bf4d770001e6097a,2021-09-28_13h04.37.204,forced_choiceRT_color,2021.2.3,Win32,60.04563468,,,,,,,,10,Fast,long,f,1,1.8825,4,2,18,1,1,,,,,
,0.14,,,,,,,,,k,purple,5a33d736bf4d770001e6097a,2021-09-28_13h04.37.204,forced_choiceRT_color,2021.2.3,Win32,60.04563468,,,,,,,,10,Ontime,long,k,1,1.9047,4,3,19,3,1,,,,,
,0.97,,,,,,,,,j,red,5a33d736bf4d770001e6097a,2021-09-28_13h04.37.204,forced_choiceRT_color,2021.2.3,Win32,60.04563468,,,,,,,,10,Slow,long,j,1,2.1008,5,0,20,2,1,,,,,
,1.5,,,,,,,,,j,red,5a33d736bf4d770001e6097a,2021-09-28_13h04.37.204,forced_choiceRT_color,2021.2.3,Win32,60.04563468,,,,,,,,10,Slow,long,j,1,2.1633,5,1,21,2,1,,,,,
,1.26,,,,,,,,,f,blue,5a33d736bf4d770001e6097a,2021-09-28_13h04.37.204,forced_choiceRT_color,2021.2.3,Win32,60.04563468,,,,,,,,10,Ontime,long,f,1,2.0826,5,2,22,1,1,,,,,
,0.22,,,,,,,,,f,blue,5a33d736bf4d770001e6097a,2021-09-28_13h04.37.204,forced_choiceRT_color,2021.2.3,Win32,60.04563468,,,,,,,,10,Ontime,long,f,1,2.035,5,3,23,1,1,,,,,
,0.64,,,,,,,,,j,red,5a33d736bf4d770001e6097a,2021-09-28_13h04.37.204,forced_choiceRT_color,2021.2.3,Win32,60.04563468,,,,,,,,10,Ontime,long,j,1,1.997,6,0,24,2,1,,,,,
,1.71,,,,,,,,,k,purple,5a33d736bf4d770001e6097a,2021-09-28_13h04.37.204,forced_choiceRT_color,2021.2.3,Win32,60.04563468,,,,,,,,10,Slow,long,k,1,2.178,6,1,25,3,1,,,,,
,1.46,,,,,,,,,f,blue,5a33d736bf4d770001e6097a,2021-09-28_13h04.37.204,forced_choiceRT_color,2021.2.3,Win32,60.04563468,,,,,,,,10,Ontime,long,f,1,2.0469,6,2,26,1,1,,,,,
,1.51,,,,,,,,,k,purple,5a33d736bf4d770001e6097a,2021-09-28_13h04.37.204,forced_choiceRT_color,2021.2.3,Win32,60.04563468,,,,,,,,10,Ontime,long,k,1,2.0309,6,3,27,3,1,,,,,
,0.38,,,,,,,,,d,orange,5a33d736bf4d770001e6097a,2021-09-28_13h04.37.204,forced_choiceRT_color,2021.2.3,Win32,60.04563468,,,,,,,,10,Ontime,long,d,1,1.9782,7,0,28,0,1,,,,,
,0.83,,,,,,,,,d,orange,5a33d736bf4d770001e6097a,2021-09-28_13h04.37.204,forced_choiceRT_color,2021.2.3,Win32,60.04563468,,,,,,,,10,Ontime,long,d,1,1.9489,7,1,29,0,1,,,,,
,1.12,,,,,,,,,d,orange,5a33d736bf4d770001e6097a,2021-09-28_13h04.37.204,forced_choiceRT_color,2021.2.3,Win32,60.04563468,,,,,,,,10,Ontime,long,d,1,1.9472,7,2,30,0,1,,,,,
,1.07,,,,,,,,,k,purple,5a33d736bf4d770001e6097a,2021-09-28_13h04.37.204,forced_choiceRT_color,2021.2.3,Win32,60.04563468,,,,,,,,10,Ontime,long,k,1,1.9857,7,3,31,3,1,,,,,
,0.59,,,,,,,,,d,orange,5a33d736bf4d770001e6097a,2021-09-28_13h04.37.204,forced_choiceRT_color,2021.2.3,Win32,60.04563468,,,,,,,,10,Ontime,long,d,1,1.9538,8,0,32,0,1,,,,,
,1.98,,,,,,,,,f,blue,5a33d736bf4d770001e6097a,2021-09-28_13h04.37.204,forced_choiceRT_color,2021.2.3,Win32,60.04563468,,,,,,,,10,Slow,long,j,0,2.3617,8,1,33,1,1,,,,,
,0.38,,,,,,,,,j,red,5a33d736bf4d770001e6097a,2021-09-28_13h04.37.204,forced_choiceRT_color,2021.2.3,Win32,60.04563468,,,,,,,,10,Ontime,long,j,1,1.9443,8,2,34,2,1,,,,,
,1.57,,,,,,,,,d,orange,5a33d736bf4d770001e6097a,2021-09-28_13h04.37.204,forced_choiceRT_color,2021.2.3,Win32,60.04563468,,,,,,,,10,Slow,long,d,1,2.1653,8,3,35,0,1,,,,,
,0.55,,,,,,,,,f,blue,5a33d736bf4d770001e6097a,2021-09-28_13h04.37.204,forced_choiceRT_color,2021.2.3,Win32,60.04563468,,,,,,,,10,Ontime,long,f,1,2.0288,9,0,36,1,1,,,,,
,1.23,,,,,,,,,f,blue,5a33d736bf4d770001e6097a,2021-09-28_13h04.37.204,forced_choiceRT_color,2021.2.3,Win32,60.04563468,,,,,,,,10,Ontime,long,f,1,2.0932,9,1,37,1,1,,,,,
,0.62,,,,,,,,,k,purple,5a33d736bf4d770001e6097a,2021-09-28_13h04.37.204,forced_choiceRT_color,2021.2.3,Win32,60.04563468,,,,,,,,10,Ontime,long,k,1,1.9296,9,2,38,3,1,,,,,
,1.86,,,,,,,,,d,orange,5a33d736bf4d770001e6097a,2021-09-28_13h04.37.204,forced_choiceRT_color,2021.2.3,Win32,60.04563468,,,,,,,,10,Slow,long,k,0,2.2902,9,3,39,0,1,,,,,
,,,,,,,,,,,,5a33d736bf4d770001e6097a,2021-09-28_13h04.37.204,forced_choiceRT_color,2021.2.3,Win32,60.04563468,,,,,,,,,,,,,,,,,,,9,0,9,0,1
