target_onset,trial_resp_sp.keys,trial_resp_sp.corr,trial_resp_sp.rt,trials_train_loop.thisRepN,trials_train_loop.thisTrialN,trials_train_loop.thisN,trials_train_loop.thisIndex,trials_train_loop.ran,correct_key,color,participant,date,expName,psychopyVersion,OS,frameRate,trial_resp_timing.keys,trial_resp_timing.rt,trials_train_timing.thisRepN,trials_train_timing.thisTrialN,trials_train_timing.thisN,trials_train_timing.thisIndex,trials_train_timing.ran,block_id,ontime,feedback_cond,forcedRT_resp.keys,forcedRT_resp.corr,forcedRT_resp.rt,trials.thisRepN,trials.thisTrialN,trials.thisN,trials.thisIndex,trials.ran,blocks.thisRepN,blocks.thisTrialN,blocks.thisN,blocks.thisIndex,blocks.ran
0,f,1,1.7045,0,0,0,1,1,f,blue,5baa8cafc67122000123cab1,2021-10-22_13h54.39.529,forced_choiceRT_color,2021.2.3,Win32,59.88382538,,,,,,,,,,,,,,,,,,,,,,,
0,d,1,0.8933,0,1,1,0,1,d,orange,5baa8cafc67122000123cab1,2021-10-22_13h54.39.529,forced_choiceRT_color,2021.2.3,Win32,59.88382538,,,,,,,,,,,,,,,,,,,,,,,
0,f,1,0.7693,0,2,2,1,1,f,blue,5baa8cafc67122000123cab1,2021-10-22_13h54.39.529,forced_choiceRT_color,2021.2.3,Win32,59.88382538,,,,,,,,,,,,,,,,,,,,,,,
0,k,1,0.7017,0,3,3,3,1,k,purple,5baa8cafc67122000123cab1,2021-10-22_13h54.39.529,forced_choiceRT_color,2021.2.3,Win32,59.88382538,,,,,,,,,,,,,,,,,,,,,,,
0,j,1,0.6189,1,0,4,2,1,j,red,5baa8cafc67122000123cab1,2021-10-22_13h54.39.529,forced_choiceRT_color,2021.2.3,Win32,59.88382538,,,,,,,,,,,,,,,,,,,,,,,
0,j,1,0.7566,1,1,5,2,1,j,red,5baa8cafc67122000123cab1,2021-10-22_13h54.39.529,forced_choiceRT_color,2021.2.3,Win32,59.88382538,,,,,,,,,,,,,,,,,,,,,,,
0,f,1,0.7664,1,2,6,1,1,f,blue,5baa8cafc67122000123cab1,2021-10-22_13h54.39.529,forced_choiceRT_color,2021.2.3,Win32,59.88382538,,,,,,,,,,,,,,,,,,,,,,,
0,f,1,0.4841,1,3,7,1,1,f,blue,5baa8cafc67122000123cab1,2021-10-22_13h54.39.529,forced_choiceRT_color,2021.2.3,Win32,59.88382538,,,,,,,,,,,,,,,,,,,,,,,
0,k,1,0.6388,2,0,8,3,1,k,purple,5baa8cafc67122000123cab1,2021-10-22_13h54.39.529,forced_choiceRT_color,2021.2.3,Win32,59.88382538,,,,,,,,,,,,,,,,,,,,,,,
0,f,1,0.7034,2,1,9,1,1,f,blue,5baa8cafc67122000123cab1,2021-10-22_13h54.39.529,forced_choiceRT_color,2021.2.3,Win32,59.88382538,,,,,,,,,,,,,,,,,,,,,,,
0,d,1,0.5936,2,2,10,0,1,d,orange,5baa8cafc67122000123cab1,2021-10-22_13h54.39.529,forced_choiceRT_color,2021.2.3,Win32,59.88382538,,,,,,,,,,,,,,,,,,,,,,,
0,k,1,0.5982,2,3,11,3,1,k,purple,5baa8cafc67122000123cab1,2021-10-22_13h54.39.529,forced_choiceRT_color,2021.2.3,Win32,59.88382538,,,,,,,,,,,,,,,,,,,,,,,
0,f,1,0.7919,3,0,12,1,1,f,blue,5baa8cafc67122000123cab1,2021-10-22_13h54.39.529,forced_choiceRT_color,2021.2.3,Win32,59.88382538,,,,,,,,,,,,,,,,,,,,,,,
0,d,1,1.233,3,1,13,0,1,d,orange,5baa8cafc67122000123cab1,2021-10-22_13h54.39.529,forced_choiceRT_color,2021.2.3,Win32,59.88382538,,,,,,,,,,,,,,,,,,,,,,,
0,d,1,0.8092,3,2,14,0,1,d,orange,5baa8cafc67122000123cab1,2021-10-22_13h54.39.529,forced_choiceRT_color,2021.2.3,Win32,59.88382538,,,,,,,,,,,,,,,,,,,,,,,
0,d,1,0.5145,3,3,15,0,1,d,orange,5baa8cafc67122000123cab1,2021-10-22_13h54.39.529,forced_choiceRT_color,2021.2.3,Win32,59.88382538,,,,,,,,,,,,,,,,,,,,,,,
0,j,1,0.5916,4,0,16,2,1,j,red,5baa8cafc67122000123cab1,2021-10-22_13h54.39.529,forced_choiceRT_color,2021.2.3,Win32,59.88382538,,,,,,,,,,,,,,,,,,,,,,,
0,f,1,0.6096,4,1,17,1,1,f,blue,5baa8cafc67122000123cab1,2021-10-22_13h54.39.529,forced_choiceRT_color,2021.2.3,Win32,59.88382538,,,,,,,,,,,,,,,,,,,,,,,
0,f,1,0.4909,4,2,18,1,1,f,blue,5baa8cafc67122000123cab1,2021-10-22_13h54.39.529,forced_choiceRT_color,2021.2.3,Win32,59.88382538,,,,,,,,,,,,,,,,,,,,,,,
0,k,1,0.5606,4,3,19,3,1,k,purple,5baa8cafc67122000123cab1,2021-10-22_13h54.39.529,forced_choiceRT_color,2021.2.3,Win32,59.88382538,,,,,,,,,,,,,,,,,,,,,,,
0,k,1,0.5178,5,0,20,3,1,k,purple,5baa8cafc67122000123cab1,2021-10-22_13h54.39.529,forced_choiceRT_color,2021.2.3,Win32,59.88382538,,,,,,,,,,,,,,,,,,,,,,,
0,j,1,0.6078,5,1,21,2,1,j,red,5baa8cafc67122000123cab1,2021-10-22_13h54.39.529,forced_choiceRT_color,2021.2.3,Win32,59.88382538,,,,,,,,,,,,,,,,,,,,,,,
0,j,1,0.4421,5,2,22,2,1,j,red,5baa8cafc67122000123cab1,2021-10-22_13h54.39.529,forced_choiceRT_color,2021.2.3,Win32,59.88382538,,,,,,,,,,,,,,,,,,,,,,,
0,f,0,0.5596,5,3,23,0,1,d,orange,5baa8cafc67122000123cab1,2021-10-22_13h54.39.529,forced_choiceRT_color,2021.2.3,Win32,59.88382538,,,,,,,,,,,,,,,,,,,,,,,
0,d,1,0.6143,6,0,24,0,1,d,orange,5baa8cafc67122000123cab1,2021-10-22_13h54.39.529,forced_choiceRT_color,2021.2.3,Win32,59.88382538,,,,,,,,,,,,,,,,,,,,,,,
0,j,1,0.591,6,1,25,2,1,j,red,5baa8cafc67122000123cab1,2021-10-22_13h54.39.529,forced_choiceRT_color,2021.2.3,Win32,59.88382538,,,,,,,,,,,,,,,,,,,,,,,
0,j,1,0.5694,6,2,26,2,1,j,red,5baa8cafc67122000123cab1,2021-10-22_13h54.39.529,forced_choiceRT_color,2021.2.3,Win32,59.88382538,,,,,,,,,,,,,,,,,,,,,,,
0,d,1,0.5306,6,3,27,0,1,d,orange,5baa8cafc67122000123cab1,2021-10-22_13h54.39.529,forced_choiceRT_color,2021.2.3,Win32,59.88382538,,,,,,,,,,,,,,,,,,,,,,,
0,d,1,0.5448,7,0,28,0,1,d,orange,5baa8cafc67122000123cab1,2021-10-22_13h54.39.529,forced_choiceRT_color,2021.2.3,Win32,59.88382538,,,,,,,,,,,,,,,,,,,,,,,
0,k,1,0.5441,7,1,29,3,1,k,purple,5baa8cafc67122000123cab1,2021-10-22_13h54.39.529,forced_choiceRT_color,2021.2.3,Win32,59.88382538,,,,,,,,,,,,,,,,,,,,,,,
0,f,1,0.6002,7,2,30,1,1,f,blue,5baa8cafc67122000123cab1,2021-10-22_13h54.39.529,forced_choiceRT_color,2021.2.3,Win32,59.88382538,,,,,,,,,,,,,,,,,,,,,,,
0,j,1,0.5186,7,3,31,2,1,j,red,5baa8cafc67122000123cab1,2021-10-22_13h54.39.529,forced_choiceRT_color,2021.2.3,Win32,59.88382538,,,,,,,,,,,,,,,,,,,,,,,
0,j,1,0.4703,8,0,32,2,1,j,red,5baa8cafc67122000123cab1,2021-10-22_13h54.39.529,forced_choiceRT_color,2021.2.3,Win32,59.88382538,,,,,,,,,,,,,,,,,,,,,,,
0,d,1,0.5409,8,1,33,0,1,d,orange,5baa8cafc67122000123cab1,2021-10-22_13h54.39.529,forced_choiceRT_color,2021.2.3,Win32,59.88382538,,,,,,,,,,,,,,,,,,,,,,,
0,f,1,0.6342,8,2,34,1,1,f,blue,5baa8cafc67122000123cab1,2021-10-22_13h54.39.529,forced_choiceRT_color,2021.2.3,Win32,59.88382538,,,,,,,,,,,,,,,,,,,,,,,
0,k,1,0.6014,8,3,35,3,1,k,purple,5baa8cafc67122000123cab1,2021-10-22_13h54.39.529,forced_choiceRT_color,2021.2.3,Win32,59.88382538,,,,,,,,,,,,,,,,,,,,,,,
0,k,1,0.5552,9,0,36,3,1,k,purple,5baa8cafc67122000123cab1,2021-10-22_13h54.39.529,forced_choiceRT_color,2021.2.3,Win32,59.88382538,,,,,,,,,,,,,,,,,,,,,,,
0,j,1,0.6372,9,1,37,2,1,j,red,5baa8cafc67122000123cab1,2021-10-22_13h54.39.529,forced_choiceRT_color,2021.2.3,Win32,59.88382538,,,,,,,,,,,,,,,,,,,,,,,
0,f,1,0.884,9,2,38,1,1,f,blue,5baa8cafc67122000123cab1,2021-10-22_13h54.39.529,forced_choiceRT_color,2021.2.3,Win32,59.88382538,,,,,,,,,,,,,,,,,,,,,,,
0,j,1,0.8841,9,3,39,2,1,j,red,5baa8cafc67122000123cab1,2021-10-22_13h54.39.529,forced_choiceRT_color,2021.2.3,Win32,59.88382538,,,,,,,,,,,,,,,,,,,,,,,
0,k,1,0.7674,10,0,40,3,1,k,purple,5baa8cafc67122000123cab1,2021-10-22_13h54.39.529,forced_choiceRT_color,2021.2.3,Win32,59.88382538,,,,,,,,,,,,,,,,,,,,,,,
0,f,1,0.9857,10,1,41,1,1,f,blue,5baa8cafc67122000123cab1,2021-10-22_13h54.39.529,forced_choiceRT_color,2021.2.3,Win32,59.88382538,,,,,,,,,,,,,,,,,,,,,,,
0,f,1,1.2127,10,2,42,1,1,f,blue,5baa8cafc67122000123cab1,2021-10-22_13h54.39.529,forced_choiceRT_color,2021.2.3,Win32,59.88382538,,,,,,,,,,,,,,,,,,,,,,,
0,k,1,0.723,10,3,43,3,1,k,purple,5baa8cafc67122000123cab1,2021-10-22_13h54.39.529,forced_choiceRT_color,2021.2.3,Win32,59.88382538,,,,,,,,,,,,,,,,,,,,,,,
0,k,1,0.481,11,0,44,3,1,k,purple,5baa8cafc67122000123cab1,2021-10-22_13h54.39.529,forced_choiceRT_color,2021.2.3,Win32,59.88382538,,,,,,,,,,,,,,,,,,,,,,,
0,k,1,0.4159,11,1,45,3,1,k,purple,5baa8cafc67122000123cab1,2021-10-22_13h54.39.529,forced_choiceRT_color,2021.2.3,Win32,59.88382538,,,,,,,,,,,,,,,,,,,,,,,
0,d,1,0.6803,11,2,46,0,1,d,orange,5baa8cafc67122000123cab1,2021-10-22_13h54.39.529,forced_choiceRT_color,2021.2.3,Win32,59.88382538,,,,,,,,,,,,,,,,,,,,,,,
0,d,1,0.5749,11,3,47,0,1,d,orange,5baa8cafc67122000123cab1,2021-10-22_13h54.39.529,forced_choiceRT_color,2021.2.3,Win32,59.88382538,,,,,,,,,,,,,,,,,,,,,,,
0,j,1,0.6334,12,0,48,2,1,j,red,5baa8cafc67122000123cab1,2021-10-22_13h54.39.529,forced_choiceRT_color,2021.2.3,Win32,59.88382538,,,,,,,,,,,,,,,,,,,,,,,
0,j,1,0.5536,12,1,49,2,1,j,red,5baa8cafc67122000123cab1,2021-10-22_13h54.39.529,forced_choiceRT_color,2021.2.3,Win32,59.88382538,,,,,,,,,,,,,,,,,,,,,,,
0,d,1,0.5506,12,2,50,0,1,d,orange,5baa8cafc67122000123cab1,2021-10-22_13h54.39.529,forced_choiceRT_color,2021.2.3,Win32,59.88382538,,,,,,,,,,,,,,,,,,,,,,,
0,d,1,0.6177,12,3,51,0,1,d,orange,5baa8cafc67122000123cab1,2021-10-22_13h54.39.529,forced_choiceRT_color,2021.2.3,Win32,59.88382538,,,,,,,,,,,,,,,,,,,,,,,
0,k,1,0.728,13,0,52,3,1,k,purple,5baa8cafc67122000123cab1,2021-10-22_13h54.39.529,forced_choiceRT_color,2021.2.3,Win32,59.88382538,,,,,,,,,,,,,,,,,,,,,,,
0,j,1,0.6692,13,1,53,2,1,j,red,5baa8cafc67122000123cab1,2021-10-22_13h54.39.529,forced_choiceRT_color,2021.2.3,Win32,59.88382538,,,,,,,,,,,,,,,,,,,,,,,
0,j,1,0.5879,13,2,54,2,1,j,red,5baa8cafc67122000123cab1,2021-10-22_13h54.39.529,forced_choiceRT_color,2021.2.3,Win32,59.88382538,,,,,,,,,,,,,,,,,,,,,,,
0,f,1,0.8822,13,3,55,1,1,f,blue,5baa8cafc67122000123cab1,2021-10-22_13h54.39.529,forced_choiceRT_color,2021.2.3,Win32,59.88382538,,,,,,,,,,,,,,,,,,,,,,,
0,k,1,0.5704,14,0,56,3,1,k,purple,5baa8cafc67122000123cab1,2021-10-22_13h54.39.529,forced_choiceRT_color,2021.2.3,Win32,59.88382538,,,,,,,,,,,,,,,,,,,,,,,
0,f,1,5.7413,14,1,57,1,1,f,blue,5baa8cafc67122000123cab1,2021-10-22_13h54.39.529,forced_choiceRT_color,2021.2.3,Win32,59.88382538,,,,,,,,,,,,,,,,,,,,,,,
0,d,1,0.6413,14,2,58,0,1,d,orange,5baa8cafc67122000123cab1,2021-10-22_13h54.39.529,forced_choiceRT_color,2021.2.3,Win32,59.88382538,,,,,,,,,,,,,,,,,,,,,,,
0,k,1,0.6333,14,3,59,3,1,k,purple,5baa8cafc67122000123cab1,2021-10-22_13h54.39.529,forced_choiceRT_color,2021.2.3,Win32,59.88382538,,,,,,,,,,,,,,,,,,,,,,,
,,,,,,,,,,,5baa8cafc67122000123cab1,2021-10-22_13h54.39.529,forced_choiceRT_color,2021.2.3,Win32,59.88382538,d,2.4406,0,0,0,0,1,,,,,,,,,,,,,,,,
,,,,,,,,,,,5baa8cafc67122000123cab1,2021-10-22_13h54.39.529,forced_choiceRT_color,2021.2.3,Win32,59.88382538,d,2.2448,1,0,1,0,1,,,,,,,,,,,,,,,,
,,,,,,,,,,,5baa8cafc67122000123cab1,2021-10-22_13h54.39.529,forced_choiceRT_color,2021.2.3,Win32,59.88382538,d,2.0015,2,0,2,0,1,,,,,,,,,,,,,,,,
,,,,,,,,,,,5baa8cafc67122000123cab1,2021-10-22_13h54.39.529,forced_choiceRT_color,2021.2.3,Win32,59.88382538,d,2.0659,3,0,3,0,1,,,,,,,,,,,,,,,,
,,,,,,,,,,,5baa8cafc67122000123cab1,2021-10-22_13h54.39.529,forced_choiceRT_color,2021.2.3,Win32,59.88382538,k,1.971,4,0,4,0,1,,,,,,,,,,,,,,,,
,,,,,,,,,,,5baa8cafc67122000123cab1,2021-10-22_13h54.39.529,forced_choiceRT_color,2021.2.3,Win32,59.88382538,d,2.0186,5,0,5,0,1,,,,,,,,,,,,,,,,
,,,,,,,,,,,5baa8cafc67122000123cab1,2021-10-22_13h54.39.529,forced_choiceRT_color,2021.2.3,Win32,59.88382538,d,2.0212,6,0,6,0,1,,,,,,,,,,,,,,,,
,,,,,,,,,,,5baa8cafc67122000123cab1,2021-10-22_13h54.39.529,forced_choiceRT_color,2021.2.3,Win32,59.88382538,j,2.0989,7,0,7,0,1,,,,,,,,,,,,,,,,
,,,,,,,,,,,5baa8cafc67122000123cab1,2021-10-22_13h54.39.529,forced_choiceRT_color,2021.2.3,Win32,59.88382538,j,1.9766,8,0,8,0,1,,,,,,,,,,,,,,,,
,,,,,,,,,,,5baa8cafc67122000123cab1,2021-10-22_13h54.39.529,forced_choiceRT_color,2021.2.3,Win32,59.88382538,j,1.9838,9,0,9,0,1,,,,,,,,,,,,,,,,
,,,,,,,,,,,5baa8cafc67122000123cab1,2021-10-22_13h54.39.529,forced_choiceRT_color,2021.2.3,Win32,59.88382538,d,2.0652,10,0,10,0,1,,,,,,,,,,,,,,,,
,,,,,,,,,,,5baa8cafc67122000123cab1,2021-10-22_13h54.39.529,forced_choiceRT_color,2021.2.3,Win32,59.88382538,d,2.0269,11,0,11,0,1,,,,,,,,,,,,,,,,
,,,,,,,,,,,5baa8cafc67122000123cab1,2021-10-22_13h54.39.529,forced_choiceRT_color,2021.2.3,Win32,59.88382538,d,1.9278,12,0,12,0,1,,,,,,,,,,,,,,,,
,,,,,,,,,,,5baa8cafc67122000123cab1,2021-10-22_13h54.39.529,forced_choiceRT_color,2021.2.3,Win32,59.88382538,d,1.873,13,0,13,0,1,,,,,,,,,,,,,,,,
,,,,,,,,,,,5baa8cafc67122000123cab1,2021-10-22_13h54.39.529,forced_choiceRT_color,2021.2.3,Win32,59.88382538,d,2.0847,14,0,14,0,1,,,,,,,,,,,,,,,,
,,,,,,,,,,,5baa8cafc67122000123cab1,2021-10-22_13h54.39.529,forced_choiceRT_color,2021.2.3,Win32,59.88382538,d,2.0404,15,0,15,0,1,,,,,,,,,,,,,,,,
,,,,,,,,,,,5baa8cafc67122000123cab1,2021-10-22_13h54.39.529,forced_choiceRT_color,2021.2.3,Win32,59.88382538,d,1.9564,16,0,16,0,1,,,,,,,,,,,,,,,,
,,,,,,,,,,,5baa8cafc67122000123cab1,2021-10-22_13h54.39.529,forced_choiceRT_color,2021.2.3,Win32,59.88382538,d,2.0444,17,0,17,0,1,,,,,,,,,,,,,,,,
,,,,,,,,,,,5baa8cafc67122000123cab1,2021-10-22_13h54.39.529,forced_choiceRT_color,2021.2.3,Win32,59.88382538,d,1.9546,18,0,18,0,1,,,,,,,,,,,,,,,,
,,,,,,,,,,,5baa8cafc67122000123cab1,2021-10-22_13h54.39.529,forced_choiceRT_color,2021.2.3,Win32,59.88382538,d,2.0095,19,0,19,0,1,,,,,,,,,,,,,,,,
1.02,,,,,,,,,j,red,5baa8cafc67122000123cab1,2021-10-22_13h54.39.529,forced_choiceRT_color,2021.2.3,Win32,59.88382538,,,,,,,,1,Slow,short,j,1,9.5152,0,0,0,2,1,,,,,
1.47,,,,,,,,,f,blue,5baa8cafc67122000123cab1,2021-10-22_13h54.39.529,forced_choiceRT_color,2021.2.3,Win32,59.88382538,,,,,,,,1,Ontime,short,d,0,2.0203,0,1,1,1,1,,,,,
1.57,,,,,,,,,f,blue,5baa8cafc67122000123cab1,2021-10-22_13h54.39.529,forced_choiceRT_color,2021.2.3,Win32,59.88382538,,,,,,,,1,Slow,short,d,0,2.1788,0,2,2,1,1,,,,,
0.59,,,,,,,,,j,red,5baa8cafc67122000123cab1,2021-10-22_13h54.39.529,forced_choiceRT_color,2021.2.3,Win32,59.88382538,,,,,,,,1,Fast,short,k,0,1.8663,0,3,3,2,1,,,,,
0.27,,,,,,,,,f,blue,5baa8cafc67122000123cab1,2021-10-22_13h54.39.529,forced_choiceRT_color,2021.2.3,Win32,59.88382538,,,,,,,,1,Fast,short,j,0,1.887,1,0,4,1,1,,,,,
1.65,,,,,,,,,d,orange,5baa8cafc67122000123cab1,2021-10-22_13h54.39.529,forced_choiceRT_color,2021.2.3,Win32,59.88382538,,,,,,,,1,Slow,short,d,1,2.4041,1,1,5,0,1,,,,,
0.02,,,,,,,,,j,red,5baa8cafc67122000123cab1,2021-10-22_13h54.39.529,forced_choiceRT_color,2021.2.3,Win32,59.88382538,,,,,,,,1,Slow,short,j,1,2.1237,1,2,6,2,1,,,,,
1.77,,,,,,,,,d,orange,5baa8cafc67122000123cab1,2021-10-22_13h54.39.529,forced_choiceRT_color,2021.2.3,Win32,59.88382538,,,,,,,,1,Ontime,short,d,1,2.0505,1,3,7,0,1,,,,,
0.6,,,,,,,,,j,red,5baa8cafc67122000123cab1,2021-10-22_13h54.39.529,forced_choiceRT_color,2021.2.3,Win32,59.88382538,,,,,,,,1,Fast,short,j,1,1.7081,2,0,8,2,1,,,,,
0.01,,,,,,,,,f,blue,5baa8cafc67122000123cab1,2021-10-22_13h54.39.529,forced_choiceRT_color,2021.2.3,Win32,59.88382538,,,,,,,,1,Fast,short,k,0,1.5284,2,1,9,1,1,,,,,
1.64,,,,,,,,,j,red,5baa8cafc67122000123cab1,2021-10-22_13h54.39.529,forced_choiceRT_color,2021.2.3,Win32,59.88382538,,,,,,,,1,Slow,short,j,1,2.2051,2,2,10,2,1,,,,,
0.49,,,,,,,,,d,orange,5baa8cafc67122000123cab1,2021-10-22_13h54.39.529,forced_choiceRT_color,2021.2.3,Win32,59.88382538,,,,,,,,1,Fast,short,d,1,1.7818,2,3,11,0,1,,,,,
1.48,,,,,,,,,k,purple,5baa8cafc67122000123cab1,2021-10-22_13h54.39.529,forced_choiceRT_color,2021.2.3,Win32,59.88382538,,,,,,,,1,Ontime,short,k,1,1.971,3,0,12,3,1,,,,,
1.12,,,,,,,,,k,purple,5baa8cafc67122000123cab1,2021-10-22_13h54.39.529,forced_choiceRT_color,2021.2.3,Win32,59.88382538,,,,,,,,1,Fast,short,k,1,1.8761,3,1,13,3,1,,,,,
0.44,,,,,,,,,j,red,5baa8cafc67122000123cab1,2021-10-22_13h54.39.529,forced_choiceRT_color,2021.2.3,Win32,59.88382538,,,,,,,,1,Fast,short,j,1,1.7872,3,2,14,2,1,,,,,
1.41,,,,,,,,,j,red,5baa8cafc67122000123cab1,2021-10-22_13h54.39.529,forced_choiceRT_color,2021.2.3,Win32,59.88382538,,,,,,,,1,Slow,short,j,1,2.1127,3,3,15,2,1,,,,,
1,,,,,,,,,f,blue,5baa8cafc67122000123cab1,2021-10-22_13h54.39.529,forced_choiceRT_color,2021.2.3,Win32,59.88382538,,,,,,,,1,Ontime,short,f,1,1.9645,4,0,16,1,1,,,,,
0.68,,,,,,,,,j,red,5baa8cafc67122000123cab1,2021-10-22_13h54.39.529,forced_choiceRT_color,2021.2.3,Win32,59.88382538,,,,,,,,1,Fast,short,j,1,1.6891,4,1,17,2,1,,,,,
0.38,,,,,,,,,d,orange,5baa8cafc67122000123cab1,2021-10-22_13h54.39.529,forced_choiceRT_color,2021.2.3,Win32,59.88382538,,,,,,,,1,Ontime,short,d,1,1.926,4,2,18,0,1,,,,,
1.76,,,,,,,,,k,purple,5baa8cafc67122000123cab1,2021-10-22_13h54.39.529,forced_choiceRT_color,2021.2.3,Win32,59.88382538,,,,,,,,1,Slow,short,k,1,2.2192,4,3,19,3,1,,,,,
0.85,,,,,,,,,k,purple,5baa8cafc67122000123cab1,2021-10-22_13h54.39.529,forced_choiceRT_color,2021.2.3,Win32,59.88382538,,,,,,,,1,Fast,short,k,1,1.8927,5,0,20,3,1,,,,,
0.61,,,,,,,,,k,purple,5baa8cafc67122000123cab1,2021-10-22_13h54.39.529,forced_choiceRT_color,2021.2.3,Win32,59.88382538,,,,,,,,1,Ontime,short,k,1,1.9737,5,1,21,3,1,,,,,
0.68,,,,,,,,,d,orange,5baa8cafc67122000123cab1,2021-10-22_13h54.39.529,forced_choiceRT_color,2021.2.3,Win32,59.88382538,,,,,,,,1,Fast,short,d,1,1.8818,5,2,22,0,1,,,,,
0.22,,,,,,,,,f,blue,5baa8cafc67122000123cab1,2021-10-22_13h54.39.529,forced_choiceRT_color,2021.2.3,Win32,59.88382538,,,,,,,,1,Fast,short,f,1,1.8868,5,3,23,1,1,,,,,
0,,,,,,,,,j,red,5baa8cafc67122000123cab1,2021-10-22_13h54.39.529,forced_choiceRT_color,2021.2.3,Win32,59.88382538,,,,,,,,1,Ontime,short,j,1,2.0241,6,0,24,2,1,,,,,
1.29,,,,,,,,,f,blue,5baa8cafc67122000123cab1,2021-10-22_13h54.39.529,forced_choiceRT_color,2021.2.3,Win32,59.88382538,,,,,,,,1,Slow,short,f,1,3.2224,6,1,25,1,1,,,,,
0.83,,,,,,,,,f,blue,5baa8cafc67122000123cab1,2021-10-22_13h54.39.529,forced_choiceRT_color,2021.2.3,Win32,59.88382538,,,,,,,,1,Ontime,short,f,1,1.9967,6,2,26,1,1,,,,,
1.91,,,,,,,,,k,purple,5baa8cafc67122000123cab1,2021-10-22_13h54.39.529,forced_choiceRT_color,2021.2.3,Win32,59.88382538,,,,,,,,1,Slow,short,k,1,2.2997,6,3,27,3,1,,,,,
1.18,,,,,,,,,k,purple,5baa8cafc67122000123cab1,2021-10-22_13h54.39.529,forced_choiceRT_color,2021.2.3,Win32,59.88382538,,,,,,,,1,Fast,short,k,1,1.8655,7,0,28,3,1,,,,,
0.89,,,,,,,,,d,orange,5baa8cafc67122000123cab1,2021-10-22_13h54.39.529,forced_choiceRT_color,2021.2.3,Win32,59.88382538,,,,,,,,1,Fast,short,d,1,1.8901,7,1,29,0,1,,,,,
0.83,,,,,,,,,f,blue,5baa8cafc67122000123cab1,2021-10-22_13h54.39.529,forced_choiceRT_color,2021.2.3,Win32,59.88382538,,,,,,,,1,Fast,short,f,1,1.7987,7,2,30,1,1,,,,,
0.34,,,,,,,,,f,blue,5baa8cafc67122000123cab1,2021-10-22_13h54.39.529,forced_choiceRT_color,2021.2.3,Win32,59.88382538,,,,,,,,1,Fast,short,f,1,1.8693,7,3,31,1,1,,,,,
1.73,,,,,,,,,k,purple,5baa8cafc67122000123cab1,2021-10-22_13h54.39.529,forced_choiceRT_color,2021.2.3,Win32,59.88382538,,,,,,,,1,Slow,short,k,1,2.1771,8,0,32,3,1,,,,,
1.7,,,,,,,,,d,orange,5baa8cafc67122000123cab1,2021-10-22_13h54.39.529,forced_choiceRT_color,2021.2.3,Win32,59.88382538,,,,,,,,1,Slow,short,d,1,2.2138,8,1,33,0,1,,,,,
1.25,,,,,,,,,k,purple,5baa8cafc67122000123cab1,2021-10-22_13h54.39.529,forced_choiceRT_color,2021.2.3,Win32,59.88382538,,,,,,,,1,Fast,short,k,1,1.7839,8,2,34,3,1,,,,,
1.17,,,,,,,,,d,orange,5baa8cafc67122000123cab1,2021-10-22_13h54.39.529,forced_choiceRT_color,2021.2.3,Win32,59.88382538,,,,,,,,1,Fast,short,d,1,1.8788,8,3,35,0,1,,,,,
1.48,,,,,,,,,k,purple,5baa8cafc67122000123cab1,2021-10-22_13h54.39.529,forced_choiceRT_color,2021.2.3,Win32,59.88382538,,,,,,,,1,Ontime,short,k,1,2.0589,9,0,36,3,1,,,,,
0.37,,,,,,,,,d,orange,5baa8cafc67122000123cab1,2021-10-22_13h54.39.529,forced_choiceRT_color,2021.2.3,Win32,59.88382538,,,,,,,,1,Fast,short,d,1,1.7986,9,1,37,0,1,,,,,
0.18,,,,,,,,,d,orange,5baa8cafc67122000123cab1,2021-10-22_13h54.39.529,forced_choiceRT_color,2021.2.3,Win32,59.88382538,,,,,,,,1,Ontime,short,d,1,2.0678,9,2,38,0,1,,,,,
1.16,,,,,,,,,j,red,5baa8cafc67122000123cab1,2021-10-22_13h54.39.529,forced_choiceRT_color,2021.2.3,Win32,59.88382538,,,,,,,,1,Fast,short,j,1,1.8692,9,3,39,2,1,,,,,
,,,,,,,,,,,5baa8cafc67122000123cab1,2021-10-22_13h54.39.529,forced_choiceRT_color,2021.2.3,Win32,59.88382538,,,,,,,,,,,,,,,,,,,0,0,0,0,1
1.46,,,,,,,,,d,orange,5baa8cafc67122000123cab1,2021-10-22_13h54.39.529,forced_choiceRT_color,2021.2.3,Win32,59.88382538,,,,,,,,2,Slow,short,d,1,2.1283,0,0,0,0,1,,,,,
0.12,,,,,,,,,j,red,5baa8cafc67122000123cab1,2021-10-22_13h54.39.529,forced_choiceRT_color,2021.2.3,Win32,59.88382538,,,,,,,,2,Fast,short,j,1,1.7273,0,1,1,2,1,,,,,
1.35,,,,,,,,,d,orange,5baa8cafc67122000123cab1,2021-10-22_13h54.39.529,forced_choiceRT_color,2021.2.3,Win32,59.88382538,,,,,,,,2,Ontime,short,d,1,1.9786,0,2,2,0,1,,,,,
1.44,,,,,,,,,j,red,5baa8cafc67122000123cab1,2021-10-22_13h54.39.529,forced_choiceRT_color,2021.2.3,Win32,59.88382538,,,,,,,,2,Ontime,short,f,0,2.0873,0,3,3,2,1,,,,,
1.35,,,,,,,,,d,orange,5baa8cafc67122000123cab1,2021-10-22_13h54.39.529,forced_choiceRT_color,2021.2.3,Win32,59.88382538,,,,,,,,2,Ontime,short,d,1,1.9259,1,0,4,0,1,,,,,
1.39,,,,,,,,,k,purple,5baa8cafc67122000123cab1,2021-10-22_13h54.39.529,forced_choiceRT_color,2021.2.3,Win32,59.88382538,,,,,,,,2,Ontime,short,k,1,2.0148,1,1,5,3,1,,,,,
1,,,,,,,,,f,blue,5baa8cafc67122000123cab1,2021-10-22_13h54.39.529,forced_choiceRT_color,2021.2.3,Win32,59.88382538,,,,,,,,2,Fast,short,f,1,1.7698,1,2,6,1,1,,,,,
1.99,,,,,,,,,d,orange,5baa8cafc67122000123cab1,2021-10-22_13h54.39.529,forced_choiceRT_color,2021.2.3,Win32,59.88382538,,,,,,,,2,Slow,short,d,1,2.2976,1,3,7,0,1,,,,,
0.23,,,,,,,,,j,red,5baa8cafc67122000123cab1,2021-10-22_13h54.39.529,forced_choiceRT_color,2021.2.3,Win32,59.88382538,,,,,,,,2,Fast,short,j,1,1.7994,2,0,8,2,1,,,,,
0.98,,,,,,,,,j,red,5baa8cafc67122000123cab1,2021-10-22_13h54.39.529,forced_choiceRT_color,2021.2.3,Win32,59.88382538,,,,,,,,2,Fast,short,f,0,1.8756,2,1,9,2,1,,,,,
0.37,,,,,,,,,f,blue,5baa8cafc67122000123cab1,2021-10-22_13h54.39.529,forced_choiceRT_color,2021.2.3,Win32,59.88382538,,,,,,,,2,Fast,short,f,1,1.8384,2,2,10,1,1,,,,,
0.44,,,,,,,,,k,purple,5baa8cafc67122000123cab1,2021-10-22_13h54.39.529,forced_choiceRT_color,2021.2.3,Win32,59.88382538,,,,,,,,2,Ontime,short,k,1,2.071,2,3,11,3,1,,,,,
0.35,,,,,,,,,j,red,5baa8cafc67122000123cab1,2021-10-22_13h54.39.529,forced_choiceRT_color,2021.2.3,Win32,59.88382538,,,,,,,,2,Ontime,short,d,0,1.9558,3,0,12,2,1,,,,,
0.66,,,,,,,,,d,orange,5baa8cafc67122000123cab1,2021-10-22_13h54.39.529,forced_choiceRT_color,2021.2.3,Win32,59.88382538,,,,,,,,2,Ontime,short,d,1,1.9384,3,1,13,0,1,,,,,
0.72,,,,,,,,,f,blue,5baa8cafc67122000123cab1,2021-10-22_13h54.39.529,forced_choiceRT_color,2021.2.3,Win32,59.88382538,,,,,,,,2,Ontime,short,f,1,1.9141,3,2,14,1,1,,,,,
1.15,,,,,,,,,f,blue,5baa8cafc67122000123cab1,2021-10-22_13h54.39.529,forced_choiceRT_color,2021.2.3,Win32,59.88382538,,,,,,,,2,Ontime,short,d,0,1.953,3,3,15,1,1,,,,,
1.18,,,,,,,,,k,purple,5baa8cafc67122000123cab1,2021-10-22_13h54.39.529,forced_choiceRT_color,2021.2.3,Win32,59.88382538,,,,,,,,2,Fast,short,k,1,1.8383,4,0,16,3,1,,,,,
0.83,,,,,,,,,j,red,5baa8cafc67122000123cab1,2021-10-22_13h54.39.529,forced_choiceRT_color,2021.2.3,Win32,59.88382538,,,,,,,,2,Fast,short,f,0,1.7802,4,1,17,2,1,,,,,
0.73,,,,,,,,,d,orange,5baa8cafc67122000123cab1,2021-10-22_13h54.39.529,forced_choiceRT_color,2021.2.3,Win32,59.88382538,,,,,,,,2,Fast,short,d,1,1.8933,4,2,18,0,1,,,,,
0.48,,,,,,,,,k,purple,5baa8cafc67122000123cab1,2021-10-22_13h54.39.529,forced_choiceRT_color,2021.2.3,Win32,59.88382538,,,,,,,,2,Fast,short,j,0,1.7601,4,3,19,3,1,,,,,
0.03,,,,,,,,,d,orange,5baa8cafc67122000123cab1,2021-10-22_13h54.39.529,forced_choiceRT_color,2021.2.3,Win32,59.88382538,,,,,,,,2,Fast,short,d,1,1.8722,5,0,20,0,1,,,,,
1.26,,,,,,,,,k,purple,5baa8cafc67122000123cab1,2021-10-22_13h54.39.529,forced_choiceRT_color,2021.2.3,Win32,59.88382538,,,,,,,,2,Ontime,short,k,1,1.9975,5,1,21,3,1,,,,,
0.92,,,,,,,,,f,blue,5baa8cafc67122000123cab1,2021-10-22_13h54.39.529,forced_choiceRT_color,2021.2.3,Win32,59.88382538,,,,,,,,2,Ontime,short,f,1,1.9034,5,2,22,1,1,,,,,
1.78,,,,,,,,,d,orange,5baa8cafc67122000123cab1,2021-10-22_13h54.39.529,forced_choiceRT_color,2021.2.3,Win32,59.88382538,,,,,,,,2,Ontime,short,k,0,2.041,5,3,23,0,1,,,,,
1.61,,,,,,,,,f,blue,5baa8cafc67122000123cab1,2021-10-22_13h54.39.529,forced_choiceRT_color,2021.2.3,Win32,59.88382538,,,,,,,,2,Slow,short,d,0,2.1237,6,0,24,1,1,,,,,
0.83,,,,,,,,,k,purple,5baa8cafc67122000123cab1,2021-10-22_13h54.39.529,forced_choiceRT_color,2021.2.3,Win32,59.88382538,,,,,,,,2,Fast,short,k,1,1.7331,6,1,25,3,1,,,,,
1.89,,,,,,,,,j,red,5baa8cafc67122000123cab1,2021-10-22_13h54.39.529,forced_choiceRT_color,2021.2.3,Win32,59.88382538,,,,,,,,2,Slow,short,f,0,2.1276,6,2,26,2,1,,,,,
1.53,,,,,,,,,f,blue,5baa8cafc67122000123cab1,2021-10-22_13h54.39.529,forced_choiceRT_color,2021.2.3,Win32,59.88382538,,,,,,,,2,Ontime,short,f,1,2.0752,6,3,27,1,1,,,,,
0.33,,,,,,,,,k,purple,5baa8cafc67122000123cab1,2021-10-22_13h54.39.529,forced_choiceRT_color,2021.2.3,Win32,59.88382538,,,,,,,,2,Ontime,short,k,1,1.929,7,0,28,3,1,,,,,
0.78,,,,,,,,,k,purple,5baa8cafc67122000123cab1,2021-10-22_13h54.39.529,forced_choiceRT_color,2021.2.3,Win32,59.88382538,,,,,,,,2,Fast,short,k,1,1.8806,7,1,29,3,1,,,,,
1.2,,,,,,,,,d,orange,5baa8cafc67122000123cab1,2021-10-22_13h54.39.529,forced_choiceRT_color,2021.2.3,Win32,59.88382538,,,,,,,,2,Fast,short,d,1,1.7727,7,2,30,0,1,,,,,
0.73,,,,,,,,,f,blue,5baa8cafc67122000123cab1,2021-10-22_13h54.39.529,forced_choiceRT_color,2021.2.3,Win32,59.88382538,,,,,,,,2,Fast,short,j,0,1.7882,7,3,31,1,1,,,,,
0.29,,,,,,,,,d,orange,5baa8cafc67122000123cab1,2021-10-22_13h54.39.529,forced_choiceRT_color,2021.2.3,Win32,59.88382538,,,,,,,,2,Fast,short,d,1,1.8452,8,0,32,0,1,,,,,
0.08,,,,,,,,,j,red,5baa8cafc67122000123cab1,2021-10-22_13h54.39.529,forced_choiceRT_color,2021.2.3,Win32,59.88382538,,,,,,,,2,Fast,short,j,1,1.7859,8,1,33,2,1,,,,,
0.13,,,,,,,,,j,red,5baa8cafc67122000123cab1,2021-10-22_13h54.39.529,forced_choiceRT_color,2021.2.3,Win32,59.88382538,,,,,,,,2,Ontime,short,j,1,2.0989,8,2,34,2,1,,,,,
0.89,,,,,,,,,k,purple,5baa8cafc67122000123cab1,2021-10-22_13h54.39.529,forced_choiceRT_color,2021.2.3,Win32,59.88382538,,,,,,,,2,Ontime,short,k,1,1.9689,8,3,35,3,1,,,,,
1.73,,,,,,,,,j,red,5baa8cafc67122000123cab1,2021-10-22_13h54.39.529,forced_choiceRT_color,2021.2.3,Win32,59.88382538,,,,,,,,2,Slow,short,d,0,2.1746,9,0,36,2,1,,,,,
1.96,,,,,,,,,f,blue,5baa8cafc67122000123cab1,2021-10-22_13h54.39.529,forced_choiceRT_color,2021.2.3,Win32,59.88382538,,,,,,,,2,Slow,short,j,0,3.083,9,1,37,1,1,,,,,
1.84,,,,,,,,,k,purple,5baa8cafc67122000123cab1,2021-10-22_13h54.39.529,forced_choiceRT_color,2021.2.3,Win32,59.88382538,,,,,,,,2,Slow,short,k,1,2.2534,9,2,38,3,1,,,,,
1.36,,,,,,,,,f,blue,5baa8cafc67122000123cab1,2021-10-22_13h54.39.529,forced_choiceRT_color,2021.2.3,Win32,59.88382538,,,,,,,,2,Fast,short,d,0,1.8031,9,3,39,1,1,,,,,
,,,,,,,,,,,5baa8cafc67122000123cab1,2021-10-22_13h54.39.529,forced_choiceRT_color,2021.2.3,Win32,59.88382538,,,,,,,,,,,,,,,,,,,1,0,1,0,1
0.28,,,,,,,,,j,red,5baa8cafc67122000123cab1,2021-10-22_13h54.39.529,forced_choiceRT_color,2021.2.3,Win32,59.88382538,,,,,,,,3,Ontime,short,j,1,1.9043,0,0,0,2,1,,,,,
0.09,,,,,,,,,k,purple,5baa8cafc67122000123cab1,2021-10-22_13h54.39.529,forced_choiceRT_color,2021.2.3,Win32,59.88382538,,,,,,,,3,Ontime,short,k,1,1.9745,0,1,1,3,1,,,,,
1.07,,,,,,,,,k,purple,5baa8cafc67122000123cab1,2021-10-22_13h54.39.529,forced_choiceRT_color,2021.2.3,Win32,59.88382538,,,,,,,,3,Ontime,short,k,1,2.0053,0,2,2,3,1,,,,,
1.39,,,,,,,,,d,orange,5baa8cafc67122000123cab1,2021-10-22_13h54.39.529,forced_choiceRT_color,2021.2.3,Win32,59.88382538,,,,,,,,3,Slow,short,d,1,2.1203,0,3,3,0,1,,,,,
1.02,,,,,,,,,d,orange,5baa8cafc67122000123cab1,2021-10-22_13h54.39.529,forced_choiceRT_color,2021.2.3,Win32,59.88382538,,,,,,,,3,Ontime,short,d,1,2.0274,1,0,4,0,1,,,,,
0.29,,,,,,,,,j,red,5baa8cafc67122000123cab1,2021-10-22_13h54.39.529,forced_choiceRT_color,2021.2.3,Win32,59.88382538,,,,,,,,3,Ontime,short,j,1,1.9954,1,1,5,2,1,,,,,
1.1,,,,,,,,,j,red,5baa8cafc67122000123cab1,2021-10-22_13h54.39.529,forced_choiceRT_color,2021.2.3,Win32,59.88382538,,,,,,,,3,Ontime,short,j,1,2.0017,1,2,6,2,1,,,,,
1.05,,,,,,,,,f,blue,5baa8cafc67122000123cab1,2021-10-22_13h54.39.529,forced_choiceRT_color,2021.2.3,Win32,59.88382538,,,,,,,,3,Ontime,short,f,1,1.9741,1,3,7,1,1,,,,,
0.96,,,,,,,,,f,blue,5baa8cafc67122000123cab1,2021-10-22_13h54.39.529,forced_choiceRT_color,2021.2.3,Win32,59.88382538,,,,,,,,3,Ontime,short,f,1,2.0427,2,0,8,1,1,,,,,
0.56,,,,,,,,,d,orange,5baa8cafc67122000123cab1,2021-10-22_13h54.39.529,forced_choiceRT_color,2021.2.3,Win32,59.88382538,,,,,,,,3,Ontime,short,d,1,1.9254,2,1,9,0,1,,,,,
0.34,,,,,,,,,k,purple,5baa8cafc67122000123cab1,2021-10-22_13h54.39.529,forced_choiceRT_color,2021.2.3,Win32,59.88382538,,,,,,,,3,Ontime,short,k,1,1.9239,2,2,10,3,1,,,,,
1.9,,,,,,,,,j,red,5baa8cafc67122000123cab1,2021-10-22_13h54.39.529,forced_choiceRT_color,2021.2.3,Win32,59.88382538,,,,,,,,3,Ontime,short,j,1,2.0107,2,3,11,2,1,,,,,
1.2,,,,,,,,,f,blue,5baa8cafc67122000123cab1,2021-10-22_13h54.39.529,forced_choiceRT_color,2021.2.3,Win32,59.88382538,,,,,,,,3,Ontime,short,f,1,2.0621,3,0,12,1,1,,,,,
0.27,,,,,,,,,k,purple,5baa8cafc67122000123cab1,2021-10-22_13h54.39.529,forced_choiceRT_color,2021.2.3,Win32,59.88382538,,,,,,,,3,Ontime,short,k,1,1.9847,3,1,13,3,1,,,,,
0.65,,,,,,,,,d,orange,5baa8cafc67122000123cab1,2021-10-22_13h54.39.529,forced_choiceRT_color,2021.2.3,Win32,59.88382538,,,,,,,,3,Ontime,short,d,1,1.9883,3,2,14,0,1,,,,,
0.01,,,,,,,,,k,purple,5baa8cafc67122000123cab1,2021-10-22_13h54.39.529,forced_choiceRT_color,2021.2.3,Win32,59.88382538,,,,,,,,3,Ontime,short,k,1,1.914,3,3,15,3,1,,,,,
0.49,,,,,,,,,k,purple,5baa8cafc67122000123cab1,2021-10-22_13h54.39.529,forced_choiceRT_color,2021.2.3,Win32,59.88382538,,,,,,,,3,Ontime,short,k,1,1.9052,4,0,16,3,1,,,,,
1,,,,,,,,,f,blue,5baa8cafc67122000123cab1,2021-10-22_13h54.39.529,forced_choiceRT_color,2021.2.3,Win32,59.88382538,,,,,,,,3,Slow,short,f,1,2.1049,4,1,17,1,1,,,,,
0.2,,,,,,,,,d,orange,5baa8cafc67122000123cab1,2021-10-22_13h54.39.529,forced_choiceRT_color,2021.2.3,Win32,59.88382538,,,,,,,,3,Fast,short,d,1,1.6998,4,2,18,0,1,,,,,
0.79,,,,,,,,,f,blue,5baa8cafc67122000123cab1,2021-10-22_13h54.39.529,forced_choiceRT_color,2021.2.3,Win32,59.88382538,,,,,,,,3,Ontime,short,j,0,1.9318,4,3,19,1,1,,,,,
0.12,,,,,,,,,f,blue,5baa8cafc67122000123cab1,2021-10-22_13h54.39.529,forced_choiceRT_color,2021.2.3,Win32,59.88382538,,,,,,,,3,Ontime,short,j,0,2.0138,5,0,20,1,1,,,,,
1.75,,,,,,,,,d,orange,5baa8cafc67122000123cab1,2021-10-22_13h54.39.529,forced_choiceRT_color,2021.2.3,Win32,59.88382538,,,,,,,,3,Slow,short,d,1,2.1446,5,1,21,0,1,,,,,
1.59,,,,,,,,,k,purple,5baa8cafc67122000123cab1,2021-10-22_13h54.39.529,forced_choiceRT_color,2021.2.3,Win32,59.88382538,,,,,,,,3,Ontime,short,k,1,2.0417,5,2,22,3,1,,,,,
0.22,,,,,,,,,j,red,5baa8cafc67122000123cab1,2021-10-22_13h54.39.529,forced_choiceRT_color,2021.2.3,Win32,59.88382538,,,,,,,,3,Ontime,short,j,1,1.9709,5,3,23,2,1,,,,,
1.28,,,,,,,,,j,red,5baa8cafc67122000123cab1,2021-10-22_13h54.39.529,forced_choiceRT_color,2021.2.3,Win32,59.88382538,,,,,,,,3,Ontime,short,j,1,1.921,6,0,24,2,1,,,,,
1.5,,,,,,,,,d,orange,5baa8cafc67122000123cab1,2021-10-22_13h54.39.529,forced_choiceRT_color,2021.2.3,Win32,59.88382538,,,,,,,,3,Ontime,short,d,1,2.0963,6,1,25,0,1,,,,,
0.05,,,,,,,,,f,blue,5baa8cafc67122000123cab1,2021-10-22_13h54.39.529,forced_choiceRT_color,2021.2.3,Win32,59.88382538,,,,,,,,3,Ontime,short,f,1,1.9609,6,2,26,1,1,,,,,
0.49,,,,,,,,,d,orange,5baa8cafc67122000123cab1,2021-10-22_13h54.39.529,forced_choiceRT_color,2021.2.3,Win32,59.88382538,,,,,,,,3,Slow,short,d,1,2.1655,6,3,27,0,1,,,,,
1,,,,,,,,,j,red,5baa8cafc67122000123cab1,2021-10-22_13h54.39.529,forced_choiceRT_color,2021.2.3,Win32,59.88382538,,,,,,,,3,Fast,short,j,1,1.8708,7,0,28,2,1,,,,,
0.98,,,,,,,,,f,blue,5baa8cafc67122000123cab1,2021-10-22_13h54.39.529,forced_choiceRT_color,2021.2.3,Win32,59.88382538,,,,,,,,3,Ontime,short,f,1,2.0665,7,1,29,1,1,,,,,
1.01,,,,,,,,,k,purple,5baa8cafc67122000123cab1,2021-10-22_13h54.39.529,forced_choiceRT_color,2021.2.3,Win32,59.88382538,,,,,,,,3,Ontime,short,k,1,2.0039,7,2,30,3,1,,,,,
0.41,,,,,,,,,d,orange,5baa8cafc67122000123cab1,2021-10-22_13h54.39.529,forced_choiceRT_color,2021.2.3,Win32,59.88382538,,,,,,,,3,Ontime,short,d,1,2.02,7,3,31,0,1,,,,,
0.21,,,,,,,,,j,red,5baa8cafc67122000123cab1,2021-10-22_13h54.39.529,forced_choiceRT_color,2021.2.3,Win32,59.88382538,,,,,,,,3,Ontime,short,j,1,1.9711,8,0,32,2,1,,,,,
1.71,,,,,,,,,f,blue,5baa8cafc67122000123cab1,2021-10-22_13h54.39.529,forced_choiceRT_color,2021.2.3,Win32,59.88382538,,,,,,,,3,Ontime,short,f,1,1.9274,8,1,33,1,1,,,,,
1,,,,,,,,,j,red,5baa8cafc67122000123cab1,2021-10-22_13h54.39.529,forced_choiceRT_color,2021.2.3,Win32,59.88382538,,,,,,,,3,Fast,short,j,1,1.8694,8,2,34,2,1,,,,,
0.5,,,,,,,,,k,purple,5baa8cafc67122000123cab1,2021-10-22_13h54.39.529,forced_choiceRT_color,2021.2.3,Win32,59.88382538,,,,,,,,3,Ontime,short,k,1,2.0051,8,3,35,3,1,,,,,
1.52,,,,,,,,,k,purple,5baa8cafc67122000123cab1,2021-10-22_13h54.39.529,forced_choiceRT_color,2021.2.3,Win32,59.88382538,,,,,,,,3,Ontime,short,k,1,1.965,9,0,36,3,1,,,,,
1.52,,,,,,,,,f,blue,5baa8cafc67122000123cab1,2021-10-22_13h54.39.529,forced_choiceRT_color,2021.2.3,Win32,59.88382538,,,,,,,,3,Ontime,short,f,1,2.012,9,1,37,1,1,,,,,
1.4,,,,,,,,,d,orange,5baa8cafc67122000123cab1,2021-10-22_13h54.39.529,forced_choiceRT_color,2021.2.3,Win32,59.88382538,,,,,,,,3,Fast,short,d,1,1.8228,9,2,38,0,1,,,,,
0.59,,,,,,,,,j,red,5baa8cafc67122000123cab1,2021-10-22_13h54.39.529,forced_choiceRT_color,2021.2.3,Win32,59.88382538,,,,,,,,3,Fast,short,j,1,1.8769,9,3,39,2,1,,,,,
,,,,,,,,,,,5baa8cafc67122000123cab1,2021-10-22_13h54.39.529,forced_choiceRT_color,2021.2.3,Win32,59.88382538,,,,,,,,,,,,,,,,,,,2,0,2,0,1
1.75,,,,,,,,,k,purple,5baa8cafc67122000123cab1,2021-10-22_13h54.39.529,forced_choiceRT_color,2021.2.3,Win32,59.88382538,,,,,,,,4,Ontime,short,k,1,2.062,0,0,0,3,1,,,,,
0.01,,,,,,,,,d,orange,5baa8cafc67122000123cab1,2021-10-22_13h54.39.529,forced_choiceRT_color,2021.2.3,Win32,59.88382538,,,,,,,,4,Ontime,short,d,1,1.9786,0,1,1,0,1,,,,,
0.48,,,,,,,,,j,red,5baa8cafc67122000123cab1,2021-10-22_13h54.39.529,forced_choiceRT_color,2021.2.3,Win32,59.88382538,,,,,,,,4,Ontime,short,j,1,2.0233,0,2,2,2,1,,,,,
0.37,,,,,,,,,j,red,5baa8cafc67122000123cab1,2021-10-22_13h54.39.529,forced_choiceRT_color,2021.2.3,Win32,59.88382538,,,,,,,,4,Ontime,short,j,1,1.9141,0,3,3,2,1,,,,,
0.57,,,,,,,,,d,orange,5baa8cafc67122000123cab1,2021-10-22_13h54.39.529,forced_choiceRT_color,2021.2.3,Win32,59.88382538,,,,,,,,4,Ontime,short,d,1,1.9946,1,0,4,0,1,,,,,
0.85,,,,,,,,,d,orange,5baa8cafc67122000123cab1,2021-10-22_13h54.39.529,forced_choiceRT_color,2021.2.3,Win32,59.88382538,,,,,,,,4,Ontime,short,d,1,1.9428,1,1,5,0,1,,,,,
1.38,,,,,,,,,k,purple,5baa8cafc67122000123cab1,2021-10-22_13h54.39.529,forced_choiceRT_color,2021.2.3,Win32,59.88382538,,,,,,,,4,Ontime,short,k,1,1.9016,1,2,6,3,1,,,,,
0.5,,,,,,,,,d,orange,5baa8cafc67122000123cab1,2021-10-22_13h54.39.529,forced_choiceRT_color,2021.2.3,Win32,59.88382538,,,,,,,,4,Ontime,short,d,1,1.9013,1,3,7,0,1,,,,,
1.34,,,,,,,,,f,blue,5baa8cafc67122000123cab1,2021-10-22_13h54.39.529,forced_choiceRT_color,2021.2.3,Win32,59.88382538,,,,,,,,4,Ontime,short,j,0,2.0132,2,0,8,1,1,,,,,
1.49,,,,,,,,,k,purple,5baa8cafc67122000123cab1,2021-10-22_13h54.39.529,forced_choiceRT_color,2021.2.3,Win32,59.88382538,,,,,,,,4,Ontime,short,k,1,1.9454,2,1,9,3,1,,,,,
0.41,,,,,,,,,d,orange,5baa8cafc67122000123cab1,2021-10-22_13h54.39.529,forced_choiceRT_color,2021.2.3,Win32,59.88382538,,,,,,,,4,Ontime,short,d,1,1.9211,2,2,10,0,1,,,,,
0.79,,,,,,,,,j,red,5baa8cafc67122000123cab1,2021-10-22_13h54.39.529,forced_choiceRT_color,2021.2.3,Win32,59.88382538,,,,,,,,4,Ontime,short,j,1,1.9373,2,3,11,2,1,,,,,
1.44,,,,,,,,,j,red,5baa8cafc67122000123cab1,2021-10-22_13h54.39.529,forced_choiceRT_color,2021.2.3,Win32,59.88382538,,,,,,,,4,Fast,short,j,1,1.8934,3,0,12,2,1,,,,,
1.49,,,,,,,,,k,purple,5baa8cafc67122000123cab1,2021-10-22_13h54.39.529,forced_choiceRT_color,2021.2.3,Win32,59.88382538,,,,,,,,4,Fast,short,k,1,1.8482,3,1,13,3,1,,,,,
1.62,,,,,,,,,j,red,5baa8cafc67122000123cab1,2021-10-22_13h54.39.529,forced_choiceRT_color,2021.2.3,Win32,59.88382538,,,,,,,,4,Slow,short,d,0,2.1108,3,2,14,2,1,,,,,
1.74,,,,,,,,,f,blue,5baa8cafc67122000123cab1,2021-10-22_13h54.39.529,forced_choiceRT_color,2021.2.3,Win32,59.88382538,,,,,,,,4,Ontime,short,f,1,2.0678,3,3,15,1,1,,,,,
0.18,,,,,,,,,j,red,5baa8cafc67122000123cab1,2021-10-22_13h54.39.529,forced_choiceRT_color,2021.2.3,Win32,59.88382538,,,,,,,,4,Fast,short,j,1,1.864,4,0,16,2,1,,,,,
0.73,,,,,,,,,k,purple,5baa8cafc67122000123cab1,2021-10-22_13h54.39.529,forced_choiceRT_color,2021.2.3,Win32,59.88382538,,,,,,,,4,Ontime,short,k,1,2.0142,4,1,17,3,1,,,,,
1.54,,,,,,,,,d,orange,5baa8cafc67122000123cab1,2021-10-22_13h54.39.529,forced_choiceRT_color,2021.2.3,Win32,59.88382538,,,,,,,,4,Ontime,short,k,0,1.9781,4,2,18,0,1,,,,,
1.35,,,,,,,,,j,red,5baa8cafc67122000123cab1,2021-10-22_13h54.39.529,forced_choiceRT_color,2021.2.3,Win32,59.88382538,,,,,,,,4,Ontime,short,j,1,2.0229,4,3,19,2,1,,,,,
1.04,,,,,,,,,f,blue,5baa8cafc67122000123cab1,2021-10-22_13h54.39.529,forced_choiceRT_color,2021.2.3,Win32,59.88382538,,,,,,,,4,Ontime,short,f,1,1.9778,5,0,20,1,1,,,,,
0.63,,,,,,,,,j,red,5baa8cafc67122000123cab1,2021-10-22_13h54.39.529,forced_choiceRT_color,2021.2.3,Win32,59.88382538,,,,,,,,4,Ontime,short,j,1,1.9271,5,1,21,2,1,,,,,
1.87,,,,,,,,,d,orange,5baa8cafc67122000123cab1,2021-10-22_13h54.39.529,forced_choiceRT_color,2021.2.3,Win32,59.88382538,,,,,,,,4,Slow,short,j,0,2.1425,5,2,22,0,1,,,,,
0.17,,,,,,,,,j,red,5baa8cafc67122000123cab1,2021-10-22_13h54.39.529,forced_choiceRT_color,2021.2.3,Win32,59.88382538,,,,,,,,4,Ontime,short,j,1,1.9588,5,3,23,2,1,,,,,
1.08,,,,,,,,,k,purple,5baa8cafc67122000123cab1,2021-10-22_13h54.39.529,forced_choiceRT_color,2021.2.3,Win32,59.88382538,,,,,,,,4,Ontime,short,k,1,1.9722,6,0,24,3,1,,,,,
0.32,,,,,,,,,j,red,5baa8cafc67122000123cab1,2021-10-22_13h54.39.529,forced_choiceRT_color,2021.2.3,Win32,59.88382538,,,,,,,,4,Fast,short,j,1,1.8897,6,1,25,2,1,,,,,
1.48,,,,,,,,,k,purple,5baa8cafc67122000123cab1,2021-10-22_13h54.39.529,forced_choiceRT_color,2021.2.3,Win32,59.88382538,,,,,,,,4,Slow,short,j,0,2.1059,6,2,26,3,1,,,,,
0.27,,,,,,,,,f,blue,5baa8cafc67122000123cab1,2021-10-22_13h54.39.529,forced_choiceRT_color,2021.2.3,Win32,59.88382538,,,,,,,,4,Ontime,short,f,1,1.9594,6,3,27,1,1,,,,,
0.27,,,,,,,,,f,blue,5baa8cafc67122000123cab1,2021-10-22_13h54.39.529,forced_choiceRT_color,2021.2.3,Win32,59.88382538,,,,,,,,4,Ontime,short,f,1,1.9406,7,0,28,1,1,,,,,
0.74,,,,,,,,,f,blue,5baa8cafc67122000123cab1,2021-10-22_13h54.39.529,forced_choiceRT_color,2021.2.3,Win32,59.88382538,,,,,,,,4,Ontime,short,f,1,2.0267,7,1,29,1,1,,,,,
1.35,,,,,,,,,f,blue,5baa8cafc67122000123cab1,2021-10-22_13h54.39.529,forced_choiceRT_color,2021.2.3,Win32,59.88382538,,,,,,,,4,Ontime,short,f,1,1.9817,7,2,30,1,1,,,,,
0.82,,,,,,,,,d,orange,5baa8cafc67122000123cab1,2021-10-22_13h54.39.529,forced_choiceRT_color,2021.2.3,Win32,59.88382538,,,,,,,,4,Ontime,short,d,1,1.939,7,3,31,0,1,,,,,
1.48,,,,,,,,,f,blue,5baa8cafc67122000123cab1,2021-10-22_13h54.39.529,forced_choiceRT_color,2021.2.3,Win32,59.88382538,,,,,,,,4,Ontime,short,f,1,2.0256,8,0,32,1,1,,,,,
1.89,,,,,,,,,d,orange,5baa8cafc67122000123cab1,2021-10-22_13h54.39.529,forced_choiceRT_color,2021.2.3,Win32,59.88382538,,,,,,,,4,Ontime,short,k,0,2.0531,8,1,33,0,1,,,,,
1.74,,,,,,,,,k,purple,5baa8cafc67122000123cab1,2021-10-22_13h54.39.529,forced_choiceRT_color,2021.2.3,Win32,59.88382538,,,,,,,,4,Ontime,short,j,0,2.0132,8,2,34,3,1,,,,,
0.18,,,,,,,,,f,blue,5baa8cafc67122000123cab1,2021-10-22_13h54.39.529,forced_choiceRT_color,2021.2.3,Win32,59.88382538,,,,,,,,4,Fast,short,f,1,1.8576,8,3,35,1,1,,,,,
0.57,,,,,,,,,d,orange,5baa8cafc67122000123cab1,2021-10-22_13h54.39.529,forced_choiceRT_color,2021.2.3,Win32,59.88382538,,,,,,,,4,Ontime,short,d,1,1.9748,9,0,36,0,1,,,,,
0.13,,,,,,,,,k,purple,5baa8cafc67122000123cab1,2021-10-22_13h54.39.529,forced_choiceRT_color,2021.2.3,Win32,59.88382538,,,,,,,,4,Fast,short,k,1,1.523,9,1,37,3,1,,,,,
0.8,,,,,,,,,f,blue,5baa8cafc67122000123cab1,2021-10-22_13h54.39.529,forced_choiceRT_color,2021.2.3,Win32,59.88382538,,,,,,,,4,Ontime,short,f,1,2.0712,9,2,38,1,1,,,,,
1.44,,,,,,,,,k,purple,5baa8cafc67122000123cab1,2021-10-22_13h54.39.529,forced_choiceRT_color,2021.2.3,Win32,59.88382538,,,,,,,,4,Ontime,short,k,1,1.9254,9,3,39,3,1,,,,,
,,,,,,,,,,,5baa8cafc67122000123cab1,2021-10-22_13h54.39.529,forced_choiceRT_color,2021.2.3,Win32,59.88382538,,,,,,,,,,,,,,,,,,,3,0,3,0,1
0.87,,,,,,,,,d,orange,5baa8cafc67122000123cab1,2021-10-22_13h54.39.529,forced_choiceRT_color,2021.2.3,Win32,59.88382538,,,,,,,,5,Ontime,short,d,1,2.066,0,0,0,0,1,,,,,
1.76,,,,,,,,,k,purple,5baa8cafc67122000123cab1,2021-10-22_13h54.39.529,forced_choiceRT_color,2021.2.3,Win32,59.88382538,,,,,,,,5,Ontime,short,k,1,2.0807,0,1,1,3,1,,,,,
0.83,,,,,,,,,f,blue,5baa8cafc67122000123cab1,2021-10-22_13h54.39.529,forced_choiceRT_color,2021.2.3,Win32,59.88382538,,,,,,,,5,Ontime,short,j,0,1.9361,0,2,2,1,1,,,,,
0.8,,,,,,,,,d,orange,5baa8cafc67122000123cab1,2021-10-22_13h54.39.529,forced_choiceRT_color,2021.2.3,Win32,59.88382538,,,,,,,,5,Ontime,short,d,1,1.9106,0,3,3,0,1,,,,,
1.25,,,,,,,,,f,blue,5baa8cafc67122000123cab1,2021-10-22_13h54.39.529,forced_choiceRT_color,2021.2.3,Win32,59.88382538,,,,,,,,5,Ontime,short,k,0,2.0856,1,0,4,1,1,,,,,
1.09,,,,,,,,,j,red,5baa8cafc67122000123cab1,2021-10-22_13h54.39.529,forced_choiceRT_color,2021.2.3,Win32,59.88382538,,,,,,,,5,Ontime,short,j,1,1.9979,1,1,5,2,1,,,,,
1.39,,,,,,,,,f,blue,5baa8cafc67122000123cab1,2021-10-22_13h54.39.529,forced_choiceRT_color,2021.2.3,Win32,59.88382538,,,,,,,,5,Ontime,short,f,1,1.9692,1,2,6,1,1,,,,,
0.1,,,,,,,,,d,orange,5baa8cafc67122000123cab1,2021-10-22_13h54.39.529,forced_choiceRT_color,2021.2.3,Win32,59.88382538,,,,,,,,5,Ontime,short,d,1,2.0147,1,3,7,0,1,,,,,
0.2,,,,,,,,,d,orange,5baa8cafc67122000123cab1,2021-10-22_13h54.39.529,forced_choiceRT_color,2021.2.3,Win32,59.88382538,,,,,,,,5,Ontime,short,d,1,1.9553,2,0,8,0,1,,,,,
1.21,,,,,,,,,k,purple,5baa8cafc67122000123cab1,2021-10-22_13h54.39.529,forced_choiceRT_color,2021.2.3,Win32,59.88382538,,,,,,,,5,Ontime,short,k,1,1.926,2,1,9,3,1,,,,,
0.25,,,,,,,,,d,orange,5baa8cafc67122000123cab1,2021-10-22_13h54.39.529,forced_choiceRT_color,2021.2.3,Win32,59.88382538,,,,,,,,5,Ontime,short,d,1,1.9162,2,2,10,0,1,,,,,
1.45,,,,,,,,,k,purple,5baa8cafc67122000123cab1,2021-10-22_13h54.39.529,forced_choiceRT_color,2021.2.3,Win32,59.88382538,,,,,,,,5,Ontime,short,k,1,1.9636,2,3,11,3,1,,,,,
0.83,,,,,,,,,k,purple,5baa8cafc67122000123cab1,2021-10-22_13h54.39.529,forced_choiceRT_color,2021.2.3,Win32,59.88382538,,,,,,,,5,Fast,short,k,1,1.8404,3,0,12,3,1,,,,,
0.63,,,,,,,,,f,blue,5baa8cafc67122000123cab1,2021-10-22_13h54.39.529,forced_choiceRT_color,2021.2.3,Win32,59.88382538,,,,,,,,5,Ontime,short,f,1,2.055,3,1,13,1,1,,,,,
1.78,,,,,,,,,d,orange,5baa8cafc67122000123cab1,2021-10-22_13h54.39.529,forced_choiceRT_color,2021.2.3,Win32,59.88382538,,,,,,,,5,Slow,short,d,1,2.239,3,2,14,0,1,,,,,
0.55,,,,,,,,,d,orange,5baa8cafc67122000123cab1,2021-10-22_13h54.39.529,forced_choiceRT_color,2021.2.3,Win32,59.88382538,,,,,,,,5,Fast,short,d,1,1.8904,3,3,15,0,1,,,,,
1.5,,,,,,,,,k,purple,5baa8cafc67122000123cab1,2021-10-22_13h54.39.529,forced_choiceRT_color,2021.2.3,Win32,59.88382538,,,,,,,,5,Fast,short,d,0,1.8054,4,0,16,3,1,,,,,
1.65,,,,,,,,,j,red,5baa8cafc67122000123cab1,2021-10-22_13h54.39.529,forced_choiceRT_color,2021.2.3,Win32,59.88382538,,,,,,,,5,Slow,short,j,1,2.1794,4,1,17,2,1,,,,,
1.48,,,,,,,,,j,red,5baa8cafc67122000123cab1,2021-10-22_13h54.39.529,forced_choiceRT_color,2021.2.3,Win32,59.88382538,,,,,,,,5,Ontime,short,j,1,1.9463,4,2,18,2,1,,,,,
1,,,,,,,,,k,purple,5baa8cafc67122000123cab1,2021-10-22_13h54.39.529,forced_choiceRT_color,2021.2.3,Win32,59.88382538,,,,,,,,5,Ontime,short,k,1,1.9601,4,3,19,3,1,,,,,
1.41,,,,,,,,,j,red,5baa8cafc67122000123cab1,2021-10-22_13h54.39.529,forced_choiceRT_color,2021.2.3,Win32,59.88382538,,,,,,,,5,Ontime,short,f,0,2.0693,5,0,20,2,1,,,,,
0.47,,,,,,,,,k,purple,5baa8cafc67122000123cab1,2021-10-22_13h54.39.529,forced_choiceRT_color,2021.2.3,Win32,59.88382538,,,,,,,,5,Ontime,short,k,1,1.9499,5,1,21,3,1,,,,,
0.36,,,,,,,,,j,red,5baa8cafc67122000123cab1,2021-10-22_13h54.39.529,forced_choiceRT_color,2021.2.3,Win32,59.88382538,,,,,,,,5,Ontime,short,j,1,1.9156,5,2,22,2,1,,,,,
1.17,,,,,,,,,f,blue,5baa8cafc67122000123cab1,2021-10-22_13h54.39.529,forced_choiceRT_color,2021.2.3,Win32,59.88382538,,,,,,,,5,Ontime,short,f,1,2.0592,5,3,23,1,1,,,,,
1.38,,,,,,,,,j,red,5baa8cafc67122000123cab1,2021-10-22_13h54.39.529,forced_choiceRT_color,2021.2.3,Win32,59.88382538,,,,,,,,5,Ontime,short,k,0,1.9713,6,0,24,2,1,,,,,
0.83,,,,,,,,,f,blue,5baa8cafc67122000123cab1,2021-10-22_13h54.39.529,forced_choiceRT_color,2021.2.3,Win32,59.88382538,,,,,,,,5,Ontime,short,f,1,2.0237,6,1,25,1,1,,,,,
0.38,,,,,,,,,j,red,5baa8cafc67122000123cab1,2021-10-22_13h54.39.529,forced_choiceRT_color,2021.2.3,Win32,59.88382538,,,,,,,,5,Ontime,short,j,1,1.9781,6,2,26,2,1,,,,,
0.36,,,,,,,,,f,blue,5baa8cafc67122000123cab1,2021-10-22_13h54.39.529,forced_choiceRT_color,2021.2.3,Win32,59.88382538,,,,,,,,5,Ontime,short,f,1,1.982,6,3,27,1,1,,,,,
0.4,,,,,,,,,k,purple,5baa8cafc67122000123cab1,2021-10-22_13h54.39.529,forced_choiceRT_color,2021.2.3,Win32,59.88382538,,,,,,,,5,Ontime,short,k,1,1.9227,7,0,28,3,1,,,,,
0.74,,,,,,,,,j,red,5baa8cafc67122000123cab1,2021-10-22_13h54.39.529,forced_choiceRT_color,2021.2.3,Win32,59.88382538,,,,,,,,5,Ontime,short,f,0,2.0892,7,1,29,2,1,,,,,
1.6,,,,,,,,,k,purple,5baa8cafc67122000123cab1,2021-10-22_13h54.39.529,forced_choiceRT_color,2021.2.3,Win32,59.88382538,,,,,,,,5,Ontime,short,k,1,1.9922,7,2,30,3,1,,,,,
0.91,,,,,,,,,d,orange,5baa8cafc67122000123cab1,2021-10-22_13h54.39.529,forced_choiceRT_color,2021.2.3,Win32,59.88382538,,,,,,,,5,Ontime,short,d,1,1.9077,7,3,31,0,1,,,,,
1.19,,,,,,,,,d,orange,5baa8cafc67122000123cab1,2021-10-22_13h54.39.529,forced_choiceRT_color,2021.2.3,Win32,59.88382538,,,,,,,,5,Ontime,short,d,1,1.9786,8,0,32,0,1,,,,,
1.86,,,,,,,,,d,orange,5baa8cafc67122000123cab1,2021-10-22_13h54.39.529,forced_choiceRT_color,2021.2.3,Win32,59.88382538,,,,,,,,5,Slow,short,k,0,2.1592,8,1,33,0,1,,,,,
1.37,,,,,,,,,j,red,5baa8cafc67122000123cab1,2021-10-22_13h54.39.529,forced_choiceRT_color,2021.2.3,Win32,59.88382538,,,,,,,,5,Slow,short,j,1,2.1267,8,2,34,2,1,,,,,
0.78,,,,,,,,,f,blue,5baa8cafc67122000123cab1,2021-10-22_13h54.39.529,forced_choiceRT_color,2021.2.3,Win32,59.88382538,,,,,,,,5,Ontime,short,f,1,2.0926,8,3,35,1,1,,,,,
1.88,,,,,,,,,k,purple,5baa8cafc67122000123cab1,2021-10-22_13h54.39.529,forced_choiceRT_color,2021.2.3,Win32,59.88382538,,,,,,,,5,Ontime,short,j,0,2.0944,9,0,36,3,1,,,,,
0.62,,,,,,,,,f,blue,5baa8cafc67122000123cab1,2021-10-22_13h54.39.529,forced_choiceRT_color,2021.2.3,Win32,59.88382538,,,,,,,,5,Ontime,short,f,1,1.9499,9,1,37,1,1,,,,,
1.14,,,,,,,,,f,blue,5baa8cafc67122000123cab1,2021-10-22_13h54.39.529,forced_choiceRT_color,2021.2.3,Win32,59.88382538,,,,,,,,5,Ontime,short,f,1,1.9717,9,2,38,1,1,,,,,
1.98,,,,,,,,,j,red,5baa8cafc67122000123cab1,2021-10-22_13h54.39.529,forced_choiceRT_color,2021.2.3,Win32,59.88382538,,,,,,,,5,Ontime,short,k,0,2,9,3,39,2,1,,,,,
,,,,,,,,,,,5baa8cafc67122000123cab1,2021-10-22_13h54.39.529,forced_choiceRT_color,2021.2.3,Win32,59.88382538,,,,,,,,,,,,,,,,,,,4,0,4,0,1
0.26,,,,,,,,,f,blue,5baa8cafc67122000123cab1,2021-10-22_13h54.39.529,forced_choiceRT_color,2021.2.3,Win32,59.88382538,,,,,,,,6,Fast,short,f,1,1.7951,0,0,0,1,1,,,,,
1.27,,,,,,,,,f,blue,5baa8cafc67122000123cab1,2021-10-22_13h54.39.529,forced_choiceRT_color,2021.2.3,Win32,59.88382538,,,,,,,,6,Fast,short,f,1,1.822,0,1,1,1,1,,,,,
0.99,,,,,,,,,j,red,5baa8cafc67122000123cab1,2021-10-22_13h54.39.529,forced_choiceRT_color,2021.2.3,Win32,59.88382538,,,,,,,,6,Ontime,short,j,1,2.0598,0,2,2,2,1,,,,,
0.69,,,,,,,,,d,orange,5baa8cafc67122000123cab1,2021-10-22_13h54.39.529,forced_choiceRT_color,2021.2.3,Win32,59.88382538,,,,,,,,6,Ontime,short,d,1,2.0223,0,3,3,0,1,,,,,
0.09,,,,,,,,,j,red,5baa8cafc67122000123cab1,2021-10-22_13h54.39.529,forced_choiceRT_color,2021.2.3,Win32,59.88382538,,,,,,,,6,Ontime,short,j,1,1.9185,1,0,4,2,1,,,,,
1.78,,,,,,,,,k,purple,5baa8cafc67122000123cab1,2021-10-22_13h54.39.529,forced_choiceRT_color,2021.2.3,Win32,59.88382538,,,,,,,,6,Ontime,short,d,0,2.0775,1,1,5,3,1,,,,,
0.1,,,,,,,,,k,purple,5baa8cafc67122000123cab1,2021-10-22_13h54.39.529,forced_choiceRT_color,2021.2.3,Win32,59.88382538,,,,,,,,6,Ontime,short,k,1,1.9335,1,2,6,3,1,,,,,
0.09,,,,,,,,,j,red,5baa8cafc67122000123cab1,2021-10-22_13h54.39.529,forced_choiceRT_color,2021.2.3,Win32,59.88382538,,,,,,,,6,Fast,short,j,1,1.8762,1,3,7,2,1,,,,,
1.95,,,,,,,,,d,orange,5baa8cafc67122000123cab1,2021-10-22_13h54.39.529,forced_choiceRT_color,2021.2.3,Win32,59.88382538,,,,,,,,6,Slow,short,j,0,2.9602,2,0,8,0,1,,,,,
0.4,,,,,,,,,j,red,5baa8cafc67122000123cab1,2021-10-22_13h54.39.529,forced_choiceRT_color,2021.2.3,Win32,59.88382538,,,,,,,,6,Ontime,short,j,1,1.9674,2,1,9,2,1,,,,,
0.7,,,,,,,,,f,blue,5baa8cafc67122000123cab1,2021-10-22_13h54.39.529,forced_choiceRT_color,2021.2.3,Win32,59.88382538,,,,,,,,6,Ontime,short,f,1,2.0262,2,2,10,1,1,,,,,
1.85,,,,,,,,,d,orange,5baa8cafc67122000123cab1,2021-10-22_13h54.39.529,forced_choiceRT_color,2021.2.3,Win32,59.88382538,,,,,,,,6,Slow,short,d,1,2.108,2,3,11,0,1,,,,,
1.2,,,,,,,,,k,purple,5baa8cafc67122000123cab1,2021-10-22_13h54.39.529,forced_choiceRT_color,2021.2.3,Win32,59.88382538,,,,,,,,6,Slow,short,k,1,2.262,3,0,12,3,1,,,,,
1.54,,,,,,,,,j,red,5baa8cafc67122000123cab1,2021-10-22_13h54.39.529,forced_choiceRT_color,2021.2.3,Win32,59.88382538,,,,,,,,6,Ontime,short,k,0,2.0191,3,1,13,2,1,,,,,
0.33,,,,,,,,,f,blue,5baa8cafc67122000123cab1,2021-10-22_13h54.39.529,forced_choiceRT_color,2021.2.3,Win32,59.88382538,,,,,,,,6,Ontime,short,f,1,1.9636,3,2,14,1,1,,,,,
1.09,,,,,,,,,j,red,5baa8cafc67122000123cab1,2021-10-22_13h54.39.529,forced_choiceRT_color,2021.2.3,Win32,59.88382538,,,,,,,,6,Fast,short,j,1,1.7605,3,3,15,2,1,,,,,
1.44,,,,,,,,,f,blue,5baa8cafc67122000123cab1,2021-10-22_13h54.39.529,forced_choiceRT_color,2021.2.3,Win32,59.88382538,,,,,,,,6,Ontime,short,f,1,2.065,4,0,16,1,1,,,,,
1.55,,,,,,,,,d,orange,5baa8cafc67122000123cab1,2021-10-22_13h54.39.529,forced_choiceRT_color,2021.2.3,Win32,59.88382538,,,,,,,,6,Ontime,short,j,0,2.0012,4,1,17,0,1,,,,,
1.23,,,,,,,,,k,purple,5baa8cafc67122000123cab1,2021-10-22_13h54.39.529,forced_choiceRT_color,2021.2.3,Win32,59.88382538,,,,,,,,6,Ontime,short,k,1,1.9176,4,2,18,3,1,,,,,
1.83,,,,,,,,,d,orange,5baa8cafc67122000123cab1,2021-10-22_13h54.39.529,forced_choiceRT_color,2021.2.3,Win32,59.88382538,,,,,,,,6,Slow,short,j,0,2.1244,4,3,19,0,1,,,,,
1.02,,,,,,,,,k,purple,5baa8cafc67122000123cab1,2021-10-22_13h54.39.529,forced_choiceRT_color,2021.2.3,Win32,59.88382538,,,,,,,,6,Fast,short,j,0,1.6855,5,0,20,3,1,,,,,
1.01,,,,,,,,,k,purple,5baa8cafc67122000123cab1,2021-10-22_13h54.39.529,forced_choiceRT_color,2021.2.3,Win32,59.88382538,,,,,,,,6,Slow,short,k,1,2.2012,5,1,21,3,1,,,,,
1.61,,,,,,,,,d,orange,5baa8cafc67122000123cab1,2021-10-22_13h54.39.529,forced_choiceRT_color,2021.2.3,Win32,59.88382538,,,,,,,,6,Fast,short,k,0,1.8477,5,2,22,0,1,,,,,
0.13,,,,,,,,,d,orange,5baa8cafc67122000123cab1,2021-10-22_13h54.39.529,forced_choiceRT_color,2021.2.3,Win32,59.88382538,,,,,,,,6,Ontime,short,d,1,2.0225,5,3,23,0,1,,,,,
0.12,,,,,,,,,j,red,5baa8cafc67122000123cab1,2021-10-22_13h54.39.529,forced_choiceRT_color,2021.2.3,Win32,59.88382538,,,,,,,,6,Fast,short,j,1,1.8944,6,0,24,2,1,,,,,
0.74,,,,,,,,,f,blue,5baa8cafc67122000123cab1,2021-10-22_13h54.39.529,forced_choiceRT_color,2021.2.3,Win32,59.88382538,,,,,,,,6,Ontime,short,f,1,2.0173,6,1,25,1,1,,,,,
0.06,,,,,,,,,f,blue,5baa8cafc67122000123cab1,2021-10-22_13h54.39.529,forced_choiceRT_color,2021.2.3,Win32,59.88382538,,,,,,,,6,Ontime,short,f,1,2.0289,6,2,26,1,1,,,,,
0.6,,,,,,,,,f,blue,5baa8cafc67122000123cab1,2021-10-22_13h54.39.529,forced_choiceRT_color,2021.2.3,Win32,59.88382538,,,,,,,,6,Ontime,short,f,1,1.9345,6,3,27,1,1,,,,,
1.61,,,,,,,,,k,purple,5baa8cafc67122000123cab1,2021-10-22_13h54.39.529,forced_choiceRT_color,2021.2.3,Win32,59.88382538,,,,,,,,6,Ontime,short,k,1,1.9737,7,0,28,3,1,,,,,
0.66,,,,,,,,,d,orange,5baa8cafc67122000123cab1,2021-10-22_13h54.39.529,forced_choiceRT_color,2021.2.3,Win32,59.88382538,,,,,,,,6,Fast,short,d,1,1.8891,7,1,29,0,1,,,,,
1.11,,,,,,,,,j,red,5baa8cafc67122000123cab1,2021-10-22_13h54.39.529,forced_choiceRT_color,2021.2.3,Win32,59.88382538,,,,,,,,6,Slow,short,j,1,2.1889,7,2,30,2,1,,,,,
1.3,,,,,,,,,f,blue,5baa8cafc67122000123cab1,2021-10-22_13h54.39.529,forced_choiceRT_color,2021.2.3,Win32,59.88382538,,,,,,,,6,Slow,short,f,1,2.1077,7,3,31,1,1,,,,,
0.1,,,,,,,,,k,purple,5baa8cafc67122000123cab1,2021-10-22_13h54.39.529,forced_choiceRT_color,2021.2.3,Win32,59.88382538,,,,,,,,6,Fast,short,k,1,1.8853,8,0,32,3,1,,,,,
0.29,,,,,,,,,d,orange,5baa8cafc67122000123cab1,2021-10-22_13h54.39.529,forced_choiceRT_color,2021.2.3,Win32,59.88382538,,,,,,,,6,Ontime,short,d,1,1.9195,8,1,33,0,1,,,,,
1.2,,,,,,,,,j,red,5baa8cafc67122000123cab1,2021-10-22_13h54.39.529,forced_choiceRT_color,2021.2.3,Win32,59.88382538,,,,,,,,6,Ontime,short,j,1,1.9258,8,2,34,2,1,,,,,
0,,,,,,,,,k,purple,5baa8cafc67122000123cab1,2021-10-22_13h54.39.529,forced_choiceRT_color,2021.2.3,Win32,59.88382538,,,,,,,,6,Fast,short,k,1,1.8443,8,3,35,3,1,,,,,
0.42,,,,,,,,,d,orange,5baa8cafc67122000123cab1,2021-10-22_13h54.39.529,forced_choiceRT_color,2021.2.3,Win32,59.88382538,,,,,,,,6,Ontime,short,d,1,1.9135,9,0,36,0,1,,,,,
1.97,,,,,,,,,f,blue,5baa8cafc67122000123cab1,2021-10-22_13h54.39.529,forced_choiceRT_color,2021.2.3,Win32,59.88382538,,,,,,,,6,Ontime,short,k,0,2.0643,9,1,37,1,1,,,,,
0.19,,,,,,,,,j,red,5baa8cafc67122000123cab1,2021-10-22_13h54.39.529,forced_choiceRT_color,2021.2.3,Win32,59.88382538,,,,,,,,6,Fast,short,j,1,1.8817,9,2,38,2,1,,,,,
1.48,,,,,,,,,k,purple,5baa8cafc67122000123cab1,2021-10-22_13h54.39.529,forced_choiceRT_color,2021.2.3,Win32,59.88382538,,,,,,,,6,Ontime,short,k,1,2.0355,9,3,39,3,1,,,,,
,,,,,,,,,,,5baa8cafc67122000123cab1,2021-10-22_13h54.39.529,forced_choiceRT_color,2021.2.3,Win32,59.88382538,,,,,,,,,,,,,,,,,,,5,0,5,0,1
0.25,,,,,,,,,d,orange,5baa8cafc67122000123cab1,2021-10-22_13h54.39.529,forced_choiceRT_color,2021.2.3,Win32,59.88382538,,,,,,,,7,Ontime,short,d,1,2.0934,0,0,0,0,1,,,,,
1.99,,,,,,,,,k,purple,5baa8cafc67122000123cab1,2021-10-22_13h54.39.529,forced_choiceRT_color,2021.2.3,Win32,59.88382538,,,,,,,,7,Ontime,short,k,1,2.0709,0,1,1,3,1,,,,,
1.81,,,,,,,,,d,orange,5baa8cafc67122000123cab1,2021-10-22_13h54.39.529,forced_choiceRT_color,2021.2.3,Win32,59.88382538,,,,,,,,7,Ontime,short,j,0,2.0545,0,2,2,0,1,,,,,
0.71,,,,,,,,,k,purple,5baa8cafc67122000123cab1,2021-10-22_13h54.39.529,forced_choiceRT_color,2021.2.3,Win32,59.88382538,,,,,,,,7,Ontime,short,k,1,2.0476,0,3,3,3,1,,,,,
1.47,,,,,,,,,j,red,5baa8cafc67122000123cab1,2021-10-22_13h54.39.529,forced_choiceRT_color,2021.2.3,Win32,59.88382538,,,,,,,,7,Ontime,short,f,0,1.922,1,0,4,2,1,,,,,
1.42,,,,,,,,,d,orange,5baa8cafc67122000123cab1,2021-10-22_13h54.39.529,forced_choiceRT_color,2021.2.3,Win32,59.88382538,,,,,,,,7,Ontime,short,d,1,2.0087,1,1,5,0,1,,,,,
0.37,,,,,,,,,d,orange,5baa8cafc67122000123cab1,2021-10-22_13h54.39.529,forced_choiceRT_color,2021.2.3,Win32,59.88382538,,,,,,,,7,Ontime,short,d,1,2.0049,1,2,6,0,1,,,,,
1.38,,,,,,,,,k,purple,5baa8cafc67122000123cab1,2021-10-22_13h54.39.529,forced_choiceRT_color,2021.2.3,Win32,59.88382538,,,,,,,,7,Ontime,short,k,1,2.0797,1,3,7,3,1,,,,,
0.86,,,,,,,,,d,orange,5baa8cafc67122000123cab1,2021-10-22_13h54.39.529,forced_choiceRT_color,2021.2.3,Win32,59.88382538,,,,,,,,7,Ontime,short,d,1,1.976,2,0,8,0,1,,,,,
0.56,,,,,,,,,j,red,5baa8cafc67122000123cab1,2021-10-22_13h54.39.529,forced_choiceRT_color,2021.2.3,Win32,59.88382538,,,,,,,,7,Ontime,short,j,1,1.9893,2,1,9,2,1,,,,,
1.74,,,,,,,,,d,orange,5baa8cafc67122000123cab1,2021-10-22_13h54.39.529,forced_choiceRT_color,2021.2.3,Win32,59.88382538,,,,,,,,7,Ontime,short,f,0,1.9142,2,2,10,0,1,,,,,
1.97,,,,,,,,,f,blue,5baa8cafc67122000123cab1,2021-10-22_13h54.39.529,forced_choiceRT_color,2021.2.3,Win32,59.88382538,,,,,,,,7,Fast,short,k,0,1.8887,2,3,11,1,1,,,,,
1.74,,,,,,,,,f,blue,5baa8cafc67122000123cab1,2021-10-22_13h54.39.529,forced_choiceRT_color,2021.2.3,Win32,59.88382538,,,,,,,,7,Ontime,short,k,0,1.9646,3,0,12,1,1,,,,,
1.53,,,,,,,,,f,blue,5baa8cafc67122000123cab1,2021-10-22_13h54.39.529,forced_choiceRT_color,2021.2.3,Win32,59.88382538,,,,,,,,7,Ontime,short,d,0,1.9785,3,1,13,1,1,,,,,
0.32,,,,,,,,,f,blue,5baa8cafc67122000123cab1,2021-10-22_13h54.39.529,forced_choiceRT_color,2021.2.3,Win32,59.88382538,,,,,,,,7,Fast,short,f,1,1.872,3,2,14,1,1,,,,,
0.6,,,,,,,,,f,blue,5baa8cafc67122000123cab1,2021-10-22_13h54.39.529,forced_choiceRT_color,2021.2.3,Win32,59.88382538,,,,,,,,7,Fast,short,f,1,1.8547,3,3,15,1,1,,,,,
0.48,,,,,,,,,j,red,5baa8cafc67122000123cab1,2021-10-22_13h54.39.529,forced_choiceRT_color,2021.2.3,Win32,59.88382538,,,,,,,,7,Ontime,short,j,1,1.9046,4,0,16,2,1,,,,,
0.52,,,,,,,,,j,red,5baa8cafc67122000123cab1,2021-10-22_13h54.39.529,forced_choiceRT_color,2021.2.3,Win32,59.88382538,,,,,,,,7,Ontime,short,j,1,1.9595,4,1,17,2,1,,,,,
1.86,,,,,,,,,j,red,5baa8cafc67122000123cab1,2021-10-22_13h54.39.529,forced_choiceRT_color,2021.2.3,Win32,59.88382538,,,,,,,,7,Ontime,short,k,0,1.9821,4,2,18,2,1,,,,,
1.31,,,,,,,,,k,purple,5baa8cafc67122000123cab1,2021-10-22_13h54.39.529,forced_choiceRT_color,2021.2.3,Win32,59.88382538,,,,,,,,7,Ontime,short,k,1,1.9396,4,3,19,3,1,,,,,
1.22,,,,,,,,,k,purple,5baa8cafc67122000123cab1,2021-10-22_13h54.39.529,forced_choiceRT_color,2021.2.3,Win32,59.88382538,,,,,,,,7,Ontime,short,k,1,1.9529,5,0,20,3,1,,,,,
0.66,,,,,,,,,f,blue,5baa8cafc67122000123cab1,2021-10-22_13h54.39.529,forced_choiceRT_color,2021.2.3,Win32,59.88382538,,,,,,,,7,Ontime,short,f,1,1.9439,5,1,21,1,1,,,,,
0.69,,,,,,,,,f,blue,5baa8cafc67122000123cab1,2021-10-22_13h54.39.529,forced_choiceRT_color,2021.2.3,Win32,59.88382538,,,,,,,,7,Fast,short,f,1,1.8774,5,2,22,1,1,,,,,
0.84,,,,,,,,,d,orange,5baa8cafc67122000123cab1,2021-10-22_13h54.39.529,forced_choiceRT_color,2021.2.3,Win32,59.88382538,,,,,,,,7,Ontime,short,d,1,2.0339,5,3,23,0,1,,,,,
1.75,,,,,,,,,k,purple,5baa8cafc67122000123cab1,2021-10-22_13h54.39.529,forced_choiceRT_color,2021.2.3,Win32,59.88382538,,,,,,,,7,Ontime,short,k,1,1.9479,6,0,24,3,1,,,,,
0.19,,,,,,,,,f,blue,5baa8cafc67122000123cab1,2021-10-22_13h54.39.529,forced_choiceRT_color,2021.2.3,Win32,59.88382538,,,,,,,,7,Ontime,short,f,1,1.9576,6,1,25,1,1,,,,,
0.11,,,,,,,,,j,red,5baa8cafc67122000123cab1,2021-10-22_13h54.39.529,forced_choiceRT_color,2021.2.3,Win32,59.88382538,,,,,,,,7,Fast,short,j,1,1.8889,6,2,26,2,1,,,,,
0.33,,,,,,,,,k,purple,5baa8cafc67122000123cab1,2021-10-22_13h54.39.529,forced_choiceRT_color,2021.2.3,Win32,59.88382538,,,,,,,,7,Ontime,short,k,1,1.9087,6,3,27,3,1,,,,,
1.19,,,,,,,,,j,red,5baa8cafc67122000123cab1,2021-10-22_13h54.39.529,forced_choiceRT_color,2021.2.3,Win32,59.88382538,,,,,,,,7,Ontime,short,j,1,2.0198,7,0,28,2,1,,,,,
1.51,,,,,,,,,d,orange,5baa8cafc67122000123cab1,2021-10-22_13h54.39.529,forced_choiceRT_color,2021.2.3,Win32,59.88382538,,,,,,,,7,Slow,short,f,0,2.1378,7,1,29,0,1,,,,,
0.24,,,,,,,,,k,purple,5baa8cafc67122000123cab1,2021-10-22_13h54.39.529,forced_choiceRT_color,2021.2.3,Win32,59.88382538,,,,,,,,7,Fast,short,k,1,1.0181,7,2,30,3,1,,,,,
1.28,,,,,,,,,k,purple,5baa8cafc67122000123cab1,2021-10-22_13h54.39.529,forced_choiceRT_color,2021.2.3,Win32,59.88382538,,,,,,,,7,Ontime,short,k,1,2.0565,7,3,31,3,1,,,,,
0.21,,,,,,,,,d,orange,5baa8cafc67122000123cab1,2021-10-22_13h54.39.529,forced_choiceRT_color,2021.2.3,Win32,59.88382538,,,,,,,,7,Ontime,short,d,1,1.9757,8,0,32,0,1,,,,,
0.01,,,,,,,,,f,blue,5baa8cafc67122000123cab1,2021-10-22_13h54.39.529,forced_choiceRT_color,2021.2.3,Win32,59.88382538,,,,,,,,7,Fast,short,f,1,1.5194,8,1,33,1,1,,,,,
1.18,,,,,,,,,j,red,5baa8cafc67122000123cab1,2021-10-22_13h54.39.529,forced_choiceRT_color,2021.2.3,Win32,59.88382538,,,,,,,,7,Ontime,short,j,1,2.0252,8,2,34,2,1,,,,,
0.82,,,,,,,,,k,purple,5baa8cafc67122000123cab1,2021-10-22_13h54.39.529,forced_choiceRT_color,2021.2.3,Win32,59.88382538,,,,,,,,7,Ontime,short,k,1,2.0119,8,3,35,3,1,,,,,
1.05,,,,,,,,,j,red,5baa8cafc67122000123cab1,2021-10-22_13h54.39.529,forced_choiceRT_color,2021.2.3,Win32,59.88382538,,,,,,,,7,Fast,short,j,1,1.8715,9,0,36,2,1,,,,,
0.05,,,,,,,,,f,blue,5baa8cafc67122000123cab1,2021-10-22_13h54.39.529,forced_choiceRT_color,2021.2.3,Win32,59.88382538,,,,,,,,7,Ontime,short,f,1,1.9396,9,1,37,1,1,,,,,
0.72,,,,,,,,,d,orange,5baa8cafc67122000123cab1,2021-10-22_13h54.39.529,forced_choiceRT_color,2021.2.3,Win32,59.88382538,,,,,,,,7,Fast,short,d,1,1.8888,9,2,38,0,1,,,,,
1.75,,,,,,,,,j,red,5baa8cafc67122000123cab1,2021-10-22_13h54.39.529,forced_choiceRT_color,2021.2.3,Win32,59.88382538,,,,,,,,7,Ontime,short,j,1,2.0712,9,3,39,2,1,,,,,
,,,,,,,,,,,5baa8cafc67122000123cab1,2021-10-22_13h54.39.529,forced_choiceRT_color,2021.2.3,Win32,59.88382538,,,,,,,,,,,,,,,,,,,6,0,6,0,1
0.42,,,,,,,,,k,purple,5baa8cafc67122000123cab1,2021-10-22_13h54.39.529,forced_choiceRT_color,2021.2.3,Win32,59.88382538,,,,,,,,8,Ontime,short,k,1,1.9497,0,0,0,3,1,,,,,
0.81,,,,,,,,,k,purple,5baa8cafc67122000123cab1,2021-10-22_13h54.39.529,forced_choiceRT_color,2021.2.3,Win32,59.88382538,,,,,,,,8,Ontime,short,k,1,1.9406,0,1,1,3,1,,,,,
0.65,,,,,,,,,j,red,5baa8cafc67122000123cab1,2021-10-22_13h54.39.529,forced_choiceRT_color,2021.2.3,Win32,59.88382538,,,,,,,,8,Ontime,short,j,1,1.9799,0,2,2,2,1,,,,,
1.26,,,,,,,,,d,orange,5baa8cafc67122000123cab1,2021-10-22_13h54.39.529,forced_choiceRT_color,2021.2.3,Win32,59.88382538,,,,,,,,8,Ontime,short,d,1,1.9839,0,3,3,0,1,,,,,
1.72,,,,,,,,,j,red,5baa8cafc67122000123cab1,2021-10-22_13h54.39.529,forced_choiceRT_color,2021.2.3,Win32,59.88382538,,,,,,,,8,Ontime,short,k,0,1.9897,1,0,4,2,1,,,,,
0.02,,,,,,,,,j,red,5baa8cafc67122000123cab1,2021-10-22_13h54.39.529,forced_choiceRT_color,2021.2.3,Win32,59.88382538,,,,,,,,8,Fast,short,j,1,1.8735,1,1,5,2,1,,,,,
1.99,,,,,,,,,j,red,5baa8cafc67122000123cab1,2021-10-22_13h54.39.529,forced_choiceRT_color,2021.2.3,Win32,59.88382538,,,,,,,,8,Slow,short,d,0,2.1529,1,2,6,2,1,,,,,
0.65,,,,,,,,,d,orange,5baa8cafc67122000123cab1,2021-10-22_13h54.39.529,forced_choiceRT_color,2021.2.3,Win32,59.88382538,,,,,,,,8,Ontime,short,d,1,1.9578,1,3,7,0,1,,,,,
1.28,,,,,,,,,f,blue,5baa8cafc67122000123cab1,2021-10-22_13h54.39.529,forced_choiceRT_color,2021.2.3,Win32,59.88382538,,,,,,,,8,Ontime,short,j,0,1.9845,2,0,8,1,1,,,,,
1.07,,,,,,,,,d,orange,5baa8cafc67122000123cab1,2021-10-22_13h54.39.529,forced_choiceRT_color,2021.2.3,Win32,59.88382538,,,,,,,,8,Ontime,short,d,1,1.9276,2,1,9,0,1,,,,,
0.09,,,,,,,,,f,blue,5baa8cafc67122000123cab1,2021-10-22_13h54.39.529,forced_choiceRT_color,2021.2.3,Win32,59.88382538,,,,,,,,8,Fast,short,f,1,1.8788,2,2,10,1,1,,,,,
0.95,,,,,,,,,k,purple,5baa8cafc67122000123cab1,2021-10-22_13h54.39.529,forced_choiceRT_color,2021.2.3,Win32,59.88382538,,,,,,,,8,Ontime,short,k,1,1.9549,2,3,11,3,1,,,,,
1.86,,,,,,,,,j,red,5baa8cafc67122000123cab1,2021-10-22_13h54.39.529,forced_choiceRT_color,2021.2.3,Win32,59.88382538,,,,,,,,8,Slow,short,f,0,2.1188,3,0,12,2,1,,,,,
0.89,,,,,,,,,d,orange,5baa8cafc67122000123cab1,2021-10-22_13h54.39.529,forced_choiceRT_color,2021.2.3,Win32,59.88382538,,,,,,,,8,Ontime,short,d,1,1.9782,3,1,13,0,1,,,,,
0.26,,,,,,,,,d,orange,5baa8cafc67122000123cab1,2021-10-22_13h54.39.529,forced_choiceRT_color,2021.2.3,Win32,59.88382538,,,,,,,,8,Ontime,short,d,1,1.911,3,2,14,0,1,,,,,
0.9,,,,,,,,,f,blue,5baa8cafc67122000123cab1,2021-10-22_13h54.39.529,forced_choiceRT_color,2021.2.3,Win32,59.88382538,,,,,,,,8,Ontime,short,f,1,1.9983,3,3,15,1,1,,,,,
0.67,,,,,,,,,d,orange,5baa8cafc67122000123cab1,2021-10-22_13h54.39.529,forced_choiceRT_color,2021.2.3,Win32,59.88382538,,,,,,,,8,Fast,short,d,1,1.8837,4,0,16,0,1,,,,,
1.91,,,,,,,,,k,purple,5baa8cafc67122000123cab1,2021-10-22_13h54.39.529,forced_choiceRT_color,2021.2.3,Win32,59.88382538,,,,,,,,8,Slow,short,k,1,2.121,4,1,17,3,1,,,,,
1.93,,,,,,,,,f,blue,5baa8cafc67122000123cab1,2021-10-22_13h54.39.529,forced_choiceRT_color,2021.2.3,Win32,59.88382538,,,,,,,,8,Ontime,short,k,0,1.9848,4,2,18,1,1,,,,,
1.14,,,,,,,,,k,purple,5baa8cafc67122000123cab1,2021-10-22_13h54.39.529,forced_choiceRT_color,2021.2.3,Win32,59.88382538,,,,,,,,8,Ontime,short,k,1,1.9576,4,3,19,3,1,,,,,
1.97,,,,,,,,,j,red,5baa8cafc67122000123cab1,2021-10-22_13h54.39.529,forced_choiceRT_color,2021.2.3,Win32,59.88382538,,,,,,,,8,Ontime,short,k,0,1.9796,5,0,20,2,1,,,,,
0.45,,,,,,,,,k,purple,5baa8cafc67122000123cab1,2021-10-22_13h54.39.529,forced_choiceRT_color,2021.2.3,Win32,59.88382538,,,,,,,,8,Fast,short,k,1,1.864,5,1,21,3,1,,,,,
1.06,,,,,,,,,f,blue,5baa8cafc67122000123cab1,2021-10-22_13h54.39.529,forced_choiceRT_color,2021.2.3,Win32,59.88382538,,,,,,,,8,Ontime,short,f,1,1.9731,5,2,22,1,1,,,,,
0.84,,,,,,,,,d,orange,5baa8cafc67122000123cab1,2021-10-22_13h54.39.529,forced_choiceRT_color,2021.2.3,Win32,59.88382538,,,,,,,,8,Ontime,short,d,1,1.9064,5,3,23,0,1,,,,,
1.64,,,,,,,,,f,blue,5baa8cafc67122000123cab1,2021-10-22_13h54.39.529,forced_choiceRT_color,2021.2.3,Win32,59.88382538,,,,,,,,8,Ontime,short,k,0,1.9218,6,0,24,1,1,,,,,
1.08,,,,,,,,,j,red,5baa8cafc67122000123cab1,2021-10-22_13h54.39.529,forced_choiceRT_color,2021.2.3,Win32,59.88382538,,,,,,,,8,Fast,short,j,1,1.8979,6,1,25,2,1,,,,,
1.66,,,,,,,,,j,red,5baa8cafc67122000123cab1,2021-10-22_13h54.39.529,forced_choiceRT_color,2021.2.3,Win32,59.88382538,,,,,,,,8,Ontime,short,d,0,1.9259,6,2,26,2,1,,,,,
1.84,,,,,,,,,k,purple,5baa8cafc67122000123cab1,2021-10-22_13h54.39.529,forced_choiceRT_color,2021.2.3,Win32,59.88382538,,,,,,,,8,Ontime,short,f,0,1.9787,6,3,27,3,1,,,,,
1.26,,,,,,,,,f,blue,5baa8cafc67122000123cab1,2021-10-22_13h54.39.529,forced_choiceRT_color,2021.2.3,Win32,59.88382538,,,,,,,,8,Ontime,short,f,1,1.9288,7,0,28,1,1,,,,,
0.5,,,,,,,,,j,red,5baa8cafc67122000123cab1,2021-10-22_13h54.39.529,forced_choiceRT_color,2021.2.3,Win32,59.88382538,,,,,,,,8,Fast,short,j,1,1.8552,7,1,29,2,1,,,,,
1.3,,,,,,,,,k,purple,5baa8cafc67122000123cab1,2021-10-22_13h54.39.529,forced_choiceRT_color,2021.2.3,Win32,59.88382538,,,,,,,,8,Ontime,short,k,1,1.9574,7,2,30,3,1,,,,,
0.07,,,,,,,,,f,blue,5baa8cafc67122000123cab1,2021-10-22_13h54.39.529,forced_choiceRT_color,2021.2.3,Win32,59.88382538,,,,,,,,8,Fast,short,f,1,1.8256,7,3,31,1,1,,,,,
1.07,,,,,,,,,k,purple,5baa8cafc67122000123cab1,2021-10-22_13h54.39.529,forced_choiceRT_color,2021.2.3,Win32,59.88382538,,,,,,,,8,Ontime,short,k,1,1.9136,8,0,32,3,1,,,,,
0.76,,,,,,,,,d,orange,5baa8cafc67122000123cab1,2021-10-22_13h54.39.529,forced_choiceRT_color,2021.2.3,Win32,59.88382538,,,,,,,,8,Fast,short,d,1,1.8712,8,1,33,0,1,,,,,
1.37,,,,,,,,,d,orange,5baa8cafc67122000123cab1,2021-10-22_13h54.39.529,forced_choiceRT_color,2021.2.3,Win32,59.88382538,,,,,,,,8,Ontime,short,d,1,1.999,8,2,34,0,1,,,,,
1.38,,,,,,,,,d,orange,5baa8cafc67122000123cab1,2021-10-22_13h54.39.529,forced_choiceRT_color,2021.2.3,Win32,59.88382538,,,,,,,,8,Ontime,short,d,1,1.9278,8,3,35,0,1,,,,,
1.7,,,,,,,,,j,red,5baa8cafc67122000123cab1,2021-10-22_13h54.39.529,forced_choiceRT_color,2021.2.3,Win32,59.88382538,,,,,,,,8,Ontime,short,d,0,2.055,9,0,36,2,1,,,,,
0.63,,,,,,,,,f,blue,5baa8cafc67122000123cab1,2021-10-22_13h54.39.529,forced_choiceRT_color,2021.2.3,Win32,59.88382538,,,,,,,,8,Fast,short,k,0,1.8797,9,1,37,1,1,,,,,
0.71,,,,,,,,,f,blue,5baa8cafc67122000123cab1,2021-10-22_13h54.39.529,forced_choiceRT_color,2021.2.3,Win32,59.88382538,,,,,,,,8,Ontime,short,f,1,1.9252,9,2,38,1,1,,,,,
1.49,,,,,,,,,k,purple,5baa8cafc67122000123cab1,2021-10-22_13h54.39.529,forced_choiceRT_color,2021.2.3,Win32,59.88382538,,,,,,,,8,Ontime,short,k,1,1.9981,9,3,39,3,1,,,,,
,,,,,,,,,,,5baa8cafc67122000123cab1,2021-10-22_13h54.39.529,forced_choiceRT_color,2021.2.3,Win32,59.88382538,,,,,,,,,,,,,,,,,,,7,0,7,0,1
1.27,,,,,,,,,f,blue,5baa8cafc67122000123cab1,2021-10-22_13h54.39.529,forced_choiceRT_color,2021.2.3,Win32,59.88382538,,,,,,,,9,Ontime,short,f,1,2.0183,0,0,0,1,1,,,,,
1.05,,,,,,,,,f,blue,5baa8cafc67122000123cab1,2021-10-22_13h54.39.529,forced_choiceRT_color,2021.2.3,Win32,59.88382538,,,,,,,,9,Ontime,short,f,1,1.9634,0,1,1,1,1,,,,,
1.36,,,,,,,,,k,purple,5baa8cafc67122000123cab1,2021-10-22_13h54.39.529,forced_choiceRT_color,2021.2.3,Win32,59.88382538,,,,,,,,9,Ontime,short,k,1,2.017,0,2,2,3,1,,,,,
0.99,,,,,,,,,j,red,5baa8cafc67122000123cab1,2021-10-22_13h54.39.529,forced_choiceRT_color,2021.2.3,Win32,59.88382538,,,,,,,,9,Ontime,short,j,1,1.9568,0,3,3,2,1,,,,,
1.98,,,,,,,,,k,purple,5baa8cafc67122000123cab1,2021-10-22_13h54.39.529,forced_choiceRT_color,2021.2.3,Win32,59.88382538,,,,,,,,9,Slow,short,k,1,2.1295,1,0,4,3,1,,,,,
1.61,,,,,,,,,k,purple,5baa8cafc67122000123cab1,2021-10-22_13h54.39.529,forced_choiceRT_color,2021.2.3,Win32,59.88382538,,,,,,,,9,Slow,short,k,1,2.3076,1,1,5,3,1,,,,,
1.76,,,,,,,,,k,purple,5baa8cafc67122000123cab1,2021-10-22_13h54.39.529,forced_choiceRT_color,2021.2.3,Win32,59.88382538,,,,,,,,9,Ontime,short,k,1,2.0565,1,2,6,3,1,,,,,
0.67,,,,,,,,,j,red,5baa8cafc67122000123cab1,2021-10-22_13h54.39.529,forced_choiceRT_color,2021.2.3,Win32,59.88382538,,,,,,,,9,Ontime,short,j,1,1.9199,1,3,7,2,1,,,,,
1.65,,,,,,,,,j,red,5baa8cafc67122000123cab1,2021-10-22_13h54.39.529,forced_choiceRT_color,2021.2.3,Win32,59.88382538,,,,,,,,9,Ontime,short,f,0,2.0225,2,0,8,2,1,,,,,
0.52,,,,,,,,,d,orange,5baa8cafc67122000123cab1,2021-10-22_13h54.39.529,forced_choiceRT_color,2021.2.3,Win32,59.88382538,,,,,,,,9,Ontime,short,d,1,1.9448,2,1,9,0,1,,,,,
1.38,,,,,,,,,f,blue,5baa8cafc67122000123cab1,2021-10-22_13h54.39.529,forced_choiceRT_color,2021.2.3,Win32,59.88382538,,,,,,,,9,Ontime,short,j,0,1.9508,2,2,10,1,1,,,,,
1.16,,,,,,,,,j,red,5baa8cafc67122000123cab1,2021-10-22_13h54.39.529,forced_choiceRT_color,2021.2.3,Win32,59.88382538,,,,,,,,9,Ontime,short,f,0,1.9815,2,3,11,2,1,,,,,
1.96,,,,,,,,,k,purple,5baa8cafc67122000123cab1,2021-10-22_13h54.39.529,forced_choiceRT_color,2021.2.3,Win32,59.88382538,,,,,,,,9,Ontime,short,k,1,1.9946,3,0,12,3,1,,,,,
0.46,,,,,,,,,d,orange,5baa8cafc67122000123cab1,2021-10-22_13h54.39.529,forced_choiceRT_color,2021.2.3,Win32,59.88382538,,,,,,,,9,Fast,short,d,1,1.8389,3,1,13,0,1,,,,,
1.56,,,,,,,,,d,orange,5baa8cafc67122000123cab1,2021-10-22_13h54.39.529,forced_choiceRT_color,2021.2.3,Win32,59.88382538,,,,,,,,9,Slow,short,d,1,2.1878,3,2,14,0,1,,,,,
0.37,,,,,,,,,f,blue,5baa8cafc67122000123cab1,2021-10-22_13h54.39.529,forced_choiceRT_color,2021.2.3,Win32,59.88382538,,,,,,,,9,Fast,short,f,1,1.8838,3,3,15,1,1,,,,,
1.52,,,,,,,,,k,purple,5baa8cafc67122000123cab1,2021-10-22_13h54.39.529,forced_choiceRT_color,2021.2.3,Win32,59.88382538,,,,,,,,9,Ontime,short,k,1,1.9376,4,0,16,3,1,,,,,
0.97,,,,,,,,,f,blue,5baa8cafc67122000123cab1,2021-10-22_13h54.39.529,forced_choiceRT_color,2021.2.3,Win32,59.88382538,,,,,,,,9,Ontime,short,f,1,1.9225,4,1,17,1,1,,,,,
0.86,,,,,,,,,f,blue,5baa8cafc67122000123cab1,2021-10-22_13h54.39.529,forced_choiceRT_color,2021.2.3,Win32,59.88382538,,,,,,,,9,Ontime,short,f,1,1.9164,4,2,18,1,1,,,,,
1.24,,,,,,,,,f,blue,5baa8cafc67122000123cab1,2021-10-22_13h54.39.529,forced_choiceRT_color,2021.2.3,Win32,59.88382538,,,,,,,,9,Ontime,short,f,1,1.9242,4,3,19,1,1,,,,,
0.81,,,,,,,,,k,purple,5baa8cafc67122000123cab1,2021-10-22_13h54.39.529,forced_choiceRT_color,2021.2.3,Win32,59.88382538,,,,,,,,9,Ontime,short,k,1,1.939,5,0,20,3,1,,,,,
1.98,,,,,,,,,k,purple,5baa8cafc67122000123cab1,2021-10-22_13h54.39.529,forced_choiceRT_color,2021.2.3,Win32,59.88382538,,,,,,,,9,Ontime,short,k,1,2.0406,5,1,21,3,1,,,,,
0.13,,,,,,,,,d,orange,5baa8cafc67122000123cab1,2021-10-22_13h54.39.529,forced_choiceRT_color,2021.2.3,Win32,59.88382538,,,,,,,,9,Ontime,short,d,1,1.9476,5,2,22,0,1,,,,,
1.09,,,,,,,,,f,blue,5baa8cafc67122000123cab1,2021-10-22_13h54.39.529,forced_choiceRT_color,2021.2.3,Win32,59.88382538,,,,,,,,9,Ontime,short,f,1,1.9219,5,3,23,1,1,,,,,
0.3,,,,,,,,,j,red,5baa8cafc67122000123cab1,2021-10-22_13h54.39.529,forced_choiceRT_color,2021.2.3,Win32,59.88382538,,,,,,,,9,Fast,short,j,1,1.8971,6,0,24,2,1,,,,,
1.9,,,,,,,,,k,purple,5baa8cafc67122000123cab1,2021-10-22_13h54.39.529,forced_choiceRT_color,2021.2.3,Win32,59.88382538,,,,,,,,9,Slow,short,k,1,2.2071,6,1,25,3,1,,,,,
0.4,,,,,,,,,d,orange,5baa8cafc67122000123cab1,2021-10-22_13h54.39.529,forced_choiceRT_color,2021.2.3,Win32,59.88382538,,,,,,,,9,Fast,short,d,1,1.8655,6,2,26,0,1,,,,,
0.25,,,,,,,,,d,orange,5baa8cafc67122000123cab1,2021-10-22_13h54.39.529,forced_choiceRT_color,2021.2.3,Win32,59.88382538,,,,,,,,9,Ontime,short,d,1,1.904,6,3,27,0,1,,,,,
1.47,,,,,,,,,d,orange,5baa8cafc67122000123cab1,2021-10-22_13h54.39.529,forced_choiceRT_color,2021.2.3,Win32,59.88382538,,,,,,,,9,Fast,short,d,1,1.8937,7,0,28,0,1,,,,,
1.38,,,,,,,,,d,orange,5baa8cafc67122000123cab1,2021-10-22_13h54.39.529,forced_choiceRT_color,2021.2.3,Win32,59.88382538,,,,,,,,9,Fast,short,d,1,1.8346,7,1,29,0,1,,,,,
0.62,,,,,,,,,j,red,5baa8cafc67122000123cab1,2021-10-22_13h54.39.529,forced_choiceRT_color,2021.2.3,Win32,59.88382538,,,,,,,,9,Ontime,short,j,1,1.9211,7,2,30,2,1,,,,,
0.97,,,,,,,,,d,orange,5baa8cafc67122000123cab1,2021-10-22_13h54.39.529,forced_choiceRT_color,2021.2.3,Win32,59.88382538,,,,,,,,9,Ontime,short,d,1,1.9366,7,3,31,0,1,,,,,
0.99,,,,,,,,,j,red,5baa8cafc67122000123cab1,2021-10-22_13h54.39.529,forced_choiceRT_color,2021.2.3,Win32,59.88382538,,,,,,,,9,Ontime,short,j,1,1.9184,8,0,32,2,1,,,,,
1.19,,,,,,,,,d,orange,5baa8cafc67122000123cab1,2021-10-22_13h54.39.529,forced_choiceRT_color,2021.2.3,Win32,59.88382538,,,,,,,,9,Ontime,short,d,1,1.9649,8,1,33,0,1,,,,,
0.78,,,,,,,,,f,blue,5baa8cafc67122000123cab1,2021-10-22_13h54.39.529,forced_choiceRT_color,2021.2.3,Win32,59.88382538,,,,,,,,9,Ontime,short,f,1,1.9159,8,2,34,1,1,,,,,
0.51,,,,,,,,,j,red,5baa8cafc67122000123cab1,2021-10-22_13h54.39.529,forced_choiceRT_color,2021.2.3,Win32,59.88382538,,,,,,,,9,Ontime,short,f,0,1.9625,8,3,35,2,1,,,,,
1.6,,,,,,,,,k,purple,5baa8cafc67122000123cab1,2021-10-22_13h54.39.529,forced_choiceRT_color,2021.2.3,Win32,59.88382538,,,,,,,,9,Fast,short,j,0,0.025,9,0,36,3,1,,,,,
0.43,,,,,,,,,f,blue,5baa8cafc67122000123cab1,2021-10-22_13h54.39.529,forced_choiceRT_color,2021.2.3,Win32,59.88382538,,,,,,,,9,Slow,short,f,1,5.7791,9,1,37,1,1,,,,,
0.05,,,,,,,,,j,red,5baa8cafc67122000123cab1,2021-10-22_13h54.39.529,forced_choiceRT_color,2021.2.3,Win32,59.88382538,,,,,,,,9,Ontime,short,j,1,1.936,9,2,38,2,1,,,,,
1.24,,,,,,,,,j,red,5baa8cafc67122000123cab1,2021-10-22_13h54.39.529,forced_choiceRT_color,2021.2.3,Win32,59.88382538,,,,,,,,9,Ontime,short,j,1,1.9608,9,3,39,2,1,,,,,
,,,,,,,,,,,5baa8cafc67122000123cab1,2021-10-22_13h54.39.529,forced_choiceRT_color,2021.2.3,Win32,59.88382538,,,,,,,,,,,,,,,,,,,8,0,8,0,1
1.66,,,,,,,,,k,purple,5baa8cafc67122000123cab1,2021-10-22_13h54.39.529,forced_choiceRT_color,2021.2.3,Win32,59.88382538,,,,,,,,10,Ontime,short,d,0,2.0578,0,0,0,3,1,,,,,
0.21,,,,,,,,,k,purple,5baa8cafc67122000123cab1,2021-10-22_13h54.39.529,forced_choiceRT_color,2021.2.3,Win32,59.88382538,,,,,,,,10,Ontime,short,k,1,1.9399,0,1,1,3,1,,,,,
1.32,,,,,,,,,f,blue,5baa8cafc67122000123cab1,2021-10-22_13h54.39.529,forced_choiceRT_color,2021.2.3,Win32,59.88382538,,,,,,,,10,Ontime,short,f,1,2.0043,0,2,2,1,1,,,,,
1.47,,,,,,,,,d,orange,5baa8cafc67122000123cab1,2021-10-22_13h54.39.529,forced_choiceRT_color,2021.2.3,Win32,59.88382538,,,,,,,,10,Slow,short,d,1,2.1099,0,3,3,0,1,,,,,
0.3,,,,,,,,,f,blue,5baa8cafc67122000123cab1,2021-10-22_13h54.39.529,forced_choiceRT_color,2021.2.3,Win32,59.88382538,,,,,,,,10,Ontime,short,f,1,1.9742,1,0,4,1,1,,,,,
1.75,,,,,,,,,j,red,5baa8cafc67122000123cab1,2021-10-22_13h54.39.529,forced_choiceRT_color,2021.2.3,Win32,59.88382538,,,,,,,,10,Ontime,short,k,0,1.9554,1,1,5,2,1,,,,,
0.42,,,,,,,,,k,purple,5baa8cafc67122000123cab1,2021-10-22_13h54.39.529,forced_choiceRT_color,2021.2.3,Win32,59.88382538,,,,,,,,10,Fast,short,k,1,1.8593,1,2,6,3,1,,,,,
1.74,,,,,,,,,k,purple,5baa8cafc67122000123cab1,2021-10-22_13h54.39.529,forced_choiceRT_color,2021.2.3,Win32,59.88382538,,,,,,,,10,Ontime,short,d,0,1.9436,1,3,7,3,1,,,,,
0.32,,,,,,,,,d,orange,5baa8cafc67122000123cab1,2021-10-22_13h54.39.529,forced_choiceRT_color,2021.2.3,Win32,59.88382538,,,,,,,,10,Fast,short,d,1,1.8446,2,0,8,0,1,,,,,
0.42,,,,,,,,,f,blue,5baa8cafc67122000123cab1,2021-10-22_13h54.39.529,forced_choiceRT_color,2021.2.3,Win32,59.88382538,,,,,,,,10,Ontime,short,f,1,1.9242,2,1,9,1,1,,,,,
0.39,,,,,,,,,k,purple,5baa8cafc67122000123cab1,2021-10-22_13h54.39.529,forced_choiceRT_color,2021.2.3,Win32,59.88382538,,,,,,,,10,Fast,short,k,1,1.8586,2,2,10,3,1,,,,,
1.73,,,,,,,,,d,orange,5baa8cafc67122000123cab1,2021-10-22_13h54.39.529,forced_choiceRT_color,2021.2.3,Win32,59.88382538,,,,,,,,10,Fast,short,d,1,1.896,2,3,11,0,1,,,,,
0.79,,,,,,,,,j,red,5baa8cafc67122000123cab1,2021-10-22_13h54.39.529,forced_choiceRT_color,2021.2.3,Win32,59.88382538,,,,,,,,10,Fast,short,j,1,1.8997,3,0,12,2,1,,,,,
1.8,,,,,,,,,j,red,5baa8cafc67122000123cab1,2021-10-22_13h54.39.529,forced_choiceRT_color,2021.2.3,Win32,59.88382538,,,,,,,,10,Ontime,short,k,0,1.9928,3,1,13,2,1,,,,,
0.03,,,,,,,,,d,orange,5baa8cafc67122000123cab1,2021-10-22_13h54.39.529,forced_choiceRT_color,2021.2.3,Win32,59.88382538,,,,,,,,10,Fast,short,d,1,1.8192,3,2,14,0,1,,,,,
0.85,,,,,,,,,f,blue,5baa8cafc67122000123cab1,2021-10-22_13h54.39.529,forced_choiceRT_color,2021.2.3,Win32,59.88382538,,,,,,,,10,Fast,short,f,1,1.737,3,3,15,1,1,,,,,
0.53,,,,,,,,,j,red,5baa8cafc67122000123cab1,2021-10-22_13h54.39.529,forced_choiceRT_color,2021.2.3,Win32,59.88382538,,,,,,,,10,Ontime,short,j,1,1.963,4,0,16,2,1,,,,,
1.97,,,,,,,,,d,orange,5baa8cafc67122000123cab1,2021-10-22_13h54.39.529,forced_choiceRT_color,2021.2.3,Win32,59.88382538,,,,,,,,10,Ontime,short,d,1,1.9505,4,1,17,0,1,,,,,
1.73,,,,,,,,,d,orange,5baa8cafc67122000123cab1,2021-10-22_13h54.39.529,forced_choiceRT_color,2021.2.3,Win32,59.88382538,,,,,,,,10,Ontime,short,j,0,1.9337,4,2,18,0,1,,,,,
0.81,,,,,,,,,d,orange,5baa8cafc67122000123cab1,2021-10-22_13h54.39.529,forced_choiceRT_color,2021.2.3,Win32,59.88382538,,,,,,,,10,Fast,short,d,1,1.8618,4,3,19,0,1,,,,,
0,,,,,,,,,d,orange,5baa8cafc67122000123cab1,2021-10-22_13h54.39.529,forced_choiceRT_color,2021.2.3,Win32,59.88382538,,,,,,,,10,Ontime,short,d,1,1.9874,5,0,20,0,1,,,,,
0.29,,,,,,,,,k,purple,5baa8cafc67122000123cab1,2021-10-22_13h54.39.529,forced_choiceRT_color,2021.2.3,Win32,59.88382538,,,,,,,,10,Ontime,short,k,1,1.9648,5,1,21,3,1,,,,,
1.16,,,,,,,,,j,red,5baa8cafc67122000123cab1,2021-10-22_13h54.39.529,forced_choiceRT_color,2021.2.3,Win32,59.88382538,,,,,,,,10,Ontime,short,f,0,1.9711,5,2,22,2,1,,,,,
0.87,,,,,,,,,f,blue,5baa8cafc67122000123cab1,2021-10-22_13h54.39.529,forced_choiceRT_color,2021.2.3,Win32,59.88382538,,,,,,,,10,Ontime,short,j,0,1.9052,5,3,23,1,1,,,,,
1.96,,,,,,,,,f,blue,5baa8cafc67122000123cab1,2021-10-22_13h54.39.529,forced_choiceRT_color,2021.2.3,Win32,59.88382538,,,,,,,,10,Ontime,short,d,0,1.9208,6,0,24,1,1,,,,,
0.23,,,,,,,,,k,purple,5baa8cafc67122000123cab1,2021-10-22_13h54.39.529,forced_choiceRT_color,2021.2.3,Win32,59.88382538,,,,,,,,10,Fast,short,k,1,1.8388,6,1,25,3,1,,,,,
0.07,,,,,,,,,k,purple,5baa8cafc67122000123cab1,2021-10-22_13h54.39.529,forced_choiceRT_color,2021.2.3,Win32,59.88382538,,,,,,,,10,Fast,short,k,1,1.8932,6,2,26,3,1,,,,,
0.76,,,,,,,,,f,blue,5baa8cafc67122000123cab1,2021-10-22_13h54.39.529,forced_choiceRT_color,2021.2.3,Win32,59.88382538,,,,,,,,10,Ontime,short,f,1,1.9763,6,3,27,1,1,,,,,
0.07,,,,,,,,,j,red,5baa8cafc67122000123cab1,2021-10-22_13h54.39.529,forced_choiceRT_color,2021.2.3,Win32,59.88382538,,,,,,,,10,Fast,short,j,1,1.8123,7,0,28,2,1,,,,,
1.81,,,,,,,,,k,purple,5baa8cafc67122000123cab1,2021-10-22_13h54.39.529,forced_choiceRT_color,2021.2.3,Win32,59.88382538,,,,,,,,10,Ontime,short,f,0,2.0371,7,1,29,3,1,,,,,
1.9,,,,,,,,,j,red,5baa8cafc67122000123cab1,2021-10-22_13h54.39.529,forced_choiceRT_color,2021.2.3,Win32,59.88382538,,,,,,,,10,Ontime,short,d,0,1.941,7,2,30,2,1,,,,,
0.12,,,,,,,,,k,purple,5baa8cafc67122000123cab1,2021-10-22_13h54.39.529,forced_choiceRT_color,2021.2.3,Win32,59.88382538,,,,,,,,10,Ontime,short,k,1,1.9095,7,3,31,3,1,,,,,
1.09,,,,,,,,,f,blue,5baa8cafc67122000123cab1,2021-10-22_13h54.39.529,forced_choiceRT_color,2021.2.3,Win32,59.88382538,,,,,,,,10,Ontime,short,j,0,1.9245,8,0,32,1,1,,,,,
0.82,,,,,,,,,j,red,5baa8cafc67122000123cab1,2021-10-22_13h54.39.529,forced_choiceRT_color,2021.2.3,Win32,59.88382538,,,,,,,,10,Ontime,short,f,0,1.9323,8,1,33,2,1,,,,,
0.6,,,,,,,,,d,orange,5baa8cafc67122000123cab1,2021-10-22_13h54.39.529,forced_choiceRT_color,2021.2.3,Win32,59.88382538,,,,,,,,10,Fast,short,d,1,1.8826,8,2,34,0,1,,,,,
0.78,,,,,,,,,f,blue,5baa8cafc67122000123cab1,2021-10-22_13h54.39.529,forced_choiceRT_color,2021.2.3,Win32,59.88382538,,,,,,,,10,Fast,short,f,1,1.8988,8,3,35,1,1,,,,,
0.92,,,,,,,,,d,orange,5baa8cafc67122000123cab1,2021-10-22_13h54.39.529,forced_choiceRT_color,2021.2.3,Win32,59.88382538,,,,,,,,10,Ontime,short,d,1,1.9931,9,0,36,0,1,,,,,
1.06,,,,,,,,,j,red,5baa8cafc67122000123cab1,2021-10-22_13h54.39.529,forced_choiceRT_color,2021.2.3,Win32,59.88382538,,,,,,,,10,Ontime,short,j,1,1.9882,9,1,37,2,1,,,,,
0.29,,,,,,,,,f,blue,5baa8cafc67122000123cab1,2021-10-22_13h54.39.529,forced_choiceRT_color,2021.2.3,Win32,59.88382538,,,,,,,,10,Slow,short,f,1,2.1356,9,2,38,1,1,,,,,
0.35,,,,,,,,,j,red,5baa8cafc67122000123cab1,2021-10-22_13h54.39.529,forced_choiceRT_color,2021.2.3,Win32,59.88382538,,,,,,,,10,Ontime,short,j,1,1.9875,9,3,39,2,1,,,,,
,,,,,,,,,,,5baa8cafc67122000123cab1,2021-10-22_13h54.39.529,forced_choiceRT_color,2021.2.3,Win32,59.88382538,,,,,,,,,,,,,,,,,,,9,0,9,0,1
