target_onset,trial_resp_sp.keys,trial_resp_sp.corr,trial_resp_sp.rt,trials_train_loop.thisRepN,trials_train_loop.thisTrialN,trials_train_loop.thisN,trials_train_loop.thisIndex,trials_train_loop.ran,correct_key,color,participant,date,expName,psychopyVersion,OS,frameRate,trial_resp_timing.keys,trial_resp_timing.rt,trials_train_timing.thisRepN,trials_train_timing.thisTrialN,trials_train_timing.thisN,trials_train_timing.thisIndex,trials_train_timing.ran,block_id,ontime,feedback_cond,forcedRT_resp.keys,forcedRT_resp.corr,forcedRT_resp.rt,trials.thisRepN,trials.thisTrialN,trials.thisN,trials.thisIndex,trials.ran,blocks.thisRepN,blocks.thisTrialN,blocks.thisN,blocks.thisIndex,blocks.ran
0,d,1,2.3531,0,0,0,0,1,d,orange,5bb97d1df1f9ba000141566b,2021-09-28_14h01.54.339,forced_choiceRT_color,2021.2.3,Win32,60.00960154,,,,,,,,,,,,,,,,,,,,,,,
0,j,1,2.0361,0,1,1,2,1,j,red,5bb97d1df1f9ba000141566b,2021-09-28_14h01.54.339,forced_choiceRT_color,2021.2.3,Win32,60.00960154,,,,,,,,,,,,,,,,,,,,,,,
0,k,1,0.6748,0,2,2,3,1,k,purple,5bb97d1df1f9ba000141566b,2021-09-28_14h01.54.339,forced_choiceRT_color,2021.2.3,Win32,60.00960154,,,,,,,,,,,,,,,,,,,,,,,
0,k,1,0.8545,0,3,3,3,1,k,purple,5bb97d1df1f9ba000141566b,2021-09-28_14h01.54.339,forced_choiceRT_color,2021.2.3,Win32,60.00960154,,,,,,,,,,,,,,,,,,,,,,,
0,j,1,0.5153,1,0,4,2,1,j,red,5bb97d1df1f9ba000141566b,2021-09-28_14h01.54.339,forced_choiceRT_color,2021.2.3,Win32,60.00960154,,,,,,,,,,,,,,,,,,,,,,,
0,f,1,0.7319,1,1,5,1,1,f,blue,5bb97d1df1f9ba000141566b,2021-09-28_14h01.54.339,forced_choiceRT_color,2021.2.3,Win32,60.00960154,,,,,,,,,,,,,,,,,,,,,,,
0,k,1,0.866,1,2,6,3,1,k,purple,5bb97d1df1f9ba000141566b,2021-09-28_14h01.54.339,forced_choiceRT_color,2021.2.3,Win32,60.00960154,,,,,,,,,,,,,,,,,,,,,,,
0,j,1,0.5446,1,3,7,2,1,j,red,5bb97d1df1f9ba000141566b,2021-09-28_14h01.54.339,forced_choiceRT_color,2021.2.3,Win32,60.00960154,,,,,,,,,,,,,,,,,,,,,,,
0,d,1,0.6595,2,0,8,0,1,d,orange,5bb97d1df1f9ba000141566b,2021-09-28_14h01.54.339,forced_choiceRT_color,2021.2.3,Win32,60.00960154,,,,,,,,,,,,,,,,,,,,,,,
0,d,1,0.5516,2,1,9,0,1,d,orange,5bb97d1df1f9ba000141566b,2021-09-28_14h01.54.339,forced_choiceRT_color,2021.2.3,Win32,60.00960154,,,,,,,,,,,,,,,,,,,,,,,
0,d,1,0.584,2,2,10,0,1,d,orange,5bb97d1df1f9ba000141566b,2021-09-28_14h01.54.339,forced_choiceRT_color,2021.2.3,Win32,60.00960154,,,,,,,,,,,,,,,,,,,,,,,
0,f,1,1.1267,2,3,11,1,1,f,blue,5bb97d1df1f9ba000141566b,2021-09-28_14h01.54.339,forced_choiceRT_color,2021.2.3,Win32,60.00960154,,,,,,,,,,,,,,,,,,,,,,,
0,d,1,0.4659,3,0,12,0,1,d,orange,5bb97d1df1f9ba000141566b,2021-09-28_14h01.54.339,forced_choiceRT_color,2021.2.3,Win32,60.00960154,,,,,,,,,,,,,,,,,,,,,,,
0,f,1,0.5152,3,1,13,1,1,f,blue,5bb97d1df1f9ba000141566b,2021-09-28_14h01.54.339,forced_choiceRT_color,2021.2.3,Win32,60.00960154,,,,,,,,,,,,,,,,,,,,,,,
0,d,1,0.5108,3,2,14,0,1,d,orange,5bb97d1df1f9ba000141566b,2021-09-28_14h01.54.339,forced_choiceRT_color,2021.2.3,Win32,60.00960154,,,,,,,,,,,,,,,,,,,,,,,
0,d,1,0.493,3,3,15,0,1,d,orange,5bb97d1df1f9ba000141566b,2021-09-28_14h01.54.339,forced_choiceRT_color,2021.2.3,Win32,60.00960154,,,,,,,,,,,,,,,,,,,,,,,
0,f,1,0.8259,4,0,16,1,1,f,blue,5bb97d1df1f9ba000141566b,2021-09-28_14h01.54.339,forced_choiceRT_color,2021.2.3,Win32,60.00960154,,,,,,,,,,,,,,,,,,,,,,,
0,f,1,0.6654,4,1,17,1,1,f,blue,5bb97d1df1f9ba000141566b,2021-09-28_14h01.54.339,forced_choiceRT_color,2021.2.3,Win32,60.00960154,,,,,,,,,,,,,,,,,,,,,,,
0,d,1,0.6569,4,2,18,0,1,d,orange,5bb97d1df1f9ba000141566b,2021-09-28_14h01.54.339,forced_choiceRT_color,2021.2.3,Win32,60.00960154,,,,,,,,,,,,,,,,,,,,,,,
0,k,1,0.9987,4,3,19,3,1,k,purple,5bb97d1df1f9ba000141566b,2021-09-28_14h01.54.339,forced_choiceRT_color,2021.2.3,Win32,60.00960154,,,,,,,,,,,,,,,,,,,,,,,
0,d,1,0.6629,5,0,20,0,1,d,orange,5bb97d1df1f9ba000141566b,2021-09-28_14h01.54.339,forced_choiceRT_color,2021.2.3,Win32,60.00960154,,,,,,,,,,,,,,,,,,,,,,,
0,j,1,0.9229,5,1,21,2,1,j,red,5bb97d1df1f9ba000141566b,2021-09-28_14h01.54.339,forced_choiceRT_color,2021.2.3,Win32,60.00960154,,,,,,,,,,,,,,,,,,,,,,,
0,k,1,0.5374,5,2,22,3,1,k,purple,5bb97d1df1f9ba000141566b,2021-09-28_14h01.54.339,forced_choiceRT_color,2021.2.3,Win32,60.00960154,,,,,,,,,,,,,,,,,,,,,,,
0,k,1,0.5842,5,3,23,3,1,k,purple,5bb97d1df1f9ba000141566b,2021-09-28_14h01.54.339,forced_choiceRT_color,2021.2.3,Win32,60.00960154,,,,,,,,,,,,,,,,,,,,,,,
0,f,1,0.7742,6,0,24,1,1,f,blue,5bb97d1df1f9ba000141566b,2021-09-28_14h01.54.339,forced_choiceRT_color,2021.2.3,Win32,60.00960154,,,,,,,,,,,,,,,,,,,,,,,
0,d,1,0.622,6,1,25,0,1,d,orange,5bb97d1df1f9ba000141566b,2021-09-28_14h01.54.339,forced_choiceRT_color,2021.2.3,Win32,60.00960154,,,,,,,,,,,,,,,,,,,,,,,
0,k,1,0.8246,6,2,26,3,1,k,purple,5bb97d1df1f9ba000141566b,2021-09-28_14h01.54.339,forced_choiceRT_color,2021.2.3,Win32,60.00960154,,,,,,,,,,,,,,,,,,,,,,,
0,f,1,1.3151,6,3,27,1,1,f,blue,5bb97d1df1f9ba000141566b,2021-09-28_14h01.54.339,forced_choiceRT_color,2021.2.3,Win32,60.00960154,,,,,,,,,,,,,,,,,,,,,,,
0,k,1,0.8059,7,0,28,3,1,k,purple,5bb97d1df1f9ba000141566b,2021-09-28_14h01.54.339,forced_choiceRT_color,2021.2.3,Win32,60.00960154,,,,,,,,,,,,,,,,,,,,,,,
0,k,1,1.062,7,1,29,3,1,k,purple,5bb97d1df1f9ba000141566b,2021-09-28_14h01.54.339,forced_choiceRT_color,2021.2.3,Win32,60.00960154,,,,,,,,,,,,,,,,,,,,,,,
0,k,1,0.4911,7,2,30,3,1,k,purple,5bb97d1df1f9ba000141566b,2021-09-28_14h01.54.339,forced_choiceRT_color,2021.2.3,Win32,60.00960154,,,,,,,,,,,,,,,,,,,,,,,
0,f,1,0.8502,7,3,31,1,1,f,blue,5bb97d1df1f9ba000141566b,2021-09-28_14h01.54.339,forced_choiceRT_color,2021.2.3,Win32,60.00960154,,,,,,,,,,,,,,,,,,,,,,,
0,f,1,0.6348,8,0,32,1,1,f,blue,5bb97d1df1f9ba000141566b,2021-09-28_14h01.54.339,forced_choiceRT_color,2021.2.3,Win32,60.00960154,,,,,,,,,,,,,,,,,,,,,,,
0,f,1,0.671,8,1,33,1,1,f,blue,5bb97d1df1f9ba000141566b,2021-09-28_14h01.54.339,forced_choiceRT_color,2021.2.3,Win32,60.00960154,,,,,,,,,,,,,,,,,,,,,,,
0,k,1,0.6919,8,2,34,3,1,k,purple,5bb97d1df1f9ba000141566b,2021-09-28_14h01.54.339,forced_choiceRT_color,2021.2.3,Win32,60.00960154,,,,,,,,,,,,,,,,,,,,,,,
0,j,1,0.6168,8,3,35,2,1,j,red,5bb97d1df1f9ba000141566b,2021-09-28_14h01.54.339,forced_choiceRT_color,2021.2.3,Win32,60.00960154,,,,,,,,,,,,,,,,,,,,,,,
0,f,1,0.6572,9,0,36,1,1,f,blue,5bb97d1df1f9ba000141566b,2021-09-28_14h01.54.339,forced_choiceRT_color,2021.2.3,Win32,60.00960154,,,,,,,,,,,,,,,,,,,,,,,
0,k,1,0.6316,9,1,37,3,1,k,purple,5bb97d1df1f9ba000141566b,2021-09-28_14h01.54.339,forced_choiceRT_color,2021.2.3,Win32,60.00960154,,,,,,,,,,,,,,,,,,,,,,,
0,d,1,0.6474,9,2,38,0,1,d,orange,5bb97d1df1f9ba000141566b,2021-09-28_14h01.54.339,forced_choiceRT_color,2021.2.3,Win32,60.00960154,,,,,,,,,,,,,,,,,,,,,,,
0,j,1,0.7097,9,3,39,2,1,j,red,5bb97d1df1f9ba000141566b,2021-09-28_14h01.54.339,forced_choiceRT_color,2021.2.3,Win32,60.00960154,,,,,,,,,,,,,,,,,,,,,,,
0,j,1,0.6041,10,0,40,2,1,j,red,5bb97d1df1f9ba000141566b,2021-09-28_14h01.54.339,forced_choiceRT_color,2021.2.3,Win32,60.00960154,,,,,,,,,,,,,,,,,,,,,,,
0,f,1,0.4578,10,1,41,1,1,f,blue,5bb97d1df1f9ba000141566b,2021-09-28_14h01.54.339,forced_choiceRT_color,2021.2.3,Win32,60.00960154,,,,,,,,,,,,,,,,,,,,,,,
0,j,1,0.641,10,2,42,2,1,j,red,5bb97d1df1f9ba000141566b,2021-09-28_14h01.54.339,forced_choiceRT_color,2021.2.3,Win32,60.00960154,,,,,,,,,,,,,,,,,,,,,,,
0,j,1,0.4185,10,3,43,2,1,j,red,5bb97d1df1f9ba000141566b,2021-09-28_14h01.54.339,forced_choiceRT_color,2021.2.3,Win32,60.00960154,,,,,,,,,,,,,,,,,,,,,,,
0,j,1,0.8773,11,0,44,2,1,j,red,5bb97d1df1f9ba000141566b,2021-09-28_14h01.54.339,forced_choiceRT_color,2021.2.3,Win32,60.00960154,,,,,,,,,,,,,,,,,,,,,,,
0,j,1,0.5013,11,1,45,2,1,j,red,5bb97d1df1f9ba000141566b,2021-09-28_14h01.54.339,forced_choiceRT_color,2021.2.3,Win32,60.00960154,,,,,,,,,,,,,,,,,,,,,,,
0,j,1,0.6221,11,2,46,2,1,j,red,5bb97d1df1f9ba000141566b,2021-09-28_14h01.54.339,forced_choiceRT_color,2021.2.3,Win32,60.00960154,,,,,,,,,,,,,,,,,,,,,,,
0,j,1,0.5585,11,3,47,2,1,j,red,5bb97d1df1f9ba000141566b,2021-09-28_14h01.54.339,forced_choiceRT_color,2021.2.3,Win32,60.00960154,,,,,,,,,,,,,,,,,,,,,,,
0,j,1,0.5616,12,0,48,2,1,j,red,5bb97d1df1f9ba000141566b,2021-09-28_14h01.54.339,forced_choiceRT_color,2021.2.3,Win32,60.00960154,,,,,,,,,,,,,,,,,,,,,,,
0,f,1,0.8146,12,1,49,1,1,f,blue,5bb97d1df1f9ba000141566b,2021-09-28_14h01.54.339,forced_choiceRT_color,2021.2.3,Win32,60.00960154,,,,,,,,,,,,,,,,,,,,,,,
0,d,1,0.6526,12,2,50,0,1,d,orange,5bb97d1df1f9ba000141566b,2021-09-28_14h01.54.339,forced_choiceRT_color,2021.2.3,Win32,60.00960154,,,,,,,,,,,,,,,,,,,,,,,
0,f,1,0.5714,12,3,51,1,1,f,blue,5bb97d1df1f9ba000141566b,2021-09-28_14h01.54.339,forced_choiceRT_color,2021.2.3,Win32,60.00960154,,,,,,,,,,,,,,,,,,,,,,,
0,d,1,0.5663,13,0,52,0,1,d,orange,5bb97d1df1f9ba000141566b,2021-09-28_14h01.54.339,forced_choiceRT_color,2021.2.3,Win32,60.00960154,,,,,,,,,,,,,,,,,,,,,,,
0,k,1,0.6642,13,1,53,3,1,k,purple,5bb97d1df1f9ba000141566b,2021-09-28_14h01.54.339,forced_choiceRT_color,2021.2.3,Win32,60.00960154,,,,,,,,,,,,,,,,,,,,,,,
0,d,1,0.6617,13,2,54,0,1,d,orange,5bb97d1df1f9ba000141566b,2021-09-28_14h01.54.339,forced_choiceRT_color,2021.2.3,Win32,60.00960154,,,,,,,,,,,,,,,,,,,,,,,
0,k,1,0.5247,13,3,55,3,1,k,purple,5bb97d1df1f9ba000141566b,2021-09-28_14h01.54.339,forced_choiceRT_color,2021.2.3,Win32,60.00960154,,,,,,,,,,,,,,,,,,,,,,,
0,f,1,0.6739,14,0,56,1,1,f,blue,5bb97d1df1f9ba000141566b,2021-09-28_14h01.54.339,forced_choiceRT_color,2021.2.3,Win32,60.00960154,,,,,,,,,,,,,,,,,,,,,,,
0,d,1,0.6259,14,1,57,0,1,d,orange,5bb97d1df1f9ba000141566b,2021-09-28_14h01.54.339,forced_choiceRT_color,2021.2.3,Win32,60.00960154,,,,,,,,,,,,,,,,,,,,,,,
0,k,1,0.6385,14,2,58,3,1,k,purple,5bb97d1df1f9ba000141566b,2021-09-28_14h01.54.339,forced_choiceRT_color,2021.2.3,Win32,60.00960154,,,,,,,,,,,,,,,,,,,,,,,
0,j,1,0.6868,14,3,59,2,1,j,red,5bb97d1df1f9ba000141566b,2021-09-28_14h01.54.339,forced_choiceRT_color,2021.2.3,Win32,60.00960154,,,,,,,,,,,,,,,,,,,,,,,
,,,,,,,,,,,5bb97d1df1f9ba000141566b,2021-09-28_14h01.54.339,forced_choiceRT_color,2021.2.3,Win32,60.00960154,j,2.237,0,0,0,0,1,,,,,,,,,,,,,,,,
,,,,,,,,,,,5bb97d1df1f9ba000141566b,2021-09-28_14h01.54.339,forced_choiceRT_color,2021.2.3,Win32,60.00960154,j,1.946,1,0,1,0,1,,,,,,,,,,,,,,,,
,,,,,,,,,,,5bb97d1df1f9ba000141566b,2021-09-28_14h01.54.339,forced_choiceRT_color,2021.2.3,Win32,60.00960154,j,1.9604,2,0,2,0,1,,,,,,,,,,,,,,,,
,,,,,,,,,,,5bb97d1df1f9ba000141566b,2021-09-28_14h01.54.339,forced_choiceRT_color,2021.2.3,Win32,60.00960154,j,2.0245,3,0,3,0,1,,,,,,,,,,,,,,,,
,,,,,,,,,,,5bb97d1df1f9ba000141566b,2021-09-28_14h01.54.339,forced_choiceRT_color,2021.2.3,Win32,60.00960154,j,1.8569,4,0,4,0,1,,,,,,,,,,,,,,,,
,,,,,,,,,,,5bb97d1df1f9ba000141566b,2021-09-28_14h01.54.339,forced_choiceRT_color,2021.2.3,Win32,60.00960154,j,5.5128,5,0,5,0,1,,,,,,,,,,,,,,,,
,,,,,,,,,,,5bb97d1df1f9ba000141566b,2021-09-28_14h01.54.339,forced_choiceRT_color,2021.2.3,Win32,60.00960154,j,1.9532,6,0,6,0,1,,,,,,,,,,,,,,,,
,,,,,,,,,,,5bb97d1df1f9ba000141566b,2021-09-28_14h01.54.339,forced_choiceRT_color,2021.2.3,Win32,60.00960154,j,2.0198,7,0,7,0,1,,,,,,,,,,,,,,,,
,,,,,,,,,,,5bb97d1df1f9ba000141566b,2021-09-28_14h01.54.339,forced_choiceRT_color,2021.2.3,Win32,60.00960154,j,1.9982,8,0,8,0,1,,,,,,,,,,,,,,,,
,,,,,,,,,,,5bb97d1df1f9ba000141566b,2021-09-28_14h01.54.339,forced_choiceRT_color,2021.2.3,Win32,60.00960154,j,2.0732,9,0,9,0,1,,,,,,,,,,,,,,,,
,,,,,,,,,,,5bb97d1df1f9ba000141566b,2021-09-28_14h01.54.339,forced_choiceRT_color,2021.2.3,Win32,60.00960154,j,2.0164,10,0,10,0,1,,,,,,,,,,,,,,,,
,,,,,,,,,,,5bb97d1df1f9ba000141566b,2021-09-28_14h01.54.339,forced_choiceRT_color,2021.2.3,Win32,60.00960154,j,2.001,11,0,11,0,1,,,,,,,,,,,,,,,,
,,,,,,,,,,,5bb97d1df1f9ba000141566b,2021-09-28_14h01.54.339,forced_choiceRT_color,2021.2.3,Win32,60.00960154,j,2.0873,12,0,12,0,1,,,,,,,,,,,,,,,,
,,,,,,,,,,,5bb97d1df1f9ba000141566b,2021-09-28_14h01.54.339,forced_choiceRT_color,2021.2.3,Win32,60.00960154,j,2.032,13,0,13,0,1,,,,,,,,,,,,,,,,
,,,,,,,,,,,5bb97d1df1f9ba000141566b,2021-09-28_14h01.54.339,forced_choiceRT_color,2021.2.3,Win32,60.00960154,j,1.9979,14,0,14,0,1,,,,,,,,,,,,,,,,
,,,,,,,,,,,5bb97d1df1f9ba000141566b,2021-09-28_14h01.54.339,forced_choiceRT_color,2021.2.3,Win32,60.00960154,j,2.1234,15,0,15,0,1,,,,,,,,,,,,,,,,
,,,,,,,,,,,5bb97d1df1f9ba000141566b,2021-09-28_14h01.54.339,forced_choiceRT_color,2021.2.3,Win32,60.00960154,k,2.0187,16,0,16,0,1,,,,,,,,,,,,,,,,
,,,,,,,,,,,5bb97d1df1f9ba000141566b,2021-09-28_14h01.54.339,forced_choiceRT_color,2021.2.3,Win32,60.00960154,j,2.0326,17,0,17,0,1,,,,,,,,,,,,,,,,
,,,,,,,,,,,5bb97d1df1f9ba000141566b,2021-09-28_14h01.54.339,forced_choiceRT_color,2021.2.3,Win32,60.00960154,k,2.0101,18,0,18,0,1,,,,,,,,,,,,,,,,
,,,,,,,,,,,5bb97d1df1f9ba000141566b,2021-09-28_14h01.54.339,forced_choiceRT_color,2021.2.3,Win32,60.00960154,j,2.0395,19,0,19,0,1,,,,,,,,,,,,,,,,
0.45,,,,,,,,,j,red,5bb97d1df1f9ba000141566b,2021-09-28_14h01.54.339,forced_choiceRT_color,2021.2.3,Win32,60.00960154,,,,,,,,1,Ontime,long,d,0,2.0113,0,0,0,2,1,,,,,
1.44,,,,,,,,,d,orange,5bb97d1df1f9ba000141566b,2021-09-28_14h01.54.339,forced_choiceRT_color,2021.2.3,Win32,60.00960154,,,,,,,,1,Slow,long,f,0,2.2381,0,1,1,0,1,,,,,
1.29,,,,,,,,,k,purple,5bb97d1df1f9ba000141566b,2021-09-28_14h01.54.339,forced_choiceRT_color,2021.2.3,Win32,60.00960154,,,,,,,,1,Fast,long,f,0,1.6378,0,2,2,3,1,,,,,
1.68,,,,,,,,,f,blue,5bb97d1df1f9ba000141566b,2021-09-28_14h01.54.339,forced_choiceRT_color,2021.2.3,Win32,60.00960154,,,,,,,,1,Slow,long,f,1,2.277,0,3,3,1,1,,,,,
1.45,,,,,,,,,d,orange,5bb97d1df1f9ba000141566b,2021-09-28_14h01.54.339,forced_choiceRT_color,2021.2.3,Win32,60.00960154,,,,,,,,1,Slow,long,f,0,2.1793,1,0,4,0,1,,,,,
0.36,,,,,,,,,j,red,5bb97d1df1f9ba000141566b,2021-09-28_14h01.54.339,forced_choiceRT_color,2021.2.3,Win32,60.00960154,,,,,,,,1,Fast,long,j,1,1.5593,1,1,5,2,1,,,,,
0.67,,,,,,,,,d,orange,5bb97d1df1f9ba000141566b,2021-09-28_14h01.54.339,forced_choiceRT_color,2021.2.3,Win32,60.00960154,,,,,,,,1,Ontime,long,f,0,1.9677,1,2,6,0,1,,,,,
1.98,,,,,,,,,d,orange,5bb97d1df1f9ba000141566b,2021-09-28_14h01.54.339,forced_choiceRT_color,2021.2.3,Win32,60.00960154,,,,,,,,1,Slow,long,d,1,2.1557,1,3,7,0,1,,,,,
0.04,,,,,,,,,k,purple,5bb97d1df1f9ba000141566b,2021-09-28_14h01.54.339,forced_choiceRT_color,2021.2.3,Win32,60.00960154,,,,,,,,1,Ontime,long,j,0,1.9838,2,0,8,3,1,,,,,
0.8,,,,,,,,,d,orange,5bb97d1df1f9ba000141566b,2021-09-28_14h01.54.339,forced_choiceRT_color,2021.2.3,Win32,60.00960154,,,,,,,,1,Ontime,long,f,0,2.0474,2,1,9,0,1,,,,,
0.99,,,,,,,,,f,blue,5bb97d1df1f9ba000141566b,2021-09-28_14h01.54.339,forced_choiceRT_color,2021.2.3,Win32,60.00960154,,,,,,,,1,Slow,long,d,0,2.1011,2,2,10,1,1,,,,,
1.43,,,,,,,,,k,purple,5bb97d1df1f9ba000141566b,2021-09-28_14h01.54.339,forced_choiceRT_color,2021.2.3,Win32,60.00960154,,,,,,,,1,Slow,long,j,0,2.1018,2,3,11,3,1,,,,,
1.89,,,,,,,,,k,purple,5bb97d1df1f9ba000141566b,2021-09-28_14h01.54.339,forced_choiceRT_color,2021.2.3,Win32,60.00960154,,,,,,,,1,Slow,long,k,1,2.1281,3,0,12,3,1,,,,,
1.76,,,,,,,,,k,purple,5bb97d1df1f9ba000141566b,2021-09-28_14h01.54.339,forced_choiceRT_color,2021.2.3,Win32,60.00960154,,,,,,,,1,Slow,long,k,1,2.1257,3,1,13,3,1,,,,,
0.82,,,,,,,,,j,red,5bb97d1df1f9ba000141566b,2021-09-28_14h01.54.339,forced_choiceRT_color,2021.2.3,Win32,60.00960154,,,,,,,,1,Fast,long,j,1,1.8884,3,2,14,2,1,,,,,
1.28,,,,,,,,,d,orange,5bb97d1df1f9ba000141566b,2021-09-28_14h01.54.339,forced_choiceRT_color,2021.2.3,Win32,60.00960154,,,,,,,,1,Ontime,long,f,0,2.0126,3,3,15,0,1,,,,,
1.29,,,,,,,,,j,red,5bb97d1df1f9ba000141566b,2021-09-28_14h01.54.339,forced_choiceRT_color,2021.2.3,Win32,60.00960154,,,,,,,,1,Ontime,long,j,1,2.0721,4,0,16,2,1,,,,,
1.03,,,,,,,,,d,orange,5bb97d1df1f9ba000141566b,2021-09-28_14h01.54.339,forced_choiceRT_color,2021.2.3,Win32,60.00960154,,,,,,,,1,Slow,long,f,0,2.1103,4,1,17,0,1,,,,,
0.94,,,,,,,,,f,blue,5bb97d1df1f9ba000141566b,2021-09-28_14h01.54.339,forced_choiceRT_color,2021.2.3,Win32,60.00960154,,,,,,,,1,Ontime,long,d,0,1.9956,4,2,18,1,1,,,,,
1.11,,,,,,,,,j,red,5bb97d1df1f9ba000141566b,2021-09-28_14h01.54.339,forced_choiceRT_color,2021.2.3,Win32,60.00960154,,,,,,,,1,Ontime,long,j,1,2.0859,4,3,19,2,1,,,,,
0.19,,,,,,,,,j,red,5bb97d1df1f9ba000141566b,2021-09-28_14h01.54.339,forced_choiceRT_color,2021.2.3,Win32,60.00960154,,,,,,,,1,Ontime,long,j,1,1.9018,5,0,20,2,1,,,,,
1.59,,,,,,,,,k,purple,5bb97d1df1f9ba000141566b,2021-09-28_14h01.54.339,forced_choiceRT_color,2021.2.3,Win32,60.00960154,,,,,,,,1,Slow,long,k,1,2.2346,5,1,21,3,1,,,,,
0.6,,,,,,,,,k,purple,5bb97d1df1f9ba000141566b,2021-09-28_14h01.54.339,forced_choiceRT_color,2021.2.3,Win32,60.00960154,,,,,,,,1,Ontime,long,k,1,2.027,5,2,22,3,1,,,,,
1.47,,,,,,,,,f,blue,5bb97d1df1f9ba000141566b,2021-09-28_14h01.54.339,forced_choiceRT_color,2021.2.3,Win32,60.00960154,,,,,,,,1,Ontime,long,j,0,2.0318,5,3,23,1,1,,,,,
1.18,,,,,,,,,k,purple,5bb97d1df1f9ba000141566b,2021-09-28_14h01.54.339,forced_choiceRT_color,2021.2.3,Win32,60.00960154,,,,,,,,1,Ontime,long,k,1,2.0949,6,0,24,3,1,,,,,
1.4,,,,,,,,,k,purple,5bb97d1df1f9ba000141566b,2021-09-28_14h01.54.339,forced_choiceRT_color,2021.2.3,Win32,60.00960154,,,,,,,,1,Ontime,long,f,0,2.0724,6,1,25,3,1,,,,,
0.81,,,,,,,,,j,red,5bb97d1df1f9ba000141566b,2021-09-28_14h01.54.339,forced_choiceRT_color,2021.2.3,Win32,60.00960154,,,,,,,,1,Ontime,long,f,0,2.0027,6,2,26,2,1,,,,,
0.05,,,,,,,,,f,blue,5bb97d1df1f9ba000141566b,2021-09-28_14h01.54.339,forced_choiceRT_color,2021.2.3,Win32,60.00960154,,,,,,,,1,Ontime,long,d,0,1.9252,6,3,27,1,1,,,,,
0.95,,,,,,,,,j,red,5bb97d1df1f9ba000141566b,2021-09-28_14h01.54.339,forced_choiceRT_color,2021.2.3,Win32,60.00960154,,,,,,,,1,Ontime,long,j,1,1.9576,7,0,28,2,1,,,,,
1.77,,,,,,,,,j,red,5bb97d1df1f9ba000141566b,2021-09-28_14h01.54.339,forced_choiceRT_color,2021.2.3,Win32,60.00960154,,,,,,,,1,Slow,long,j,1,2.1871,7,1,29,2,1,,,,,
0.6,,,,,,,,,f,blue,5bb97d1df1f9ba000141566b,2021-09-28_14h01.54.339,forced_choiceRT_color,2021.2.3,Win32,60.00960154,,,,,,,,1,Ontime,long,d,0,2.0578,7,2,30,1,1,,,,,
1.06,,,,,,,,,d,orange,5bb97d1df1f9ba000141566b,2021-09-28_14h01.54.339,forced_choiceRT_color,2021.2.3,Win32,60.00960154,,,,,,,,1,Ontime,long,f,0,2.0351,7,3,31,0,1,,,,,
0.6,,,,,,,,,f,blue,5bb97d1df1f9ba000141566b,2021-09-28_14h01.54.339,forced_choiceRT_color,2021.2.3,Win32,60.00960154,,,,,,,,1,Ontime,long,d,0,1.9004,8,0,32,1,1,,,,,
0.44,,,,,,,,,f,blue,5bb97d1df1f9ba000141566b,2021-09-28_14h01.54.339,forced_choiceRT_color,2021.2.3,Win32,60.00960154,,,,,,,,1,Ontime,long,d,0,1.9254,8,1,33,1,1,,,,,
1.7,,,,,,,,,f,blue,5bb97d1df1f9ba000141566b,2021-09-28_14h01.54.339,forced_choiceRT_color,2021.2.3,Win32,60.00960154,,,,,,,,1,Slow,long,d,0,2.3717,8,2,34,1,1,,,,,
1.32,,,,,,,,,k,purple,5bb97d1df1f9ba000141566b,2021-09-28_14h01.54.339,forced_choiceRT_color,2021.2.3,Win32,60.00960154,,,,,,,,1,Fast,long,j,0,1.8676,8,3,35,3,1,,,,,
1.86,,,,,,,,,d,orange,5bb97d1df1f9ba000141566b,2021-09-28_14h01.54.339,forced_choiceRT_color,2021.2.3,Win32,60.00960154,,,,,,,,1,Slow,long,k,0,2.1376,9,0,36,0,1,,,,,
1.74,,,,,,,,,j,red,5bb97d1df1f9ba000141566b,2021-09-28_14h01.54.339,forced_choiceRT_color,2021.2.3,Win32,60.00960154,,,,,,,,1,Slow,long,j,1,2.1741,9,1,37,2,1,,,,,
0.36,,,,,,,,,f,blue,5bb97d1df1f9ba000141566b,2021-09-28_14h01.54.339,forced_choiceRT_color,2021.2.3,Win32,60.00960154,,,,,,,,1,Ontime,long,d,0,1.9351,9,2,38,1,1,,,,,
1.78,,,,,,,,,d,orange,5bb97d1df1f9ba000141566b,2021-09-28_14h01.54.339,forced_choiceRT_color,2021.2.3,Win32,60.00960154,,,,,,,,1,Slow,long,j,0,2.1324,9,3,39,0,1,,,,,
,,,,,,,,,,,5bb97d1df1f9ba000141566b,2021-09-28_14h01.54.339,forced_choiceRT_color,2021.2.3,Win32,60.00960154,,,,,,,,,,,,,,,,,,,0,0,0,0,1
0.47,,,,,,,,,f,blue,5bb97d1df1f9ba000141566b,2021-09-28_14h01.54.339,forced_choiceRT_color,2021.2.3,Win32,60.00960154,,,,,,,,2,Ontime,long,d,0,2.0537,0,0,0,1,1,,,,,
1.96,,,,,,,,,d,orange,5bb97d1df1f9ba000141566b,2021-09-28_14h01.54.339,forced_choiceRT_color,2021.2.3,Win32,60.00960154,,,,,,,,2,Slow,long,d,1,2.2877,0,1,1,0,1,,,,,
0.58,,,,,,,,,f,blue,5bb97d1df1f9ba000141566b,2021-09-28_14h01.54.339,forced_choiceRT_color,2021.2.3,Win32,60.00960154,,,,,,,,2,Fast,long,d,0,1.8176,0,2,2,1,1,,,,,
1.11,,,,,,,,,d,orange,5bb97d1df1f9ba000141566b,2021-09-28_14h01.54.339,forced_choiceRT_color,2021.2.3,Win32,60.00960154,,,,,,,,2,Fast,long,f,0,1.8834,0,3,3,0,1,,,,,
0.46,,,,,,,,,j,red,5bb97d1df1f9ba000141566b,2021-09-28_14h01.54.339,forced_choiceRT_color,2021.2.3,Win32,60.00960154,,,,,,,,2,Ontime,long,j,1,2.0255,1,0,4,2,1,,,,,
1.56,,,,,,,,,d,orange,5bb97d1df1f9ba000141566b,2021-09-28_14h01.54.339,forced_choiceRT_color,2021.2.3,Win32,60.00960154,,,,,,,,2,Slow,long,j,0,2.1091,1,1,5,0,1,,,,,
0.24,,,,,,,,,j,red,5bb97d1df1f9ba000141566b,2021-09-28_14h01.54.339,forced_choiceRT_color,2021.2.3,Win32,60.00960154,,,,,,,,2,Ontime,long,j,1,2.0232,1,2,6,2,1,,,,,
1.27,,,,,,,,,k,purple,5bb97d1df1f9ba000141566b,2021-09-28_14h01.54.339,forced_choiceRT_color,2021.2.3,Win32,60.00960154,,,,,,,,2,Ontime,long,k,1,1.9347,1,3,7,3,1,,,,,
0.55,,,,,,,,,j,red,5bb97d1df1f9ba000141566b,2021-09-28_14h01.54.339,forced_choiceRT_color,2021.2.3,Win32,60.00960154,,,,,,,,2,Ontime,long,j,1,1.9473,2,0,8,2,1,,,,,
1.62,,,,,,,,,j,red,5bb97d1df1f9ba000141566b,2021-09-28_14h01.54.339,forced_choiceRT_color,2021.2.3,Win32,60.00960154,,,,,,,,2,Slow,long,j,1,2.16,2,1,9,2,1,,,,,
0.18,,,,,,,,,f,blue,5bb97d1df1f9ba000141566b,2021-09-28_14h01.54.339,forced_choiceRT_color,2021.2.3,Win32,60.00960154,,,,,,,,2,Ontime,long,d,0,1.9608,2,2,10,1,1,,,,,
1.06,,,,,,,,,k,purple,5bb97d1df1f9ba000141566b,2021-09-28_14h01.54.339,forced_choiceRT_color,2021.2.3,Win32,60.00960154,,,,,,,,2,Ontime,long,k,1,2.0219,2,3,11,3,1,,,,,
0.84,,,,,,,,,j,red,5bb97d1df1f9ba000141566b,2021-09-28_14h01.54.339,forced_choiceRT_color,2021.2.3,Win32,60.00960154,,,,,,,,2,Ontime,long,j,1,2.0096,3,0,12,2,1,,,,,
1.48,,,,,,,,,d,orange,5bb97d1df1f9ba000141566b,2021-09-28_14h01.54.339,forced_choiceRT_color,2021.2.3,Win32,60.00960154,,,,,,,,2,Ontime,long,f,0,2.0109,3,1,13,0,1,,,,,
0.84,,,,,,,,,d,orange,5bb97d1df1f9ba000141566b,2021-09-28_14h01.54.339,forced_choiceRT_color,2021.2.3,Win32,60.00960154,,,,,,,,2,Ontime,long,f,0,1.9079,3,2,14,0,1,,,,,
1.03,,,,,,,,,f,blue,5bb97d1df1f9ba000141566b,2021-09-28_14h01.54.339,forced_choiceRT_color,2021.2.3,Win32,60.00960154,,,,,,,,2,Ontime,long,d,0,2.012,3,3,15,1,1,,,,,
1.85,,,,,,,,,k,purple,5bb97d1df1f9ba000141566b,2021-09-28_14h01.54.339,forced_choiceRT_color,2021.2.3,Win32,60.00960154,,,,,,,,2,Slow,long,d,0,2.2771,4,0,16,3,1,,,,,
0.77,,,,,,,,,j,red,5bb97d1df1f9ba000141566b,2021-09-28_14h01.54.339,forced_choiceRT_color,2021.2.3,Win32,60.00960154,,,,,,,,2,Ontime,long,j,1,1.9495,4,1,17,2,1,,,,,
1.21,,,,,,,,,d,orange,5bb97d1df1f9ba000141566b,2021-09-28_14h01.54.339,forced_choiceRT_color,2021.2.3,Win32,60.00960154,,,,,,,,2,Ontime,long,k,0,2.0887,4,2,18,0,1,,,,,
1.4,,,,,,,,,j,red,5bb97d1df1f9ba000141566b,2021-09-28_14h01.54.339,forced_choiceRT_color,2021.2.3,Win32,60.00960154,,,,,,,,2,Ontime,long,j,1,2.051,4,3,19,2,1,,,,,
1.47,,,,,,,,,j,red,5bb97d1df1f9ba000141566b,2021-09-28_14h01.54.339,forced_choiceRT_color,2021.2.3,Win32,60.00960154,,,,,,,,2,Ontime,long,j,1,2.0927,5,0,20,2,1,,,,,
0.79,,,,,,,,,k,purple,5bb97d1df1f9ba000141566b,2021-09-28_14h01.54.339,forced_choiceRT_color,2021.2.3,Win32,60.00960154,,,,,,,,2,Ontime,long,k,1,1.9625,5,1,21,3,1,,,,,
1.76,,,,,,,,,f,blue,5bb97d1df1f9ba000141566b,2021-09-28_14h01.54.339,forced_choiceRT_color,2021.2.3,Win32,60.00960154,,,,,,,,2,Ontime,long,d,0,2.0833,5,2,22,1,1,,,,,
0.41,,,,,,,,,f,blue,5bb97d1df1f9ba000141566b,2021-09-28_14h01.54.339,forced_choiceRT_color,2021.2.3,Win32,60.00960154,,,,,,,,2,Ontime,long,d,0,2.0344,5,3,23,1,1,,,,,
0.19,,,,,,,,,d,orange,5bb97d1df1f9ba000141566b,2021-09-28_14h01.54.339,forced_choiceRT_color,2021.2.3,Win32,60.00960154,,,,,,,,2,Ontime,long,f,0,1.9397,6,0,24,0,1,,,,,
1.91,,,,,,,,,d,orange,5bb97d1df1f9ba000141566b,2021-09-28_14h01.54.339,forced_choiceRT_color,2021.2.3,Win32,60.00960154,,,,,,,,2,Slow,long,j,0,2.1772,6,1,25,0,1,,,,,
0.56,,,,,,,,,k,purple,5bb97d1df1f9ba000141566b,2021-09-28_14h01.54.339,forced_choiceRT_color,2021.2.3,Win32,60.00960154,,,,,,,,2,Ontime,long,k,1,2.0404,6,2,26,3,1,,,,,
0.98,,,,,,,,,k,purple,5bb97d1df1f9ba000141566b,2021-09-28_14h01.54.339,forced_choiceRT_color,2021.2.3,Win32,60.00960154,,,,,,,,2,Ontime,long,k,1,2.0189,6,3,27,3,1,,,,,
0.76,,,,,,,,,k,purple,5bb97d1df1f9ba000141566b,2021-09-28_14h01.54.339,forced_choiceRT_color,2021.2.3,Win32,60.00960154,,,,,,,,2,Ontime,long,k,1,1.989,7,0,28,3,1,,,,,
0.67,,,,,,,,,k,purple,5bb97d1df1f9ba000141566b,2021-09-28_14h01.54.339,forced_choiceRT_color,2021.2.3,Win32,60.00960154,,,,,,,,2,Ontime,long,k,1,2.0223,7,1,29,3,1,,,,,
1.66,,,,,,,,,f,blue,5bb97d1df1f9ba000141566b,2021-09-28_14h01.54.339,forced_choiceRT_color,2021.2.3,Win32,60.00960154,,,,,,,,2,Slow,long,d,0,2.2345,7,2,30,1,1,,,,,
0.71,,,,,,,,,j,red,5bb97d1df1f9ba000141566b,2021-09-28_14h01.54.339,forced_choiceRT_color,2021.2.3,Win32,60.00960154,,,,,,,,2,Ontime,long,f,0,2.0033,7,3,31,2,1,,,,,
0.66,,,,,,,,,f,blue,5bb97d1df1f9ba000141566b,2021-09-28_14h01.54.339,forced_choiceRT_color,2021.2.3,Win32,60.00960154,,,,,,,,2,Ontime,long,d,0,1.9804,8,0,32,1,1,,,,,
1.27,,,,,,,,,f,blue,5bb97d1df1f9ba000141566b,2021-09-28_14h01.54.339,forced_choiceRT_color,2021.2.3,Win32,60.00960154,,,,,,,,2,Ontime,long,d,0,2.0277,8,1,33,1,1,,,,,
0.67,,,,,,,,,k,purple,5bb97d1df1f9ba000141566b,2021-09-28_14h01.54.339,forced_choiceRT_color,2021.2.3,Win32,60.00960154,,,,,,,,2,Ontime,long,k,1,1.942,8,2,34,3,1,,,,,
0.21,,,,,,,,,k,purple,5bb97d1df1f9ba000141566b,2021-09-28_14h01.54.339,forced_choiceRT_color,2021.2.3,Win32,60.00960154,,,,,,,,2,Ontime,long,k,1,1.937,8,3,35,3,1,,,,,
1.83,,,,,,,,,d,orange,5bb97d1df1f9ba000141566b,2021-09-28_14h01.54.339,forced_choiceRT_color,2021.2.3,Win32,60.00960154,,,,,,,,2,Slow,long,d,1,2.2041,9,0,36,0,1,,,,,
1.39,,,,,,,,,j,red,5bb97d1df1f9ba000141566b,2021-09-28_14h01.54.339,forced_choiceRT_color,2021.2.3,Win32,60.00960154,,,,,,,,2,Ontime,long,d,0,2.0402,9,1,37,2,1,,,,,
1.99,,,,,,,,,f,blue,5bb97d1df1f9ba000141566b,2021-09-28_14h01.54.339,forced_choiceRT_color,2021.2.3,Win32,60.00960154,,,,,,,,2,Slow,long,j,0,2.106,9,2,38,1,1,,,,,
0.68,,,,,,,,,d,orange,5bb97d1df1f9ba000141566b,2021-09-28_14h01.54.339,forced_choiceRT_color,2021.2.3,Win32,60.00960154,,,,,,,,2,Ontime,long,f,0,1.9881,9,3,39,0,1,,,,,
,,,,,,,,,,,5bb97d1df1f9ba000141566b,2021-09-28_14h01.54.339,forced_choiceRT_color,2021.2.3,Win32,60.00960154,,,,,,,,,,,,,,,,,,,1,0,1,0,1
1.88,,,,,,,,,k,purple,5bb97d1df1f9ba000141566b,2021-09-28_14h01.54.339,forced_choiceRT_color,2021.2.3,Win32,60.00960154,,,,,,,,3,Slow,long,f,0,2.2526,0,0,0,3,1,,,,,
0.33,,,,,,,,,k,purple,5bb97d1df1f9ba000141566b,2021-09-28_14h01.54.339,forced_choiceRT_color,2021.2.3,Win32,60.00960154,,,,,,,,3,Ontime,long,j,0,2.064,0,1,1,3,1,,,,,
0.51,,,,,,,,,f,blue,5bb97d1df1f9ba000141566b,2021-09-28_14h01.54.339,forced_choiceRT_color,2021.2.3,Win32,60.00960154,,,,,,,,3,Ontime,long,f,1,2.0381,0,2,2,1,1,,,,,
0.5,,,,,,,,,j,red,5bb97d1df1f9ba000141566b,2021-09-28_14h01.54.339,forced_choiceRT_color,2021.2.3,Win32,60.00960154,,,,,,,,3,Ontime,long,j,1,2.0807,0,3,3,2,1,,,,,
0.56,,,,,,,,,f,blue,5bb97d1df1f9ba000141566b,2021-09-28_14h01.54.339,forced_choiceRT_color,2021.2.3,Win32,60.00960154,,,,,,,,3,Ontime,long,d,0,2.0074,1,0,4,1,1,,,,,
1.41,,,,,,,,,j,red,5bb97d1df1f9ba000141566b,2021-09-28_14h01.54.339,forced_choiceRT_color,2021.2.3,Win32,60.00960154,,,,,,,,3,Ontime,long,j,1,2.0555,1,1,5,2,1,,,,,
0.4,,,,,,,,,d,orange,5bb97d1df1f9ba000141566b,2021-09-28_14h01.54.339,forced_choiceRT_color,2021.2.3,Win32,60.00960154,,,,,,,,3,Ontime,long,f,0,2.0735,1,2,6,0,1,,,,,
1.38,,,,,,,,,k,purple,5bb97d1df1f9ba000141566b,2021-09-28_14h01.54.339,forced_choiceRT_color,2021.2.3,Win32,60.00960154,,,,,,,,3,Ontime,long,j,0,1.9281,1,3,7,3,1,,,,,
1.45,,,,,,,,,f,blue,5bb97d1df1f9ba000141566b,2021-09-28_14h01.54.339,forced_choiceRT_color,2021.2.3,Win32,60.00960154,,,,,,,,3,Ontime,long,d,0,1.9612,2,0,8,1,1,,,,,
0.52,,,,,,,,,d,orange,5bb97d1df1f9ba000141566b,2021-09-28_14h01.54.339,forced_choiceRT_color,2021.2.3,Win32,60.00960154,,,,,,,,3,Ontime,long,f,0,2.0038,2,1,9,0,1,,,,,
1.71,,,,,,,,,d,orange,5bb97d1df1f9ba000141566b,2021-09-28_14h01.54.339,forced_choiceRT_color,2021.2.3,Win32,60.00960154,,,,,,,,3,Slow,long,d,1,2.2027,2,2,10,0,1,,,,,
1.51,,,,,,,,,d,orange,5bb97d1df1f9ba000141566b,2021-09-28_14h01.54.339,forced_choiceRT_color,2021.2.3,Win32,60.00960154,,,,,,,,3,Ontime,long,f,0,1.9411,2,3,11,0,1,,,,,
0.42,,,,,,,,,f,blue,5bb97d1df1f9ba000141566b,2021-09-28_14h01.54.339,forced_choiceRT_color,2021.2.3,Win32,60.00960154,,,,,,,,3,Ontime,long,d,0,1.9743,3,0,12,1,1,,,,,
1.34,,,,,,,,,k,purple,5bb97d1df1f9ba000141566b,2021-09-28_14h01.54.339,forced_choiceRT_color,2021.2.3,Win32,60.00960154,,,,,,,,3,Ontime,long,j,0,1.9373,3,1,13,3,1,,,,,
1.87,,,,,,,,,d,orange,5bb97d1df1f9ba000141566b,2021-09-28_14h01.54.339,forced_choiceRT_color,2021.2.3,Win32,60.00960154,,,,,,,,3,Slow,long,j,0,2.2059,3,2,14,0,1,,,,,
0.31,,,,,,,,,j,red,5bb97d1df1f9ba000141566b,2021-09-28_14h01.54.339,forced_choiceRT_color,2021.2.3,Win32,60.00960154,,,,,,,,3,Ontime,long,j,1,1.9785,3,3,15,2,1,,,,,
1.75,,,,,,,,,j,red,5bb97d1df1f9ba000141566b,2021-09-28_14h01.54.339,forced_choiceRT_color,2021.2.3,Win32,60.00960154,,,,,,,,3,Ontime,long,k,0,2.0892,4,0,16,2,1,,,,,
0.31,,,,,,,,,k,purple,5bb97d1df1f9ba000141566b,2021-09-28_14h01.54.339,forced_choiceRT_color,2021.2.3,Win32,60.00960154,,,,,,,,3,Ontime,long,k,1,2.0656,4,1,17,3,1,,,,,
1.77,,,,,,,,,k,purple,5bb97d1df1f9ba000141566b,2021-09-28_14h01.54.339,forced_choiceRT_color,2021.2.3,Win32,60.00960154,,,,,,,,3,Ontime,long,d,0,2.0571,4,2,18,3,1,,,,,
0.42,,,,,,,,,f,blue,5bb97d1df1f9ba000141566b,2021-09-28_14h01.54.339,forced_choiceRT_color,2021.2.3,Win32,60.00960154,,,,,,,,3,Ontime,long,d,0,2.012,4,3,19,1,1,,,,,
1.74,,,,,,,,,f,blue,5bb97d1df1f9ba000141566b,2021-09-28_14h01.54.339,forced_choiceRT_color,2021.2.3,Win32,60.00960154,,,,,,,,3,Slow,long,d,0,2.1779,5,0,20,1,1,,,,,
0.86,,,,,,,,,j,red,5bb97d1df1f9ba000141566b,2021-09-28_14h01.54.339,forced_choiceRT_color,2021.2.3,Win32,60.00960154,,,,,,,,3,Fast,long,j,1,1.8915,5,1,21,2,1,,,,,
1.31,,,,,,,,,j,red,5bb97d1df1f9ba000141566b,2021-09-28_14h01.54.339,forced_choiceRT_color,2021.2.3,Win32,60.00960154,,,,,,,,3,Fast,long,j,1,1.8343,5,2,22,2,1,,,,,
1.35,,,,,,,,,f,blue,5bb97d1df1f9ba000141566b,2021-09-28_14h01.54.339,forced_choiceRT_color,2021.2.3,Win32,60.00960154,,,,,,,,3,Ontime,long,d,0,2.0246,5,3,23,1,1,,,,,
0.14,,,,,,,,,d,orange,5bb97d1df1f9ba000141566b,2021-09-28_14h01.54.339,forced_choiceRT_color,2021.2.3,Win32,60.00960154,,,,,,,,3,Ontime,long,f,0,2.0233,6,0,24,0,1,,,,,
1.22,,,,,,,,,j,red,5bb97d1df1f9ba000141566b,2021-09-28_14h01.54.339,forced_choiceRT_color,2021.2.3,Win32,60.00960154,,,,,,,,3,Ontime,long,j,1,2.04,6,1,25,2,1,,,,,
1.87,,,,,,,,,j,red,5bb97d1df1f9ba000141566b,2021-09-28_14h01.54.339,forced_choiceRT_color,2021.2.3,Win32,60.00960154,,,,,,,,3,Slow,long,k,0,2.2724,6,2,26,2,1,,,,,
0.14,,,,,,,,,f,blue,5bb97d1df1f9ba000141566b,2021-09-28_14h01.54.339,forced_choiceRT_color,2021.2.3,Win32,60.00960154,,,,,,,,3,Fast,long,d,0,1.8313,6,3,27,1,1,,,,,
0.12,,,,,,,,,k,purple,5bb97d1df1f9ba000141566b,2021-09-28_14h01.54.339,forced_choiceRT_color,2021.2.3,Win32,60.00960154,,,,,,,,3,Ontime,long,k,1,2.0247,7,0,28,3,1,,,,,
0.2,,,,,,,,,f,blue,5bb97d1df1f9ba000141566b,2021-09-28_14h01.54.339,forced_choiceRT_color,2021.2.3,Win32,60.00960154,,,,,,,,3,Ontime,long,d,0,2.0301,7,1,29,1,1,,,,,
1.46,,,,,,,,,k,purple,5bb97d1df1f9ba000141566b,2021-09-28_14h01.54.339,forced_choiceRT_color,2021.2.3,Win32,60.00960154,,,,,,,,3,Slow,long,j,0,2.1354,7,2,30,3,1,,,,,
1.33,,,,,,,,,f,blue,5bb97d1df1f9ba000141566b,2021-09-28_14h01.54.339,forced_choiceRT_color,2021.2.3,Win32,60.00960154,,,,,,,,3,Ontime,long,d,0,2.0899,7,3,31,1,1,,,,,
1.06,,,,,,,,,d,orange,5bb97d1df1f9ba000141566b,2021-09-28_14h01.54.339,forced_choiceRT_color,2021.2.3,Win32,60.00960154,,,,,,,,3,Fast,long,f,0,1.828,8,0,32,0,1,,,,,
0.7,,,,,,,,,k,purple,5bb97d1df1f9ba000141566b,2021-09-28_14h01.54.339,forced_choiceRT_color,2021.2.3,Win32,60.00960154,,,,,,,,3,Ontime,long,k,1,2.07,8,1,33,3,1,,,,,
0.97,,,,,,,,,j,red,5bb97d1df1f9ba000141566b,2021-09-28_14h01.54.339,forced_choiceRT_color,2021.2.3,Win32,60.00960154,,,,,,,,3,Ontime,long,f,0,2.0795,8,2,34,2,1,,,,,
1.89,,,,,,,,,k,purple,5bb97d1df1f9ba000141566b,2021-09-28_14h01.54.339,forced_choiceRT_color,2021.2.3,Win32,60.00960154,,,,,,,,3,Slow,long,d,0,2.3598,8,3,35,3,1,,,,,
0.71,,,,,,,,,d,orange,5bb97d1df1f9ba000141566b,2021-09-28_14h01.54.339,forced_choiceRT_color,2021.2.3,Win32,60.00960154,,,,,,,,3,Ontime,long,f,0,1.9595,9,0,36,0,1,,,,,
0.58,,,,,,,,,d,orange,5bb97d1df1f9ba000141566b,2021-09-28_14h01.54.339,forced_choiceRT_color,2021.2.3,Win32,60.00960154,,,,,,,,3,Ontime,long,f,0,2.0113,9,1,37,0,1,,,,,
0.85,,,,,,,,,j,red,5bb97d1df1f9ba000141566b,2021-09-28_14h01.54.339,forced_choiceRT_color,2021.2.3,Win32,60.00960154,,,,,,,,3,Slow,long,j,1,2.1001,9,2,38,2,1,,,,,
1.49,,,,,,,,,d,orange,5bb97d1df1f9ba000141566b,2021-09-28_14h01.54.339,forced_choiceRT_color,2021.2.3,Win32,60.00960154,,,,,,,,3,Ontime,long,f,0,1.9969,9,3,39,0,1,,,,,
,,,,,,,,,,,5bb97d1df1f9ba000141566b,2021-09-28_14h01.54.339,forced_choiceRT_color,2021.2.3,Win32,60.00960154,,,,,,,,,,,,,,,,,,,2,0,2,0,1
0,,,,,,,,,j,red,5bb97d1df1f9ba000141566b,2021-09-28_14h01.54.339,forced_choiceRT_color,2021.2.3,Win32,60.00960154,,,,,,,,4,Ontime,long,d,0,2.0055,0,0,0,2,1,,,,,
1.59,,,,,,,,,f,blue,5bb97d1df1f9ba000141566b,2021-09-28_14h01.54.339,forced_choiceRT_color,2021.2.3,Win32,60.00960154,,,,,,,,4,Slow,long,d,0,2.1035,0,1,1,1,1,,,,,
1.66,,,,,,,,,f,blue,5bb97d1df1f9ba000141566b,2021-09-28_14h01.54.339,forced_choiceRT_color,2021.2.3,Win32,60.00960154,,,,,,,,4,Ontime,long,d,0,1.9957,0,2,2,1,1,,,,,
1.34,,,,,,,,,j,red,5bb97d1df1f9ba000141566b,2021-09-28_14h01.54.339,forced_choiceRT_color,2021.2.3,Win32,60.00960154,,,,,,,,4,Ontime,long,d,0,1.9074,0,3,3,2,1,,,,,
0.24,,,,,,,,,f,blue,5bb97d1df1f9ba000141566b,2021-09-28_14h01.54.339,forced_choiceRT_color,2021.2.3,Win32,60.00960154,,,,,,,,4,Ontime,long,d,0,2.037,1,0,4,1,1,,,,,
0.2,,,,,,,,,k,purple,5bb97d1df1f9ba000141566b,2021-09-28_14h01.54.339,forced_choiceRT_color,2021.2.3,Win32,60.00960154,,,,,,,,4,Ontime,long,k,1,2.0268,1,1,5,3,1,,,,,
1.78,,,,,,,,,k,purple,5bb97d1df1f9ba000141566b,2021-09-28_14h01.54.339,forced_choiceRT_color,2021.2.3,Win32,60.00960154,,,,,,,,4,Slow,long,j,0,2.1895,1,2,6,3,1,,,,,
1.42,,,,,,,,,f,blue,5bb97d1df1f9ba000141566b,2021-09-28_14h01.54.339,forced_choiceRT_color,2021.2.3,Win32,60.00960154,,,,,,,,4,Ontime,long,d,0,1.937,1,3,7,1,1,,,,,
0.31,,,,,,,,,k,purple,5bb97d1df1f9ba000141566b,2021-09-28_14h01.54.339,forced_choiceRT_color,2021.2.3,Win32,60.00960154,,,,,,,,4,Fast,long,k,1,1.7913,2,0,8,3,1,,,,,
0.91,,,,,,,,,k,purple,5bb97d1df1f9ba000141566b,2021-09-28_14h01.54.339,forced_choiceRT_color,2021.2.3,Win32,60.00960154,,,,,,,,4,Ontime,long,k,1,1.9524,2,1,9,3,1,,,,,
0.88,,,,,,,,,d,orange,5bb97d1df1f9ba000141566b,2021-09-28_14h01.54.339,forced_choiceRT_color,2021.2.3,Win32,60.00960154,,,,,,,,4,Slow,long,f,0,2.1177,2,2,10,0,1,,,,,
1.42,,,,,,,,,d,orange,5bb97d1df1f9ba000141566b,2021-09-28_14h01.54.339,forced_choiceRT_color,2021.2.3,Win32,60.00960154,,,,,,,,4,Ontime,long,f,0,1.9351,2,3,11,0,1,,,,,
1.78,,,,,,,,,j,red,5bb97d1df1f9ba000141566b,2021-09-28_14h01.54.339,forced_choiceRT_color,2021.2.3,Win32,60.00960154,,,,,,,,4,Slow,long,d,0,2.1847,3,0,12,2,1,,,,,
0.01,,,,,,,,,k,purple,5bb97d1df1f9ba000141566b,2021-09-28_14h01.54.339,forced_choiceRT_color,2021.2.3,Win32,60.00960154,,,,,,,,4,Ontime,long,k,1,2.0058,3,1,13,3,1,,,,,
0.52,,,,,,,,,j,red,5bb97d1df1f9ba000141566b,2021-09-28_14h01.54.339,forced_choiceRT_color,2021.2.3,Win32,60.00960154,,,,,,,,4,Ontime,long,j,1,2.0329,3,2,14,2,1,,,,,
1.33,,,,,,,,,d,orange,5bb97d1df1f9ba000141566b,2021-09-28_14h01.54.339,forced_choiceRT_color,2021.2.3,Win32,60.00960154,,,,,,,,4,Ontime,long,f,0,2.0749,3,3,15,0,1,,,,,
0.66,,,,,,,,,d,orange,5bb97d1df1f9ba000141566b,2021-09-28_14h01.54.339,forced_choiceRT_color,2021.2.3,Win32,60.00960154,,,,,,,,4,Ontime,long,f,0,2.0401,4,0,16,0,1,,,,,
0.92,,,,,,,,,f,blue,5bb97d1df1f9ba000141566b,2021-09-28_14h01.54.339,forced_choiceRT_color,2021.2.3,Win32,60.00960154,,,,,,,,4,Ontime,long,d,0,1.9726,4,1,17,1,1,,,,,
1.62,,,,,,,,,j,red,5bb97d1df1f9ba000141566b,2021-09-28_14h01.54.339,forced_choiceRT_color,2021.2.3,Win32,60.00960154,,,,,,,,4,Slow,long,j,1,2.1889,4,2,18,2,1,,,,,
1.31,,,,,,,,,k,purple,5bb97d1df1f9ba000141566b,2021-09-28_14h01.54.339,forced_choiceRT_color,2021.2.3,Win32,60.00960154,,,,,,,,4,Ontime,long,k,1,2.0429,4,3,19,3,1,,,,,
1.23,,,,,,,,,f,blue,5bb97d1df1f9ba000141566b,2021-09-28_14h01.54.339,forced_choiceRT_color,2021.2.3,Win32,60.00960154,,,,,,,,4,Ontime,long,d,0,1.965,5,0,20,1,1,,,,,
1.36,,,,,,,,,j,red,5bb97d1df1f9ba000141566b,2021-09-28_14h01.54.339,forced_choiceRT_color,2021.2.3,Win32,60.00960154,,,,,,,,4,Ontime,long,k,0,2.0046,5,1,21,2,1,,,,,
1.45,,,,,,,,,f,blue,5bb97d1df1f9ba000141566b,2021-09-28_14h01.54.339,forced_choiceRT_color,2021.2.3,Win32,60.00960154,,,,,,,,4,Ontime,long,d,0,2.0261,5,2,22,1,1,,,,,
0.13,,,,,,,,,d,orange,5bb97d1df1f9ba000141566b,2021-09-28_14h01.54.339,forced_choiceRT_color,2021.2.3,Win32,60.00960154,,,,,,,,4,Ontime,long,f,0,2.0562,5,3,23,0,1,,,,,
0.04,,,,,,,,,j,red,5bb97d1df1f9ba000141566b,2021-09-28_14h01.54.339,forced_choiceRT_color,2021.2.3,Win32,60.00960154,,,,,,,,4,Ontime,long,j,1,2.0872,6,0,24,2,1,,,,,
0.96,,,,,,,,,f,blue,5bb97d1df1f9ba000141566b,2021-09-28_14h01.54.339,forced_choiceRT_color,2021.2.3,Win32,60.00960154,,,,,,,,4,Ontime,long,f,1,2.0628,6,1,25,1,1,,,,,
0.51,,,,,,,,,k,purple,5bb97d1df1f9ba000141566b,2021-09-28_14h01.54.339,forced_choiceRT_color,2021.2.3,Win32,60.00960154,,,,,,,,4,Ontime,long,k,1,1.9932,6,2,26,3,1,,,,,
1.12,,,,,,,,,j,red,5bb97d1df1f9ba000141566b,2021-09-28_14h01.54.339,forced_choiceRT_color,2021.2.3,Win32,60.00960154,,,,,,,,4,Ontime,long,f,0,2.0538,6,3,27,2,1,,,,,
1.97,,,,,,,,,k,purple,5bb97d1df1f9ba000141566b,2021-09-28_14h01.54.339,forced_choiceRT_color,2021.2.3,Win32,60.00960154,,,,,,,,4,Slow,long,d,0,2.1474,7,0,28,3,1,,,,,
1.16,,,,,,,,,k,purple,5bb97d1df1f9ba000141566b,2021-09-28_14h01.54.339,forced_choiceRT_color,2021.2.3,Win32,60.00960154,,,,,,,,4,Fast,long,k,1,1.821,7,1,29,3,1,,,,,
1.59,,,,,,,,,f,blue,5bb97d1df1f9ba000141566b,2021-09-28_14h01.54.339,forced_choiceRT_color,2021.2.3,Win32,60.00960154,,,,,,,,4,Ontime,long,f,1,2.0556,7,2,30,1,1,,,,,
0.68,,,,,,,,,d,orange,5bb97d1df1f9ba000141566b,2021-09-28_14h01.54.339,forced_choiceRT_color,2021.2.3,Win32,60.00960154,,,,,,,,4,Ontime,long,f,0,1.9588,7,3,31,0,1,,,,,
0.76,,,,,,,,,f,blue,5bb97d1df1f9ba000141566b,2021-09-28_14h01.54.339,forced_choiceRT_color,2021.2.3,Win32,60.00960154,,,,,,,,4,Ontime,long,f,1,2.007,8,0,32,1,1,,,,,
0.6,,,,,,,,,j,red,5bb97d1df1f9ba000141566b,2021-09-28_14h01.54.339,forced_choiceRT_color,2021.2.3,Win32,60.00960154,,,,,,,,4,Ontime,long,j,1,2.0599,8,1,33,2,1,,,,,
0.52,,,,,,,,,j,red,5bb97d1df1f9ba000141566b,2021-09-28_14h01.54.339,forced_choiceRT_color,2021.2.3,Win32,60.00960154,,,,,,,,4,Ontime,long,j,1,2.0086,8,2,34,2,1,,,,,
1.44,,,,,,,,,d,orange,5bb97d1df1f9ba000141566b,2021-09-28_14h01.54.339,forced_choiceRT_color,2021.2.3,Win32,60.00960154,,,,,,,,4,Ontime,long,f,0,1.9529,8,3,35,0,1,,,,,
0.95,,,,,,,,,d,orange,5bb97d1df1f9ba000141566b,2021-09-28_14h01.54.339,forced_choiceRT_color,2021.2.3,Win32,60.00960154,,,,,,,,4,Ontime,long,f,0,2.0156,9,0,36,0,1,,,,,
0.94,,,,,,,,,d,orange,5bb97d1df1f9ba000141566b,2021-09-28_14h01.54.339,forced_choiceRT_color,2021.2.3,Win32,60.00960154,,,,,,,,4,Ontime,long,f,0,1.9829,9,1,37,0,1,,,,,
1.47,,,,,,,,,d,orange,5bb97d1df1f9ba000141566b,2021-09-28_14h01.54.339,forced_choiceRT_color,2021.2.3,Win32,60.00960154,,,,,,,,4,Ontime,long,f,0,2.0582,9,2,38,0,1,,,,,
1.86,,,,,,,,,k,purple,5bb97d1df1f9ba000141566b,2021-09-28_14h01.54.339,forced_choiceRT_color,2021.2.3,Win32,60.00960154,,,,,,,,4,Slow,long,j,0,2.3881,9,3,39,3,1,,,,,
,,,,,,,,,,,5bb97d1df1f9ba000141566b,2021-09-28_14h01.54.339,forced_choiceRT_color,2021.2.3,Win32,60.00960154,,,,,,,,,,,,,,,,,,,3,0,3,0,1
1.52,,,,,,,,,d,orange,5bb97d1df1f9ba000141566b,2021-09-28_14h01.54.339,forced_choiceRT_color,2021.2.3,Win32,60.00960154,,,,,,,,5,Ontime,long,f,0,2.0306,0,0,0,0,1,,,,,
1.02,,,,,,,,,j,red,5bb97d1df1f9ba000141566b,2021-09-28_14h01.54.339,forced_choiceRT_color,2021.2.3,Win32,60.00960154,,,,,,,,5,Ontime,long,j,1,2.0513,0,1,1,2,1,,,,,
0.32,,,,,,,,,f,blue,5bb97d1df1f9ba000141566b,2021-09-28_14h01.54.339,forced_choiceRT_color,2021.2.3,Win32,60.00960154,,,,,,,,5,Ontime,long,d,0,2.0677,0,2,2,1,1,,,,,
0.61,,,,,,,,,k,purple,5bb97d1df1f9ba000141566b,2021-09-28_14h01.54.339,forced_choiceRT_color,2021.2.3,Win32,60.00960154,,,,,,,,5,Ontime,long,k,1,2.0122,0,3,3,3,1,,,,,
0.31,,,,,,,,,d,orange,5bb97d1df1f9ba000141566b,2021-09-28_14h01.54.339,forced_choiceRT_color,2021.2.3,Win32,60.00960154,,,,,,,,5,Ontime,long,f,0,2.0403,1,0,4,0,1,,,,,
0.39,,,,,,,,,f,blue,5bb97d1df1f9ba000141566b,2021-09-28_14h01.54.339,forced_choiceRT_color,2021.2.3,Win32,60.00960154,,,,,,,,5,Ontime,long,d,0,2.0605,1,1,5,1,1,,,,,
1.11,,,,,,,,,f,blue,5bb97d1df1f9ba000141566b,2021-09-28_14h01.54.339,forced_choiceRT_color,2021.2.3,Win32,60.00960154,,,,,,,,5,Ontime,long,d,0,2.058,1,2,6,1,1,,,,,
1.79,,,,,,,,,k,purple,5bb97d1df1f9ba000141566b,2021-09-28_14h01.54.339,forced_choiceRT_color,2021.2.3,Win32,60.00960154,,,,,,,,5,Slow,long,f,0,2.1561,1,3,7,3,1,,,,,
0.86,,,,,,,,,f,blue,5bb97d1df1f9ba000141566b,2021-09-28_14h01.54.339,forced_choiceRT_color,2021.2.3,Win32,60.00960154,,,,,,,,5,Ontime,long,d,0,1.9825,2,0,8,1,1,,,,,
1.01,,,,,,,,,d,orange,5bb97d1df1f9ba000141566b,2021-09-28_14h01.54.339,forced_choiceRT_color,2021.2.3,Win32,60.00960154,,,,,,,,5,Ontime,long,f,0,2.032,2,1,9,0,1,,,,,
1.9,,,,,,,,,j,red,5bb97d1df1f9ba000141566b,2021-09-28_14h01.54.339,forced_choiceRT_color,2021.2.3,Win32,60.00960154,,,,,,,,5,Slow,long,j,1,2.3024,2,2,10,2,1,,,,,
0.59,,,,,,,,,j,red,5bb97d1df1f9ba000141566b,2021-09-28_14h01.54.339,forced_choiceRT_color,2021.2.3,Win32,60.00960154,,,,,,,,5,Ontime,long,j,1,1.9713,2,3,11,2,1,,,,,
0.38,,,,,,,,,f,blue,5bb97d1df1f9ba000141566b,2021-09-28_14h01.54.339,forced_choiceRT_color,2021.2.3,Win32,60.00960154,,,,,,,,5,Ontime,long,d,0,2.0214,3,0,12,1,1,,,,,
1.71,,,,,,,,,d,orange,5bb97d1df1f9ba000141566b,2021-09-28_14h01.54.339,forced_choiceRT_color,2021.2.3,Win32,60.00960154,,,,,,,,5,Slow,long,f,0,2.1586,3,1,13,0,1,,,,,
1.89,,,,,,,,,j,red,5bb97d1df1f9ba000141566b,2021-09-28_14h01.54.339,forced_choiceRT_color,2021.2.3,Win32,60.00960154,,,,,,,,5,Ontime,long,d,0,2.0987,3,2,14,2,1,,,,,
0.45,,,,,,,,,k,purple,5bb97d1df1f9ba000141566b,2021-09-28_14h01.54.339,forced_choiceRT_color,2021.2.3,Win32,60.00960154,,,,,,,,5,Fast,long,j,0,1.8718,3,3,15,3,1,,,,,
1.7,,,,,,,,,f,blue,5bb97d1df1f9ba000141566b,2021-09-28_14h01.54.339,forced_choiceRT_color,2021.2.3,Win32,60.00960154,,,,,,,,5,Slow,long,f,1,2.152,4,0,16,1,1,,,,,
1.53,,,,,,,,,f,blue,5bb97d1df1f9ba000141566b,2021-09-28_14h01.54.339,forced_choiceRT_color,2021.2.3,Win32,60.00960154,,,,,,,,5,Ontime,long,d,0,1.9381,4,1,17,1,1,,,,,
0.1,,,,,,,,,j,red,5bb97d1df1f9ba000141566b,2021-09-28_14h01.54.339,forced_choiceRT_color,2021.2.3,Win32,60.00960154,,,,,,,,5,Ontime,long,j,1,2.0224,4,2,18,2,1,,,,,
1.16,,,,,,,,,k,purple,5bb97d1df1f9ba000141566b,2021-09-28_14h01.54.339,forced_choiceRT_color,2021.2.3,Win32,60.00960154,,,,,,,,5,Fast,long,k,1,1.8919,4,3,19,3,1,,,,,
0.05,,,,,,,,,d,orange,5bb97d1df1f9ba000141566b,2021-09-28_14h01.54.339,forced_choiceRT_color,2021.2.3,Win32,60.00960154,,,,,,,,5,Ontime,long,f,0,2.0901,5,0,20,0,1,,,,,
0.4,,,,,,,,,j,red,5bb97d1df1f9ba000141566b,2021-09-28_14h01.54.339,forced_choiceRT_color,2021.2.3,Win32,60.00960154,,,,,,,,5,Ontime,long,j,1,2.0197,5,1,21,2,1,,,,,
0.64,,,,,,,,,k,purple,5bb97d1df1f9ba000141566b,2021-09-28_14h01.54.339,forced_choiceRT_color,2021.2.3,Win32,60.00960154,,,,,,,,5,Ontime,long,k,1,1.9866,5,2,22,3,1,,,,,
0.6,,,,,,,,,j,red,5bb97d1df1f9ba000141566b,2021-09-28_14h01.54.339,forced_choiceRT_color,2021.2.3,Win32,60.00960154,,,,,,,,5,Slow,long,k,0,2.2394,5,3,23,2,1,,,,,
0.51,,,,,,,,,f,blue,5bb97d1df1f9ba000141566b,2021-09-28_14h01.54.339,forced_choiceRT_color,2021.2.3,Win32,60.00960154,,,,,,,,5,Ontime,long,d,0,2.0672,6,0,24,1,1,,,,,
0.88,,,,,,,,,j,red,5bb97d1df1f9ba000141566b,2021-09-28_14h01.54.339,forced_choiceRT_color,2021.2.3,Win32,60.00960154,,,,,,,,5,Ontime,long,k,0,2.055,6,1,25,2,1,,,,,
0.15,,,,,,,,,k,purple,5bb97d1df1f9ba000141566b,2021-09-28_14h01.54.339,forced_choiceRT_color,2021.2.3,Win32,60.00960154,,,,,,,,5,Ontime,long,k,1,2.0352,6,2,26,3,1,,,,,
1.47,,,,,,,,,j,red,5bb97d1df1f9ba000141566b,2021-09-28_14h01.54.339,forced_choiceRT_color,2021.2.3,Win32,60.00960154,,,,,,,,5,Slow,long,j,1,2.2231,6,3,27,2,1,,,,,
0.96,,,,,,,,,k,purple,5bb97d1df1f9ba000141566b,2021-09-28_14h01.54.339,forced_choiceRT_color,2021.2.3,Win32,60.00960154,,,,,,,,5,Ontime,long,k,1,2.0012,7,0,28,3,1,,,,,
0.52,,,,,,,,,d,orange,5bb97d1df1f9ba000141566b,2021-09-28_14h01.54.339,forced_choiceRT_color,2021.2.3,Win32,60.00960154,,,,,,,,5,Ontime,long,f,0,2.0217,7,1,29,0,1,,,,,
1.36,,,,,,,,,j,red,5bb97d1df1f9ba000141566b,2021-09-28_14h01.54.339,forced_choiceRT_color,2021.2.3,Win32,60.00960154,,,,,,,,5,Slow,long,j,1,2.1077,7,2,30,2,1,,,,,
0.07,,,,,,,,,d,orange,5bb97d1df1f9ba000141566b,2021-09-28_14h01.54.339,forced_choiceRT_color,2021.2.3,Win32,60.00960154,,,,,,,,5,Ontime,long,f,0,2.0054,7,3,31,0,1,,,,,
1.41,,,,,,,,,d,orange,5bb97d1df1f9ba000141566b,2021-09-28_14h01.54.339,forced_choiceRT_color,2021.2.3,Win32,60.00960154,,,,,,,,5,Slow,long,f,0,2.1425,8,0,32,0,1,,,,,
0.76,,,,,,,,,d,orange,5bb97d1df1f9ba000141566b,2021-09-28_14h01.54.339,forced_choiceRT_color,2021.2.3,Win32,60.00960154,,,,,,,,5,Ontime,long,f,0,2.0289,8,1,33,0,1,,,,,
0.37,,,,,,,,,f,blue,5bb97d1df1f9ba000141566b,2021-09-28_14h01.54.339,forced_choiceRT_color,2021.2.3,Win32,60.00960154,,,,,,,,5,Ontime,long,d,0,2.0188,8,2,34,1,1,,,,,
0.96,,,,,,,,,k,purple,5bb97d1df1f9ba000141566b,2021-09-28_14h01.54.339,forced_choiceRT_color,2021.2.3,Win32,60.00960154,,,,,,,,5,Ontime,long,k,1,2.0502,8,3,35,3,1,,,,,
1.53,,,,,,,,,k,purple,5bb97d1df1f9ba000141566b,2021-09-28_14h01.54.339,forced_choiceRT_color,2021.2.3,Win32,60.00960154,,,,,,,,5,Slow,long,j,0,2.1543,9,0,36,3,1,,,,,
0.18,,,,,,,,,k,purple,5bb97d1df1f9ba000141566b,2021-09-28_14h01.54.339,forced_choiceRT_color,2021.2.3,Win32,60.00960154,,,,,,,,5,Ontime,long,k,1,2.014,9,1,37,3,1,,,,,
0.73,,,,,,,,,f,blue,5bb97d1df1f9ba000141566b,2021-09-28_14h01.54.339,forced_choiceRT_color,2021.2.3,Win32,60.00960154,,,,,,,,5,Ontime,long,d,0,2.0052,9,2,38,1,1,,,,,
0.51,,,,,,,,,d,orange,5bb97d1df1f9ba000141566b,2021-09-28_14h01.54.339,forced_choiceRT_color,2021.2.3,Win32,60.00960154,,,,,,,,5,Ontime,long,f,0,1.9868,9,3,39,0,1,,,,,
,,,,,,,,,,,5bb97d1df1f9ba000141566b,2021-09-28_14h01.54.339,forced_choiceRT_color,2021.2.3,Win32,60.00960154,,,,,,,,,,,,,,,,,,,4,0,4,0,1
1.85,,,,,,,,,d,orange,5bb97d1df1f9ba000141566b,2021-09-28_14h01.54.339,forced_choiceRT_color,2021.2.3,Win32,60.00960154,,,,,,,,6,Slow,long,d,1,2.4485,0,0,0,0,1,,,,,
1.67,,,,,,,,,j,red,5bb97d1df1f9ba000141566b,2021-09-28_14h01.54.339,forced_choiceRT_color,2021.2.3,Win32,60.00960154,,,,,,,,6,Slow,long,f,0,2.1057,0,1,1,2,1,,,,,
0.92,,,,,,,,,f,blue,5bb97d1df1f9ba000141566b,2021-09-28_14h01.54.339,forced_choiceRT_color,2021.2.3,Win32,60.00960154,,,,,,,,6,Ontime,long,d,0,1.9406,0,2,2,1,1,,,,,
1.62,,,,,,,,,f,blue,5bb97d1df1f9ba000141566b,2021-09-28_14h01.54.339,forced_choiceRT_color,2021.2.3,Win32,60.00960154,,,,,,,,6,Ontime,long,d,0,2.0708,0,3,3,1,1,,,,,
0.33,,,,,,,,,k,purple,5bb97d1df1f9ba000141566b,2021-09-28_14h01.54.339,forced_choiceRT_color,2021.2.3,Win32,60.00960154,,,,,,,,6,Fast,long,k,1,1.7149,1,0,4,3,1,,,,,
0.3,,,,,,,,,d,orange,5bb97d1df1f9ba000141566b,2021-09-28_14h01.54.339,forced_choiceRT_color,2021.2.3,Win32,60.00960154,,,,,,,,6,Ontime,long,f,0,1.9606,1,1,5,0,1,,,,,
0.26,,,,,,,,,j,red,5bb97d1df1f9ba000141566b,2021-09-28_14h01.54.339,forced_choiceRT_color,2021.2.3,Win32,60.00960154,,,,,,,,6,Ontime,long,j,1,2.0495,1,2,6,2,1,,,,,
0.16,,,,,,,,,d,orange,5bb97d1df1f9ba000141566b,2021-09-28_14h01.54.339,forced_choiceRT_color,2021.2.3,Win32,60.00960154,,,,,,,,6,Slow,long,k,0,9.3843,1,3,7,0,1,,,,,
1.32,,,,,,,,,j,red,5bb97d1df1f9ba000141566b,2021-09-28_14h01.54.339,forced_choiceRT_color,2021.2.3,Win32,60.00960154,,,,,,,,6,Ontime,long,f,0,2.0378,2,0,8,2,1,,,,,
0.52,,,,,,,,,d,orange,5bb97d1df1f9ba000141566b,2021-09-28_14h01.54.339,forced_choiceRT_color,2021.2.3,Win32,60.00960154,,,,,,,,6,Slow,long,f,0,2.9507,2,1,9,0,1,,,,,
1.84,,,,,,,,,j,red,5bb97d1df1f9ba000141566b,2021-09-28_14h01.54.339,forced_choiceRT_color,2021.2.3,Win32,60.00960154,,,,,,,,6,Slow,long,j,1,2.2735,2,2,10,2,1,,,,,
0.67,,,,,,,,,f,blue,5bb97d1df1f9ba000141566b,2021-09-28_14h01.54.339,forced_choiceRT_color,2021.2.3,Win32,60.00960154,,,,,,,,6,Ontime,long,d,0,2.0116,2,3,11,1,1,,,,,
1.66,,,,,,,,,k,purple,5bb97d1df1f9ba000141566b,2021-09-28_14h01.54.339,forced_choiceRT_color,2021.2.3,Win32,60.00960154,,,,,,,,6,Ontime,long,j,0,2.034,3,0,12,3,1,,,,,
0.19,,,,,,,,,d,orange,5bb97d1df1f9ba000141566b,2021-09-28_14h01.54.339,forced_choiceRT_color,2021.2.3,Win32,60.00960154,,,,,,,,6,Ontime,long,f,0,2.0492,3,1,13,0,1,,,,,
0.39,,,,,,,,,d,orange,5bb97d1df1f9ba000141566b,2021-09-28_14h01.54.339,forced_choiceRT_color,2021.2.3,Win32,60.00960154,,,,,,,,6,Ontime,long,f,0,2.0553,3,2,14,0,1,,,,,
0.85,,,,,,,,,f,blue,5bb97d1df1f9ba000141566b,2021-09-28_14h01.54.339,forced_choiceRT_color,2021.2.3,Win32,60.00960154,,,,,,,,6,Ontime,long,d,0,2.0701,3,3,15,1,1,,,,,
0.45,,,,,,,,,k,purple,5bb97d1df1f9ba000141566b,2021-09-28_14h01.54.339,forced_choiceRT_color,2021.2.3,Win32,60.00960154,,,,,,,,6,Slow,long,k,1,2.1079,4,0,16,3,1,,,,,
1.25,,,,,,,,,k,purple,5bb97d1df1f9ba000141566b,2021-09-28_14h01.54.339,forced_choiceRT_color,2021.2.3,Win32,60.00960154,,,,,,,,6,Ontime,long,k,1,1.9548,4,1,17,3,1,,,,,
1.39,,,,,,,,,d,orange,5bb97d1df1f9ba000141566b,2021-09-28_14h01.54.339,forced_choiceRT_color,2021.2.3,Win32,60.00960154,,,,,,,,6,Fast,long,j,0,1.86,4,2,18,0,1,,,,,
1.69,,,,,,,,,d,orange,5bb97d1df1f9ba000141566b,2021-09-28_14h01.54.339,forced_choiceRT_color,2021.2.3,Win32,60.00960154,,,,,,,,6,Slow,long,f,0,2.1416,4,3,19,0,1,,,,,
1.22,,,,,,,,,k,purple,5bb97d1df1f9ba000141566b,2021-09-28_14h01.54.339,forced_choiceRT_color,2021.2.3,Win32,60.00960154,,,,,,,,6,Ontime,long,k,1,2.0228,5,0,20,3,1,,,,,
1.71,,,,,,,,,j,red,5bb97d1df1f9ba000141566b,2021-09-28_14h01.54.339,forced_choiceRT_color,2021.2.3,Win32,60.00960154,,,,,,,,6,Ontime,long,j,1,1.9723,5,1,21,2,1,,,,,
0.78,,,,,,,,,k,purple,5bb97d1df1f9ba000141566b,2021-09-28_14h01.54.339,forced_choiceRT_color,2021.2.3,Win32,60.00960154,,,,,,,,6,Ontime,long,k,1,2.0274,5,2,22,3,1,,,,,
1.17,,,,,,,,,j,red,5bb97d1df1f9ba000141566b,2021-09-28_14h01.54.339,forced_choiceRT_color,2021.2.3,Win32,60.00960154,,,,,,,,6,Ontime,long,f,0,2.0228,5,3,23,2,1,,,,,
0.24,,,,,,,,,j,red,5bb97d1df1f9ba000141566b,2021-09-28_14h01.54.339,forced_choiceRT_color,2021.2.3,Win32,60.00960154,,,,,,,,6,Ontime,long,j,1,2.0146,6,0,24,2,1,,,,,
0.9,,,,,,,,,f,blue,5bb97d1df1f9ba000141566b,2021-09-28_14h01.54.339,forced_choiceRT_color,2021.2.3,Win32,60.00960154,,,,,,,,6,Ontime,long,d,0,1.9904,6,1,25,1,1,,,,,
1.53,,,,,,,,,d,orange,5bb97d1df1f9ba000141566b,2021-09-28_14h01.54.339,forced_choiceRT_color,2021.2.3,Win32,60.00960154,,,,,,,,6,Slow,long,j,0,2.1405,6,2,26,0,1,,,,,
0.87,,,,,,,,,j,red,5bb97d1df1f9ba000141566b,2021-09-28_14h01.54.339,forced_choiceRT_color,2021.2.3,Win32,60.00960154,,,,,,,,6,Ontime,long,d,0,1.9839,6,3,27,2,1,,,,,
0,,,,,,,,,f,blue,5bb97d1df1f9ba000141566b,2021-09-28_14h01.54.339,forced_choiceRT_color,2021.2.3,Win32,60.00960154,,,,,,,,6,Ontime,long,d,0,2.018,7,0,28,1,1,,,,,
0.14,,,,,,,,,f,blue,5bb97d1df1f9ba000141566b,2021-09-28_14h01.54.339,forced_choiceRT_color,2021.2.3,Win32,60.00960154,,,,,,,,6,Ontime,long,d,0,2.0364,7,1,29,1,1,,,,,
0.67,,,,,,,,,j,red,5bb97d1df1f9ba000141566b,2021-09-28_14h01.54.339,forced_choiceRT_color,2021.2.3,Win32,60.00960154,,,,,,,,6,Ontime,long,j,1,2.012,7,2,30,2,1,,,,,
1.97,,,,,,,,,f,blue,5bb97d1df1f9ba000141566b,2021-09-28_14h01.54.339,forced_choiceRT_color,2021.2.3,Win32,60.00960154,,,,,,,,6,Slow,long,k,0,2.2028,7,3,31,1,1,,,,,
1.43,,,,,,,,,f,blue,5bb97d1df1f9ba000141566b,2021-09-28_14h01.54.339,forced_choiceRT_color,2021.2.3,Win32,60.00960154,,,,,,,,6,Fast,long,d,0,1.8804,8,0,32,1,1,,,,,
0.95,,,,,,,,,k,purple,5bb97d1df1f9ba000141566b,2021-09-28_14h01.54.339,forced_choiceRT_color,2021.2.3,Win32,60.00960154,,,,,,,,6,Ontime,long,k,1,1.9453,8,1,33,3,1,,,,,
1.93,,,,,,,,,f,blue,5bb97d1df1f9ba000141566b,2021-09-28_14h01.54.339,forced_choiceRT_color,2021.2.3,Win32,60.00960154,,,,,,,,6,Slow,long,k,0,2.189,8,2,34,1,1,,,,,
0.18,,,,,,,,,k,purple,5bb97d1df1f9ba000141566b,2021-09-28_14h01.54.339,forced_choiceRT_color,2021.2.3,Win32,60.00960154,,,,,,,,6,Ontime,long,k,1,1.9509,8,3,35,3,1,,,,,
1.06,,,,,,,,,k,purple,5bb97d1df1f9ba000141566b,2021-09-28_14h01.54.339,forced_choiceRT_color,2021.2.3,Win32,60.00960154,,,,,,,,6,Fast,long,k,1,1.8061,9,0,36,3,1,,,,,
0.59,,,,,,,,,d,orange,5bb97d1df1f9ba000141566b,2021-09-28_14h01.54.339,forced_choiceRT_color,2021.2.3,Win32,60.00960154,,,,,,,,6,Slow,long,f,0,2.1053,9,1,37,0,1,,,,,
0.87,,,,,,,,,k,purple,5bb97d1df1f9ba000141566b,2021-09-28_14h01.54.339,forced_choiceRT_color,2021.2.3,Win32,60.00960154,,,,,,,,6,Ontime,long,k,1,2.0815,9,2,38,3,1,,,,,
1.23,,,,,,,,,j,red,5bb97d1df1f9ba000141566b,2021-09-28_14h01.54.339,forced_choiceRT_color,2021.2.3,Win32,60.00960154,,,,,,,,6,Fast,long,d,0,1.8053,9,3,39,2,1,,,,,
,,,,,,,,,,,5bb97d1df1f9ba000141566b,2021-09-28_14h01.54.339,forced_choiceRT_color,2021.2.3,Win32,60.00960154,,,,,,,,,,,,,,,,,,,5,0,5,0,1
1.7,,,,,,,,,k,purple,5bb97d1df1f9ba000141566b,2021-09-28_14h01.54.339,forced_choiceRT_color,2021.2.3,Win32,60.00960154,,,,,,,,7,Slow,long,j,0,2.1289,0,0,0,3,1,,,,,
1.9,,,,,,,,,d,orange,5bb97d1df1f9ba000141566b,2021-09-28_14h01.54.339,forced_choiceRT_color,2021.2.3,Win32,60.00960154,,,,,,,,7,Slow,long,j,0,2.2887,0,1,1,0,1,,,,,
1.09,,,,,,,,,f,blue,5bb97d1df1f9ba000141566b,2021-09-28_14h01.54.339,forced_choiceRT_color,2021.2.3,Win32,60.00960154,,,,,,,,7,Ontime,long,d,0,1.9896,0,2,2,1,1,,,,,
1.04,,,,,,,,,k,purple,5bb97d1df1f9ba000141566b,2021-09-28_14h01.54.339,forced_choiceRT_color,2021.2.3,Win32,60.00960154,,,,,,,,7,Fast,long,k,1,1.8103,0,3,3,3,1,,,,,
1.58,,,,,,,,,j,red,5bb97d1df1f9ba000141566b,2021-09-28_14h01.54.339,forced_choiceRT_color,2021.2.3,Win32,60.00960154,,,,,,,,7,Ontime,long,d,0,2.0867,1,0,4,2,1,,,,,
1.82,,,,,,,,,j,red,5bb97d1df1f9ba000141566b,2021-09-28_14h01.54.339,forced_choiceRT_color,2021.2.3,Win32,60.00960154,,,,,,,,7,Slow,long,j,1,2.244,1,1,5,2,1,,,,,
0.82,,,,,,,,,f,blue,5bb97d1df1f9ba000141566b,2021-09-28_14h01.54.339,forced_choiceRT_color,2021.2.3,Win32,60.00960154,,,,,,,,7,Ontime,long,d,0,1.9386,1,2,6,1,1,,,,,
1.59,,,,,,,,,k,purple,5bb97d1df1f9ba000141566b,2021-09-28_14h01.54.339,forced_choiceRT_color,2021.2.3,Win32,60.00960154,,,,,,,,7,Slow,long,k,1,2.2484,1,3,7,3,1,,,,,
0.38,,,,,,,,,d,orange,5bb97d1df1f9ba000141566b,2021-09-28_14h01.54.339,forced_choiceRT_color,2021.2.3,Win32,60.00960154,,,,,,,,7,Ontime,long,f,0,2.0392,2,0,8,0,1,,,,,
0.74,,,,,,,,,j,red,5bb97d1df1f9ba000141566b,2021-09-28_14h01.54.339,forced_choiceRT_color,2021.2.3,Win32,60.00960154,,,,,,,,7,Ontime,long,j,1,2.0342,2,1,9,2,1,,,,,
0.73,,,,,,,,,d,orange,5bb97d1df1f9ba000141566b,2021-09-28_14h01.54.339,forced_choiceRT_color,2021.2.3,Win32,60.00960154,,,,,,,,7,Ontime,long,f,0,2.0897,2,2,10,0,1,,,,,
0.56,,,,,,,,,k,purple,5bb97d1df1f9ba000141566b,2021-09-28_14h01.54.339,forced_choiceRT_color,2021.2.3,Win32,60.00960154,,,,,,,,7,Slow,long,k,1,2.1261,2,3,11,3,1,,,,,
1.04,,,,,,,,,k,purple,5bb97d1df1f9ba000141566b,2021-09-28_14h01.54.339,forced_choiceRT_color,2021.2.3,Win32,60.00960154,,,,,,,,7,Ontime,long,k,1,2.0365,3,0,12,3,1,,,,,
0.99,,,,,,,,,k,purple,5bb97d1df1f9ba000141566b,2021-09-28_14h01.54.339,forced_choiceRT_color,2021.2.3,Win32,60.00960154,,,,,,,,7,Ontime,long,k,1,2.0122,3,1,13,3,1,,,,,
1.8,,,,,,,,,f,blue,5bb97d1df1f9ba000141566b,2021-09-28_14h01.54.339,forced_choiceRT_color,2021.2.3,Win32,60.00960154,,,,,,,,7,Ontime,long,d,0,1.949,3,2,14,1,1,,,,,
1.22,,,,,,,,,d,orange,5bb97d1df1f9ba000141566b,2021-09-28_14h01.54.339,forced_choiceRT_color,2021.2.3,Win32,60.00960154,,,,,,,,7,Ontime,long,k,0,2.0853,3,3,15,0,1,,,,,
0.14,,,,,,,,,f,blue,5bb97d1df1f9ba000141566b,2021-09-28_14h01.54.339,forced_choiceRT_color,2021.2.3,Win32,60.00960154,,,,,,,,7,Ontime,long,f,1,2.0469,4,0,16,1,1,,,,,
1.11,,,,,,,,,k,purple,5bb97d1df1f9ba000141566b,2021-09-28_14h01.54.339,forced_choiceRT_color,2021.2.3,Win32,60.00960154,,,,,,,,7,Ontime,long,k,1,2.07,4,1,17,3,1,,,,,
0.27,,,,,,,,,d,orange,5bb97d1df1f9ba000141566b,2021-09-28_14h01.54.339,forced_choiceRT_color,2021.2.3,Win32,60.00960154,,,,,,,,7,Ontime,long,f,0,2.0946,4,2,18,0,1,,,,,
1.41,,,,,,,,,k,purple,5bb97d1df1f9ba000141566b,2021-09-28_14h01.54.339,forced_choiceRT_color,2021.2.3,Win32,60.00960154,,,,,,,,7,Ontime,long,k,1,2.061,4,3,19,3,1,,,,,
1.41,,,,,,,,,j,red,5bb97d1df1f9ba000141566b,2021-09-28_14h01.54.339,forced_choiceRT_color,2021.2.3,Win32,60.00960154,,,,,,,,7,Ontime,long,j,1,2.0384,5,0,20,2,1,,,,,
0.63,,,,,,,,,k,purple,5bb97d1df1f9ba000141566b,2021-09-28_14h01.54.339,forced_choiceRT_color,2021.2.3,Win32,60.00960154,,,,,,,,7,Ontime,long,k,1,2.0493,5,1,21,3,1,,,,,
0.51,,,,,,,,,j,red,5bb97d1df1f9ba000141566b,2021-09-28_14h01.54.339,forced_choiceRT_color,2021.2.3,Win32,60.00960154,,,,,,,,7,Ontime,long,j,1,2.0307,5,2,22,2,1,,,,,
1.41,,,,,,,,,j,red,5bb97d1df1f9ba000141566b,2021-09-28_14h01.54.339,forced_choiceRT_color,2021.2.3,Win32,60.00960154,,,,,,,,7,Ontime,long,j,1,1.9943,5,3,23,2,1,,,,,
0.62,,,,,,,,,j,red,5bb97d1df1f9ba000141566b,2021-09-28_14h01.54.339,forced_choiceRT_color,2021.2.3,Win32,60.00960154,,,,,,,,7,Ontime,long,j,1,1.9863,6,0,24,2,1,,,,,
1.13,,,,,,,,,f,blue,5bb97d1df1f9ba000141566b,2021-09-28_14h01.54.339,forced_choiceRT_color,2021.2.3,Win32,60.00960154,,,,,,,,7,Ontime,long,d,0,1.9439,6,1,25,1,1,,,,,
0.99,,,,,,,,,j,red,5bb97d1df1f9ba000141566b,2021-09-28_14h01.54.339,forced_choiceRT_color,2021.2.3,Win32,60.00960154,,,,,,,,7,Ontime,long,j,1,1.9063,6,2,26,2,1,,,,,
1.89,,,,,,,,,j,red,5bb97d1df1f9ba000141566b,2021-09-28_14h01.54.339,forced_choiceRT_color,2021.2.3,Win32,60.00960154,,,,,,,,7,Slow,long,j,1,2.1618,6,3,27,2,1,,,,,
1.79,,,,,,,,,k,purple,5bb97d1df1f9ba000141566b,2021-09-28_14h01.54.339,forced_choiceRT_color,2021.2.3,Win32,60.00960154,,,,,,,,7,Ontime,long,j,0,2.0065,7,0,28,3,1,,,,,
0.44,,,,,,,,,f,blue,5bb97d1df1f9ba000141566b,2021-09-28_14h01.54.339,forced_choiceRT_color,2021.2.3,Win32,60.00960154,,,,,,,,7,Ontime,long,d,0,1.9908,7,1,29,1,1,,,,,
0.98,,,,,,,,,f,blue,5bb97d1df1f9ba000141566b,2021-09-28_14h01.54.339,forced_choiceRT_color,2021.2.3,Win32,60.00960154,,,,,,,,7,Slow,long,d,0,2.1468,7,2,30,1,1,,,,,
0.85,,,,,,,,,d,orange,5bb97d1df1f9ba000141566b,2021-09-28_14h01.54.339,forced_choiceRT_color,2021.2.3,Win32,60.00960154,,,,,,,,7,Ontime,long,f,0,1.9948,7,3,31,0,1,,,,,
1.44,,,,,,,,,d,orange,5bb97d1df1f9ba000141566b,2021-09-28_14h01.54.339,forced_choiceRT_color,2021.2.3,Win32,60.00960154,,,,,,,,7,Fast,long,j,0,1.7509,8,0,32,0,1,,,,,
0.9,,,,,,,,,d,orange,5bb97d1df1f9ba000141566b,2021-09-28_14h01.54.339,forced_choiceRT_color,2021.2.3,Win32,60.00960154,,,,,,,,7,Ontime,long,f,0,2.011,8,1,33,0,1,,,,,
1.73,,,,,,,,,j,red,5bb97d1df1f9ba000141566b,2021-09-28_14h01.54.339,forced_choiceRT_color,2021.2.3,Win32,60.00960154,,,,,,,,7,Ontime,long,d,0,2.033,8,2,34,2,1,,,,,
0.17,,,,,,,,,d,orange,5bb97d1df1f9ba000141566b,2021-09-28_14h01.54.339,forced_choiceRT_color,2021.2.3,Win32,60.00960154,,,,,,,,7,Ontime,long,f,0,2.0095,8,3,35,0,1,,,,,
1.45,,,,,,,,,f,blue,5bb97d1df1f9ba000141566b,2021-09-28_14h01.54.339,forced_choiceRT_color,2021.2.3,Win32,60.00960154,,,,,,,,7,Ontime,long,j,0,1.9425,9,0,36,1,1,,,,,
1.38,,,,,,,,,f,blue,5bb97d1df1f9ba000141566b,2021-09-28_14h01.54.339,forced_choiceRT_color,2021.2.3,Win32,60.00960154,,,,,,,,7,Slow,long,j,0,2.104,9,1,37,1,1,,,,,
1.27,,,,,,,,,f,blue,5bb97d1df1f9ba000141566b,2021-09-28_14h01.54.339,forced_choiceRT_color,2021.2.3,Win32,60.00960154,,,,,,,,7,Ontime,long,d,0,2.0301,9,2,38,1,1,,,,,
0.94,,,,,,,,,d,orange,5bb97d1df1f9ba000141566b,2021-09-28_14h01.54.339,forced_choiceRT_color,2021.2.3,Win32,60.00960154,,,,,,,,7,Ontime,long,f,0,2.0223,9,3,39,0,1,,,,,
,,,,,,,,,,,5bb97d1df1f9ba000141566b,2021-09-28_14h01.54.339,forced_choiceRT_color,2021.2.3,Win32,60.00960154,,,,,,,,,,,,,,,,,,,6,0,6,0,1
0.26,,,,,,,,,f,blue,5bb97d1df1f9ba000141566b,2021-09-28_14h01.54.339,forced_choiceRT_color,2021.2.3,Win32,60.00960154,,,,,,,,8,Slow,long,d,0,2.1755,0,0,0,1,1,,,,,
1.29,,,,,,,,,k,purple,5bb97d1df1f9ba000141566b,2021-09-28_14h01.54.339,forced_choiceRT_color,2021.2.3,Win32,60.00960154,,,,,,,,8,Ontime,long,k,1,1.985,0,1,1,3,1,,,,,
1.57,,,,,,,,,f,blue,5bb97d1df1f9ba000141566b,2021-09-28_14h01.54.339,forced_choiceRT_color,2021.2.3,Win32,60.00960154,,,,,,,,8,Ontime,long,d,0,2.0696,0,2,2,1,1,,,,,
0.8,,,,,,,,,k,purple,5bb97d1df1f9ba000141566b,2021-09-28_14h01.54.339,forced_choiceRT_color,2021.2.3,Win32,60.00960154,,,,,,,,8,Ontime,long,k,1,2.0134,0,3,3,3,1,,,,,
1.09,,,,,,,,,j,red,5bb97d1df1f9ba000141566b,2021-09-28_14h01.54.339,forced_choiceRT_color,2021.2.3,Win32,60.00960154,,,,,,,,8,Ontime,long,j,1,2.0789,1,0,4,2,1,,,,,
0.39,,,,,,,,,d,orange,5bb97d1df1f9ba000141566b,2021-09-28_14h01.54.339,forced_choiceRT_color,2021.2.3,Win32,60.00960154,,,,,,,,8,Ontime,long,f,0,1.9998,1,1,5,0,1,,,,,
1.67,,,,,,,,,k,purple,5bb97d1df1f9ba000141566b,2021-09-28_14h01.54.339,forced_choiceRT_color,2021.2.3,Win32,60.00960154,,,,,,,,8,Slow,long,d,0,2.1373,1,2,6,3,1,,,,,
1.07,,,,,,,,,d,orange,5bb97d1df1f9ba000141566b,2021-09-28_14h01.54.339,forced_choiceRT_color,2021.2.3,Win32,60.00960154,,,,,,,,8,Fast,long,f,0,1.8762,1,3,7,0,1,,,,,
1.85,,,,,,,,,f,blue,5bb97d1df1f9ba000141566b,2021-09-28_14h01.54.339,forced_choiceRT_color,2021.2.3,Win32,60.00960154,,,,,,,,8,Ontime,long,j,0,2.0799,2,0,8,1,1,,,,,
1.08,,,,,,,,,k,purple,5bb97d1df1f9ba000141566b,2021-09-28_14h01.54.339,forced_choiceRT_color,2021.2.3,Win32,60.00960154,,,,,,,,8,Ontime,long,k,1,2.0226,2,1,9,3,1,,,,,
0.09,,,,,,,,,k,purple,5bb97d1df1f9ba000141566b,2021-09-28_14h01.54.339,forced_choiceRT_color,2021.2.3,Win32,60.00960154,,,,,,,,8,Ontime,long,k,1,1.9716,2,2,10,3,1,,,,,
1.87,,,,,,,,,j,red,5bb97d1df1f9ba000141566b,2021-09-28_14h01.54.339,forced_choiceRT_color,2021.2.3,Win32,60.00960154,,,,,,,,8,Slow,long,j,1,2.194,2,3,11,2,1,,,,,
1.62,,,,,,,,,j,red,5bb97d1df1f9ba000141566b,2021-09-28_14h01.54.339,forced_choiceRT_color,2021.2.3,Win32,60.00960154,,,,,,,,8,Ontime,long,j,1,2.0192,3,0,12,2,1,,,,,
1.81,,,,,,,,,k,purple,5bb97d1df1f9ba000141566b,2021-09-28_14h01.54.339,forced_choiceRT_color,2021.2.3,Win32,60.00960154,,,,,,,,8,Slow,long,f,0,2.268,3,1,13,3,1,,,,,
0.99,,,,,,,,,d,orange,5bb97d1df1f9ba000141566b,2021-09-28_14h01.54.339,forced_choiceRT_color,2021.2.3,Win32,60.00960154,,,,,,,,8,Ontime,long,f,0,2.0251,3,2,14,0,1,,,,,
0.06,,,,,,,,,f,blue,5bb97d1df1f9ba000141566b,2021-09-28_14h01.54.339,forced_choiceRT_color,2021.2.3,Win32,60.00960154,,,,,,,,8,Ontime,long,d,0,2.0088,3,3,15,1,1,,,,,
1.41,,,,,,,,,j,red,5bb97d1df1f9ba000141566b,2021-09-28_14h01.54.339,forced_choiceRT_color,2021.2.3,Win32,60.00960154,,,,,,,,8,Ontime,long,j,1,2.0982,4,0,16,2,1,,,,,
0.89,,,,,,,,,d,orange,5bb97d1df1f9ba000141566b,2021-09-28_14h01.54.339,forced_choiceRT_color,2021.2.3,Win32,60.00960154,,,,,,,,8,Ontime,long,f,0,1.9964,4,1,17,0,1,,,,,
0.27,,,,,,,,,f,blue,5bb97d1df1f9ba000141566b,2021-09-28_14h01.54.339,forced_choiceRT_color,2021.2.3,Win32,60.00960154,,,,,,,,8,Ontime,long,d,0,1.9904,4,2,18,1,1,,,,,
1.41,,,,,,,,,d,orange,5bb97d1df1f9ba000141566b,2021-09-28_14h01.54.339,forced_choiceRT_color,2021.2.3,Win32,60.00960154,,,,,,,,8,Slow,long,f,0,2.107,4,3,19,0,1,,,,,
1.25,,,,,,,,,j,red,5bb97d1df1f9ba000141566b,2021-09-28_14h01.54.339,forced_choiceRT_color,2021.2.3,Win32,60.00960154,,,,,,,,8,Ontime,long,j,1,2.0101,5,0,20,2,1,,,,,
1.2,,,,,,,,,d,orange,5bb97d1df1f9ba000141566b,2021-09-28_14h01.54.339,forced_choiceRT_color,2021.2.3,Win32,60.00960154,,,,,,,,8,Ontime,long,f,0,1.9874,5,1,21,0,1,,,,,
0.12,,,,,,,,,k,purple,5bb97d1df1f9ba000141566b,2021-09-28_14h01.54.339,forced_choiceRT_color,2021.2.3,Win32,60.00960154,,,,,,,,8,Ontime,long,k,1,2.0293,5,2,22,3,1,,,,,
0.03,,,,,,,,,d,orange,5bb97d1df1f9ba000141566b,2021-09-28_14h01.54.339,forced_choiceRT_color,2021.2.3,Win32,60.00960154,,,,,,,,8,Ontime,long,f,0,2.0366,5,3,23,0,1,,,,,
0.79,,,,,,,,,k,purple,5bb97d1df1f9ba000141566b,2021-09-28_14h01.54.339,forced_choiceRT_color,2021.2.3,Win32,60.00960154,,,,,,,,8,Ontime,long,f,0,2.0181,6,0,24,3,1,,,,,
0.98,,,,,,,,,f,blue,5bb97d1df1f9ba000141566b,2021-09-28_14h01.54.339,forced_choiceRT_color,2021.2.3,Win32,60.00960154,,,,,,,,8,Ontime,long,d,0,2.0366,6,1,25,1,1,,,,,
0.33,,,,,,,,,f,blue,5bb97d1df1f9ba000141566b,2021-09-28_14h01.54.339,forced_choiceRT_color,2021.2.3,Win32,60.00960154,,,,,,,,8,Ontime,long,d,0,1.9596,6,2,26,1,1,,,,,
1.27,,,,,,,,,f,blue,5bb97d1df1f9ba000141566b,2021-09-28_14h01.54.339,forced_choiceRT_color,2021.2.3,Win32,60.00960154,,,,,,,,8,Ontime,long,d,0,1.9016,6,3,27,1,1,,,,,
1.54,,,,,,,,,k,purple,5bb97d1df1f9ba000141566b,2021-09-28_14h01.54.339,forced_choiceRT_color,2021.2.3,Win32,60.00960154,,,,,,,,8,Ontime,long,j,0,2.0689,7,0,28,3,1,,,,,
1.68,,,,,,,,,j,red,5bb97d1df1f9ba000141566b,2021-09-28_14h01.54.339,forced_choiceRT_color,2021.2.3,Win32,60.00960154,,,,,,,,8,Ontime,long,k,0,1.9671,7,1,29,2,1,,,,,
1.64,,,,,,,,,j,red,5bb97d1df1f9ba000141566b,2021-09-28_14h01.54.339,forced_choiceRT_color,2021.2.3,Win32,60.00960154,,,,,,,,8,Slow,long,j,1,2.1725,7,2,30,2,1,,,,,
0.53,,,,,,,,,d,orange,5bb97d1df1f9ba000141566b,2021-09-28_14h01.54.339,forced_choiceRT_color,2021.2.3,Win32,60.00960154,,,,,,,,8,Ontime,long,f,0,1.9866,7,3,31,0,1,,,,,
0.46,,,,,,,,,j,red,5bb97d1df1f9ba000141566b,2021-09-28_14h01.54.339,forced_choiceRT_color,2021.2.3,Win32,60.00960154,,,,,,,,8,Ontime,long,j,1,2.0251,8,0,32,2,1,,,,,
1.06,,,,,,,,,j,red,5bb97d1df1f9ba000141566b,2021-09-28_14h01.54.339,forced_choiceRT_color,2021.2.3,Win32,60.00960154,,,,,,,,8,Ontime,long,j,1,2.0579,8,1,33,2,1,,,,,
0.48,,,,,,,,,d,orange,5bb97d1df1f9ba000141566b,2021-09-28_14h01.54.339,forced_choiceRT_color,2021.2.3,Win32,60.00960154,,,,,,,,8,Ontime,long,f,0,1.9948,8,2,34,0,1,,,,,
0.17,,,,,,,,,f,blue,5bb97d1df1f9ba000141566b,2021-09-28_14h01.54.339,forced_choiceRT_color,2021.2.3,Win32,60.00960154,,,,,,,,8,Ontime,long,d,0,2.0254,8,3,35,1,1,,,,,
0.46,,,,,,,,,d,orange,5bb97d1df1f9ba000141566b,2021-09-28_14h01.54.339,forced_choiceRT_color,2021.2.3,Win32,60.00960154,,,,,,,,8,Ontime,long,f,0,1.9635,9,0,36,0,1,,,,,
1.28,,,,,,,,,k,purple,5bb97d1df1f9ba000141566b,2021-09-28_14h01.54.339,forced_choiceRT_color,2021.2.3,Win32,60.00960154,,,,,,,,8,Ontime,long,k,1,2.0023,9,1,37,3,1,,,,,
0.91,,,,,,,,,j,red,5bb97d1df1f9ba000141566b,2021-09-28_14h01.54.339,forced_choiceRT_color,2021.2.3,Win32,60.00960154,,,,,,,,8,Ontime,long,j,1,1.9471,9,2,38,2,1,,,,,
1.63,,,,,,,,,f,blue,5bb97d1df1f9ba000141566b,2021-09-28_14h01.54.339,forced_choiceRT_color,2021.2.3,Win32,60.00960154,,,,,,,,8,Slow,long,d,0,2.1321,9,3,39,1,1,,,,,
,,,,,,,,,,,5bb97d1df1f9ba000141566b,2021-09-28_14h01.54.339,forced_choiceRT_color,2021.2.3,Win32,60.00960154,,,,,,,,,,,,,,,,,,,7,0,7,0,1
1.44,,,,,,,,,j,red,5bb97d1df1f9ba000141566b,2021-09-28_14h01.54.339,forced_choiceRT_color,2021.2.3,Win32,60.00960154,,,,,,,,9,Ontime,long,j,1,2.0327,0,0,0,2,1,,,,,
1.48,,,,,,,,,j,red,5bb97d1df1f9ba000141566b,2021-09-28_14h01.54.339,forced_choiceRT_color,2021.2.3,Win32,60.00960154,,,,,,,,9,Ontime,long,j,1,1.9381,0,1,1,2,1,,,,,
1.2,,,,,,,,,k,purple,5bb97d1df1f9ba000141566b,2021-09-28_14h01.54.339,forced_choiceRT_color,2021.2.3,Win32,60.00960154,,,,,,,,9,Fast,long,k,1,1.7694,0,2,2,3,1,,,,,
1.8,,,,,,,,,d,orange,5bb97d1df1f9ba000141566b,2021-09-28_14h01.54.339,forced_choiceRT_color,2021.2.3,Win32,60.00960154,,,,,,,,9,Slow,long,d,1,2.2155,0,3,3,0,1,,,,,
1.83,,,,,,,,,f,blue,5bb97d1df1f9ba000141566b,2021-09-28_14h01.54.339,forced_choiceRT_color,2021.2.3,Win32,60.00960154,,,,,,,,9,Ontime,long,f,1,2.0962,1,0,4,1,1,,,,,
1.8,,,,,,,,,d,orange,5bb97d1df1f9ba000141566b,2021-09-28_14h01.54.339,forced_choiceRT_color,2021.2.3,Win32,60.00960154,,,,,,,,9,Ontime,long,d,1,2.0504,1,1,5,0,1,,,,,
1.35,,,,,,,,,f,blue,5bb97d1df1f9ba000141566b,2021-09-28_14h01.54.339,forced_choiceRT_color,2021.2.3,Win32,60.00960154,,,,,,,,9,Ontime,long,d,0,1.9574,1,2,6,1,1,,,,,
0.32,,,,,,,,,f,blue,5bb97d1df1f9ba000141566b,2021-09-28_14h01.54.339,forced_choiceRT_color,2021.2.3,Win32,60.00960154,,,,,,,,9,Fast,long,d,0,1.8577,1,3,7,1,1,,,,,
0.75,,,,,,,,,f,blue,5bb97d1df1f9ba000141566b,2021-09-28_14h01.54.339,forced_choiceRT_color,2021.2.3,Win32,60.00960154,,,,,,,,9,Ontime,long,d,0,2.0146,2,0,8,1,1,,,,,
0.36,,,,,,,,,d,orange,5bb97d1df1f9ba000141566b,2021-09-28_14h01.54.339,forced_choiceRT_color,2021.2.3,Win32,60.00960154,,,,,,,,9,Ontime,long,f,0,1.9574,2,1,9,0,1,,,,,
0.6,,,,,,,,,j,red,5bb97d1df1f9ba000141566b,2021-09-28_14h01.54.339,forced_choiceRT_color,2021.2.3,Win32,60.00960154,,,,,,,,9,Ontime,long,j,1,2.0417,2,2,10,2,1,,,,,
1.44,,,,,,,,,f,blue,5bb97d1df1f9ba000141566b,2021-09-28_14h01.54.339,forced_choiceRT_color,2021.2.3,Win32,60.00960154,,,,,,,,9,Ontime,long,d,0,1.9399,2,3,11,1,1,,,,,
1.69,,,,,,,,,d,orange,5bb97d1df1f9ba000141566b,2021-09-28_14h01.54.339,forced_choiceRT_color,2021.2.3,Win32,60.00960154,,,,,,,,9,Slow,long,f,0,2.1219,3,0,12,0,1,,,,,
0.72,,,,,,,,,j,red,5bb97d1df1f9ba000141566b,2021-09-28_14h01.54.339,forced_choiceRT_color,2021.2.3,Win32,60.00960154,,,,,,,,9,Ontime,long,j,1,2.0228,3,1,13,2,1,,,,,
0.5,,,,,,,,,d,orange,5bb97d1df1f9ba000141566b,2021-09-28_14h01.54.339,forced_choiceRT_color,2021.2.3,Win32,60.00960154,,,,,,,,9,Ontime,long,f,0,1.992,3,2,14,0,1,,,,,
1.2,,,,,,,,,k,purple,5bb97d1df1f9ba000141566b,2021-09-28_14h01.54.339,forced_choiceRT_color,2021.2.3,Win32,60.00960154,,,,,,,,9,Fast,long,k,1,1.8945,3,3,15,3,1,,,,,
1.18,,,,,,,,,k,purple,5bb97d1df1f9ba000141566b,2021-09-28_14h01.54.339,forced_choiceRT_color,2021.2.3,Win32,60.00960154,,,,,,,,9,Ontime,long,k,1,1.9874,4,0,16,3,1,,,,,
0.17,,,,,,,,,j,red,5bb97d1df1f9ba000141566b,2021-09-28_14h01.54.339,forced_choiceRT_color,2021.2.3,Win32,60.00960154,,,,,,,,9,Ontime,long,j,1,2.0916,4,1,17,2,1,,,,,
1.62,,,,,,,,,j,red,5bb97d1df1f9ba000141566b,2021-09-28_14h01.54.339,forced_choiceRT_color,2021.2.3,Win32,60.00960154,,,,,,,,9,Slow,long,j,1,2.1426,4,2,18,2,1,,,,,
1.08,,,,,,,,,d,orange,5bb97d1df1f9ba000141566b,2021-09-28_14h01.54.339,forced_choiceRT_color,2021.2.3,Win32,60.00960154,,,,,,,,9,Ontime,long,j,0,1.914,4,3,19,0,1,,,,,
1.96,,,,,,,,,j,red,5bb97d1df1f9ba000141566b,2021-09-28_14h01.54.339,forced_choiceRT_color,2021.2.3,Win32,60.00960154,,,,,,,,9,Slow,long,d,0,2.1215,5,0,20,2,1,,,,,
1.2,,,,,,,,,d,orange,5bb97d1df1f9ba000141566b,2021-09-28_14h01.54.339,forced_choiceRT_color,2021.2.3,Win32,60.00960154,,,,,,,,9,Ontime,long,f,0,1.9457,5,1,21,0,1,,,,,
0.55,,,,,,,,,d,orange,5bb97d1df1f9ba000141566b,2021-09-28_14h01.54.339,forced_choiceRT_color,2021.2.3,Win32,60.00960154,,,,,,,,9,Ontime,long,f,0,2.003,5,2,22,0,1,,,,,
1.27,,,,,,,,,j,red,5bb97d1df1f9ba000141566b,2021-09-28_14h01.54.339,forced_choiceRT_color,2021.2.3,Win32,60.00960154,,,,,,,,9,Ontime,long,k,0,2.0835,5,3,23,2,1,,,,,
1.95,,,,,,,,,j,red,5bb97d1df1f9ba000141566b,2021-09-28_14h01.54.339,forced_choiceRT_color,2021.2.3,Win32,60.00960154,,,,,,,,9,Slow,long,d,0,2.1705,6,0,24,2,1,,,,,
1.6,,,,,,,,,f,blue,5bb97d1df1f9ba000141566b,2021-09-28_14h01.54.339,forced_choiceRT_color,2021.2.3,Win32,60.00960154,,,,,,,,9,Ontime,long,j,0,2.0592,6,1,25,1,1,,,,,
1.3,,,,,,,,,k,purple,5bb97d1df1f9ba000141566b,2021-09-28_14h01.54.339,forced_choiceRT_color,2021.2.3,Win32,60.00960154,,,,,,,,9,Slow,long,k,1,2.1373,6,2,26,3,1,,,,,
0.46,,,,,,,,,k,purple,5bb97d1df1f9ba000141566b,2021-09-28_14h01.54.339,forced_choiceRT_color,2021.2.3,Win32,60.00960154,,,,,,,,9,Ontime,long,k,1,1.9719,6,3,27,3,1,,,,,
0.29,,,,,,,,,f,blue,5bb97d1df1f9ba000141566b,2021-09-28_14h01.54.339,forced_choiceRT_color,2021.2.3,Win32,60.00960154,,,,,,,,9,Ontime,long,d,0,2.0059,7,0,28,1,1,,,,,
0.81,,,,,,,,,k,purple,5bb97d1df1f9ba000141566b,2021-09-28_14h01.54.339,forced_choiceRT_color,2021.2.3,Win32,60.00960154,,,,,,,,9,Ontime,long,k,1,1.9758,7,1,29,3,1,,,,,
1.88,,,,,,,,,f,blue,5bb97d1df1f9ba000141566b,2021-09-28_14h01.54.339,forced_choiceRT_color,2021.2.3,Win32,60.00960154,,,,,,,,9,Ontime,long,k,0,2.0829,7,2,30,1,1,,,,,
1.31,,,,,,,,,k,purple,5bb97d1df1f9ba000141566b,2021-09-28_14h01.54.339,forced_choiceRT_color,2021.2.3,Win32,60.00960154,,,,,,,,9,Ontime,long,k,1,2.0759,7,3,31,3,1,,,,,
1.85,,,,,,,,,k,purple,5bb97d1df1f9ba000141566b,2021-09-28_14h01.54.339,forced_choiceRT_color,2021.2.3,Win32,60.00960154,,,,,,,,9,Slow,long,k,1,2.2953,8,0,32,3,1,,,,,
0.97,,,,,,,,,k,purple,5bb97d1df1f9ba000141566b,2021-09-28_14h01.54.339,forced_choiceRT_color,2021.2.3,Win32,60.00960154,,,,,,,,9,Ontime,long,k,1,2.0174,8,1,33,3,1,,,,,
0.01,,,,,,,,,k,purple,5bb97d1df1f9ba000141566b,2021-09-28_14h01.54.339,forced_choiceRT_color,2021.2.3,Win32,60.00960154,,,,,,,,9,Ontime,long,k,1,1.9914,8,2,34,3,1,,,,,
1.35,,,,,,,,,f,blue,5bb97d1df1f9ba000141566b,2021-09-28_14h01.54.339,forced_choiceRT_color,2021.2.3,Win32,60.00960154,,,,,,,,9,Slow,long,j,0,2.134,8,3,35,1,1,,,,,
0.67,,,,,,,,,f,blue,5bb97d1df1f9ba000141566b,2021-09-28_14h01.54.339,forced_choiceRT_color,2021.2.3,Win32,60.00960154,,,,,,,,9,Ontime,long,d,0,2.0054,9,0,36,1,1,,,,,
0.73,,,,,,,,,d,orange,5bb97d1df1f9ba000141566b,2021-09-28_14h01.54.339,forced_choiceRT_color,2021.2.3,Win32,60.00960154,,,,,,,,9,Ontime,long,f,0,2.0369,9,1,37,0,1,,,,,
1.89,,,,,,,,,j,red,5bb97d1df1f9ba000141566b,2021-09-28_14h01.54.339,forced_choiceRT_color,2021.2.3,Win32,60.00960154,,,,,,,,9,Slow,long,f,0,2.1178,9,2,38,2,1,,,,,
0.8,,,,,,,,,d,orange,5bb97d1df1f9ba000141566b,2021-09-28_14h01.54.339,forced_choiceRT_color,2021.2.3,Win32,60.00960154,,,,,,,,9,Ontime,long,f,0,2.0031,9,3,39,0,1,,,,,
,,,,,,,,,,,5bb97d1df1f9ba000141566b,2021-09-28_14h01.54.339,forced_choiceRT_color,2021.2.3,Win32,60.00960154,,,,,,,,,,,,,,,,,,,8,0,8,0,1
0.19,,,,,,,,,d,orange,5bb97d1df1f9ba000141566b,2021-09-28_14h01.54.339,forced_choiceRT_color,2021.2.3,Win32,60.00960154,,,,,,,,10,Ontime,long,f,0,2.0381,0,0,0,0,1,,,,,
1.12,,,,,,,,,d,orange,5bb97d1df1f9ba000141566b,2021-09-28_14h01.54.339,forced_choiceRT_color,2021.2.3,Win32,60.00960154,,,,,,,,10,Ontime,long,f,0,2.0923,0,1,1,0,1,,,,,
1.66,,,,,,,,,j,red,5bb97d1df1f9ba000141566b,2021-09-28_14h01.54.339,forced_choiceRT_color,2021.2.3,Win32,60.00960154,,,,,,,,10,Ontime,long,d,0,2.0269,0,2,2,2,1,,,,,
1.63,,,,,,,,,k,purple,5bb97d1df1f9ba000141566b,2021-09-28_14h01.54.339,forced_choiceRT_color,2021.2.3,Win32,60.00960154,,,,,,,,10,Slow,long,j,0,2.1112,0,3,3,3,1,,,,,
1.04,,,,,,,,,d,orange,5bb97d1df1f9ba000141566b,2021-09-28_14h01.54.339,forced_choiceRT_color,2021.2.3,Win32,60.00960154,,,,,,,,10,Ontime,long,f,0,2.002,1,0,4,0,1,,,,,
1.69,,,,,,,,,j,red,5bb97d1df1f9ba000141566b,2021-09-28_14h01.54.339,forced_choiceRT_color,2021.2.3,Win32,60.00960154,,,,,,,,10,Slow,long,j,1,2.2517,1,1,5,2,1,,,,,
0.44,,,,,,,,,f,blue,5bb97d1df1f9ba000141566b,2021-09-28_14h01.54.339,forced_choiceRT_color,2021.2.3,Win32,60.00960154,,,,,,,,10,Ontime,long,d,0,1.9718,1,2,6,1,1,,,,,
1.9,,,,,,,,,d,orange,5bb97d1df1f9ba000141566b,2021-09-28_14h01.54.339,forced_choiceRT_color,2021.2.3,Win32,60.00960154,,,,,,,,10,Ontime,long,j,0,1.9424,1,3,7,0,1,,,,,
0.15,,,,,,,,,k,purple,5bb97d1df1f9ba000141566b,2021-09-28_14h01.54.339,forced_choiceRT_color,2021.2.3,Win32,60.00960154,,,,,,,,10,Ontime,long,k,1,1.9972,2,0,8,3,1,,,,,
1.31,,,,,,,,,f,blue,5bb97d1df1f9ba000141566b,2021-09-28_14h01.54.339,forced_choiceRT_color,2021.2.3,Win32,60.00960154,,,,,,,,10,Ontime,long,d,0,2.0806,2,1,9,1,1,,,,,
1.33,,,,,,,,,k,purple,5bb97d1df1f9ba000141566b,2021-09-28_14h01.54.339,forced_choiceRT_color,2021.2.3,Win32,60.00960154,,,,,,,,10,Ontime,long,k,1,2.0382,2,2,10,3,1,,,,,
0.16,,,,,,,,,f,blue,5bb97d1df1f9ba000141566b,2021-09-28_14h01.54.339,forced_choiceRT_color,2021.2.3,Win32,60.00960154,,,,,,,,10,Ontime,long,d,0,2.0225,2,3,11,1,1,,,,,
0.4,,,,,,,,,k,purple,5bb97d1df1f9ba000141566b,2021-09-28_14h01.54.339,forced_choiceRT_color,2021.2.3,Win32,60.00960154,,,,,,,,10,Ontime,long,k,1,2.0344,3,0,12,3,1,,,,,
0.02,,,,,,,,,f,blue,5bb97d1df1f9ba000141566b,2021-09-28_14h01.54.339,forced_choiceRT_color,2021.2.3,Win32,60.00960154,,,,,,,,10,Ontime,long,d,0,2.0228,3,1,13,1,1,,,,,
1.89,,,,,,,,,j,red,5bb97d1df1f9ba000141566b,2021-09-28_14h01.54.339,forced_choiceRT_color,2021.2.3,Win32,60.00960154,,,,,,,,10,Ontime,long,f,0,2.0046,3,2,14,2,1,,,,,
0.72,,,,,,,,,f,blue,5bb97d1df1f9ba000141566b,2021-09-28_14h01.54.339,forced_choiceRT_color,2021.2.3,Win32,60.00960154,,,,,,,,10,Ontime,long,d,0,2.0005,3,3,15,1,1,,,,,
0.24,,,,,,,,,k,purple,5bb97d1df1f9ba000141566b,2021-09-28_14h01.54.339,forced_choiceRT_color,2021.2.3,Win32,60.00960154,,,,,,,,10,Ontime,long,k,1,2.0321,4,0,16,3,1,,,,,
1.99,,,,,,,,,k,purple,5bb97d1df1f9ba000141566b,2021-09-28_14h01.54.339,forced_choiceRT_color,2021.2.3,Win32,60.00960154,,,,,,,,10,Ontime,long,k,1,2.0045,4,1,17,3,1,,,,,
0.67,,,,,,,,,f,blue,5bb97d1df1f9ba000141566b,2021-09-28_14h01.54.339,forced_choiceRT_color,2021.2.3,Win32,60.00960154,,,,,,,,10,Ontime,long,d,0,2.014,4,2,18,1,1,,,,,
1.48,,,,,,,,,j,red,5bb97d1df1f9ba000141566b,2021-09-28_14h01.54.339,forced_choiceRT_color,2021.2.3,Win32,60.00960154,,,,,,,,10,Slow,long,j,1,2.1519,4,3,19,2,1,,,,,
1.53,,,,,,,,,f,blue,5bb97d1df1f9ba000141566b,2021-09-28_14h01.54.339,forced_choiceRT_color,2021.2.3,Win32,60.00960154,,,,,,,,10,Slow,long,d,0,2.1363,5,0,20,1,1,,,,,
0.25,,,,,,,,,d,orange,5bb97d1df1f9ba000141566b,2021-09-28_14h01.54.339,forced_choiceRT_color,2021.2.3,Win32,60.00960154,,,,,,,,10,Ontime,long,f,0,2.0409,5,1,21,0,1,,,,,
1.23,,,,,,,,,d,orange,5bb97d1df1f9ba000141566b,2021-09-28_14h01.54.339,forced_choiceRT_color,2021.2.3,Win32,60.00960154,,,,,,,,10,Ontime,long,f,0,2.0446,5,2,22,0,1,,,,,
1.32,,,,,,,,,f,blue,5bb97d1df1f9ba000141566b,2021-09-28_14h01.54.339,forced_choiceRT_color,2021.2.3,Win32,60.00960154,,,,,,,,10,Ontime,long,d,0,2.0373,5,3,23,1,1,,,,,
1.96,,,,,,,,,j,red,5bb97d1df1f9ba000141566b,2021-09-28_14h01.54.339,forced_choiceRT_color,2021.2.3,Win32,60.00960154,,,,,,,,10,Slow,long,j,1,2.1973,6,0,24,2,1,,,,,
1.46,,,,,,,,,j,red,5bb97d1df1f9ba000141566b,2021-09-28_14h01.54.339,forced_choiceRT_color,2021.2.3,Win32,60.00960154,,,,,,,,10,Ontime,long,j,1,1.9653,6,1,25,2,1,,,,,
1.83,,,,,,,,,f,blue,5bb97d1df1f9ba000141566b,2021-09-28_14h01.54.339,forced_choiceRT_color,2021.2.3,Win32,60.00960154,,,,,,,,10,Ontime,long,k,0,1.944,6,2,26,1,1,,,,,
0.48,,,,,,,,,d,orange,5bb97d1df1f9ba000141566b,2021-09-28_14h01.54.339,forced_choiceRT_color,2021.2.3,Win32,60.00960154,,,,,,,,10,Ontime,long,f,0,1.9835,6,3,27,0,1,,,,,
1.59,,,,,,,,,j,red,5bb97d1df1f9ba000141566b,2021-09-28_14h01.54.339,forced_choiceRT_color,2021.2.3,Win32,60.00960154,,,,,,,,10,Ontime,long,d,0,1.9213,7,0,28,2,1,,,,,
0,,,,,,,,,d,orange,5bb97d1df1f9ba000141566b,2021-09-28_14h01.54.339,forced_choiceRT_color,2021.2.3,Win32,60.00960154,,,,,,,,10,Ontime,long,f,0,1.9369,7,1,29,0,1,,,,,
0.58,,,,,,,,,k,purple,5bb97d1df1f9ba000141566b,2021-09-28_14h01.54.339,forced_choiceRT_color,2021.2.3,Win32,60.00960154,,,,,,,,10,Ontime,long,k,1,2.0595,7,2,30,3,1,,,,,
0.39,,,,,,,,,j,red,5bb97d1df1f9ba000141566b,2021-09-28_14h01.54.339,forced_choiceRT_color,2021.2.3,Win32,60.00960154,,,,,,,,10,Ontime,long,j,1,2.0125,7,3,31,2,1,,,,,
1.54,,,,,,,,,j,red,5bb97d1df1f9ba000141566b,2021-09-28_14h01.54.339,forced_choiceRT_color,2021.2.3,Win32,60.00960154,,,,,,,,10,Slow,long,j,1,2.1383,8,0,32,2,1,,,,,
1.05,,,,,,,,,k,purple,5bb97d1df1f9ba000141566b,2021-09-28_14h01.54.339,forced_choiceRT_color,2021.2.3,Win32,60.00960154,,,,,,,,10,Ontime,long,k,1,2.0051,8,1,33,3,1,,,,,
0.63,,,,,,,,,k,purple,5bb97d1df1f9ba000141566b,2021-09-28_14h01.54.339,forced_choiceRT_color,2021.2.3,Win32,60.00960154,,,,,,,,10,Ontime,long,k,1,1.9962,8,2,34,3,1,,,,,
0.68,,,,,,,,,j,red,5bb97d1df1f9ba000141566b,2021-09-28_14h01.54.339,forced_choiceRT_color,2021.2.3,Win32,60.00960154,,,,,,,,10,Ontime,long,j,1,2.0051,8,3,35,2,1,,,,,
1.56,,,,,,,,,d,orange,5bb97d1df1f9ba000141566b,2021-09-28_14h01.54.339,forced_choiceRT_color,2021.2.3,Win32,60.00960154,,,,,,,,10,Slow,long,f,0,2.1245,9,0,36,0,1,,,,,
0.58,,,,,,,,,d,orange,5bb97d1df1f9ba000141566b,2021-09-28_14h01.54.339,forced_choiceRT_color,2021.2.3,Win32,60.00960154,,,,,,,,10,Ontime,long,f,0,1.9303,9,1,37,0,1,,,,,
0.62,,,,,,,,,k,purple,5bb97d1df1f9ba000141566b,2021-09-28_14h01.54.339,forced_choiceRT_color,2021.2.3,Win32,60.00960154,,,,,,,,10,Ontime,long,k,1,2.0099,9,2,38,3,1,,,,,
0.82,,,,,,,,,f,blue,5bb97d1df1f9ba000141566b,2021-09-28_14h01.54.339,forced_choiceRT_color,2021.2.3,Win32,60.00960154,,,,,,,,10,Ontime,long,d,0,1.9142,9,3,39,1,1,,,,,
,,,,,,,,,,,5bb97d1df1f9ba000141566b,2021-09-28_14h01.54.339,forced_choiceRT_color,2021.2.3,Win32,60.00960154,,,,,,,,,,,,,,,,,,,9,0,9,0,1
