IP_Addresss,target_onset,trial_resp_sp.keys,trial_resp_sp.corr,trial_resp_sp.rt,trials_train_loop.thisRepN,trials_train_loop.thisTrialN,trials_train_loop.thisN,trials_train_loop.thisIndex,trials_train_loop.ran,correct_key,color,participant,date,expName,psychopyVersion,OS,frameRate,trial_resp_timing.keys,trial_resp_timing.rt,trials_train_timing.thisRepN,trials_train_timing.thisTrialN,trials_train_timing.thisN,trials_train_timing.thisIndex,trials_train_timing.ran,block_id,ontime,feedback_cond,forcedRT_resp.keys,forcedRT_resp.corr,forcedRT_resp.rt,trials.thisRepN,trials.thisTrialN,trials.thisN,trials.thisIndex,trials.ran,blocks.thisRepN,blocks.thisTrialN,blocks.thisN,blocks.thisIndex,blocks.ran
68.112.232.169,0,d,1,1.4007,0,0,0,0,1,d,orange,5bde3d1a3ec77c0001bddc37,2021-09-27_20h03.34.787,forced_choiceRT_color,2021.2.3,MacIntel,59.84082341,,,,,,,,,,,,,,,,,,,,,,,
,0,f,1,0.7223,0,1,1,1,1,f,blue,5bde3d1a3ec77c0001bddc37,2021-09-27_20h03.34.787,forced_choiceRT_color,2021.2.3,MacIntel,59.84082341,,,,,,,,,,,,,,,,,,,,,,,
,0,f,1,0.6185,0,2,2,1,1,f,blue,5bde3d1a3ec77c0001bddc37,2021-09-27_20h03.34.787,forced_choiceRT_color,2021.2.3,MacIntel,59.84082341,,,,,,,,,,,,,,,,,,,,,,,
,0,j,1,0.6316,0,3,3,2,1,j,red,5bde3d1a3ec77c0001bddc37,2021-09-27_20h03.34.787,forced_choiceRT_color,2021.2.3,MacIntel,59.84082341,,,,,,,,,,,,,,,,,,,,,,,
,0,k,1,0.4824,1,0,4,3,1,k,purple,5bde3d1a3ec77c0001bddc37,2021-09-27_20h03.34.787,forced_choiceRT_color,2021.2.3,MacIntel,59.84082341,,,,,,,,,,,,,,,,,,,,,,,
,0,k,1,0.6378,1,1,5,3,1,k,purple,5bde3d1a3ec77c0001bddc37,2021-09-27_20h03.34.787,forced_choiceRT_color,2021.2.3,MacIntel,59.84082341,,,,,,,,,,,,,,,,,,,,,,,
,0,j,1,0.69,1,2,6,2,1,j,red,5bde3d1a3ec77c0001bddc37,2021-09-27_20h03.34.787,forced_choiceRT_color,2021.2.3,MacIntel,59.84082341,,,,,,,,,,,,,,,,,,,,,,,
,0,f,1,0.5563,1,3,7,1,1,f,blue,5bde3d1a3ec77c0001bddc37,2021-09-27_20h03.34.787,forced_choiceRT_color,2021.2.3,MacIntel,59.84082341,,,,,,,,,,,,,,,,,,,,,,,
,0,d,1,0.5283,2,0,8,0,1,d,orange,5bde3d1a3ec77c0001bddc37,2021-09-27_20h03.34.787,forced_choiceRT_color,2021.2.3,MacIntel,59.84082341,,,,,,,,,,,,,,,,,,,,,,,
,0,j,1,1.2848,2,1,9,2,1,j,red,5bde3d1a3ec77c0001bddc37,2021-09-27_20h03.34.787,forced_choiceRT_color,2021.2.3,MacIntel,59.84082341,,,,,,,,,,,,,,,,,,,,,,,
,0,d,1,0.7737,2,2,10,0,1,d,orange,5bde3d1a3ec77c0001bddc37,2021-09-27_20h03.34.787,forced_choiceRT_color,2021.2.3,MacIntel,59.84082341,,,,,,,,,,,,,,,,,,,,,,,
,0,j,1,0.6174,2,3,11,2,1,j,red,5bde3d1a3ec77c0001bddc37,2021-09-27_20h03.34.787,forced_choiceRT_color,2021.2.3,MacIntel,59.84082341,,,,,,,,,,,,,,,,,,,,,,,
,0,f,1,1.0495,3,0,12,1,1,f,blue,5bde3d1a3ec77c0001bddc37,2021-09-27_20h03.34.787,forced_choiceRT_color,2021.2.3,MacIntel,59.84082341,,,,,,,,,,,,,,,,,,,,,,,
,0,d,1,0.6332,3,1,13,0,1,d,orange,5bde3d1a3ec77c0001bddc37,2021-09-27_20h03.34.787,forced_choiceRT_color,2021.2.3,MacIntel,59.84082341,,,,,,,,,,,,,,,,,,,,,,,
,0,k,1,0.6511,3,2,14,3,1,k,purple,5bde3d1a3ec77c0001bddc37,2021-09-27_20h03.34.787,forced_choiceRT_color,2021.2.3,MacIntel,59.84082341,,,,,,,,,,,,,,,,,,,,,,,
,0,j,1,0.7185,3,3,15,2,1,j,red,5bde3d1a3ec77c0001bddc37,2021-09-27_20h03.34.787,forced_choiceRT_color,2021.2.3,MacIntel,59.84082341,,,,,,,,,,,,,,,,,,,,,,,
,0,f,1,0.6335,4,0,16,1,1,f,blue,5bde3d1a3ec77c0001bddc37,2021-09-27_20h03.34.787,forced_choiceRT_color,2021.2.3,MacIntel,59.84082341,,,,,,,,,,,,,,,,,,,,,,,
,0,k,1,0.5944,4,1,17,3,1,k,purple,5bde3d1a3ec77c0001bddc37,2021-09-27_20h03.34.787,forced_choiceRT_color,2021.2.3,MacIntel,59.84082341,,,,,,,,,,,,,,,,,,,,,,,
,0,j,1,0.8358,4,2,18,2,1,j,red,5bde3d1a3ec77c0001bddc37,2021-09-27_20h03.34.787,forced_choiceRT_color,2021.2.3,MacIntel,59.84082341,,,,,,,,,,,,,,,,,,,,,,,
,0,j,1,0.5195,4,3,19,2,1,j,red,5bde3d1a3ec77c0001bddc37,2021-09-27_20h03.34.787,forced_choiceRT_color,2021.2.3,MacIntel,59.84082341,,,,,,,,,,,,,,,,,,,,,,,
,0,f,1,0.6893,5,0,20,1,1,f,blue,5bde3d1a3ec77c0001bddc37,2021-09-27_20h03.34.787,forced_choiceRT_color,2021.2.3,MacIntel,59.84082341,,,,,,,,,,,,,,,,,,,,,,,
,0,d,1,0.5545,5,1,21,0,1,d,orange,5bde3d1a3ec77c0001bddc37,2021-09-27_20h03.34.787,forced_choiceRT_color,2021.2.3,MacIntel,59.84082341,,,,,,,,,,,,,,,,,,,,,,,
,0,j,1,1.1006,5,2,22,2,1,j,red,5bde3d1a3ec77c0001bddc37,2021-09-27_20h03.34.787,forced_choiceRT_color,2021.2.3,MacIntel,59.84082341,,,,,,,,,,,,,,,,,,,,,,,
,0,j,1,0.4885,5,3,23,2,1,j,red,5bde3d1a3ec77c0001bddc37,2021-09-27_20h03.34.787,forced_choiceRT_color,2021.2.3,MacIntel,59.84082341,,,,,,,,,,,,,,,,,,,,,,,
,0,d,1,0.6195,6,0,24,0,1,d,orange,5bde3d1a3ec77c0001bddc37,2021-09-27_20h03.34.787,forced_choiceRT_color,2021.2.3,MacIntel,59.84082341,,,,,,,,,,,,,,,,,,,,,,,
,0,d,1,0.4728,6,1,25,0,1,d,orange,5bde3d1a3ec77c0001bddc37,2021-09-27_20h03.34.787,forced_choiceRT_color,2021.2.3,MacIntel,59.84082341,,,,,,,,,,,,,,,,,,,,,,,
,0,d,1,0.4719,6,2,26,0,1,d,orange,5bde3d1a3ec77c0001bddc37,2021-09-27_20h03.34.787,forced_choiceRT_color,2021.2.3,MacIntel,59.84082341,,,,,,,,,,,,,,,,,,,,,,,
,0,j,1,0.6009,6,3,27,2,1,j,red,5bde3d1a3ec77c0001bddc37,2021-09-27_20h03.34.787,forced_choiceRT_color,2021.2.3,MacIntel,59.84082341,,,,,,,,,,,,,,,,,,,,,,,
,0,k,1,0.451,7,0,28,3,1,k,purple,5bde3d1a3ec77c0001bddc37,2021-09-27_20h03.34.787,forced_choiceRT_color,2021.2.3,MacIntel,59.84082341,,,,,,,,,,,,,,,,,,,,,,,
,0,f,1,0.758,7,1,29,1,1,f,blue,5bde3d1a3ec77c0001bddc37,2021-09-27_20h03.34.787,forced_choiceRT_color,2021.2.3,MacIntel,59.84082341,,,,,,,,,,,,,,,,,,,,,,,
,0,k,1,0.813,7,2,30,3,1,k,purple,5bde3d1a3ec77c0001bddc37,2021-09-27_20h03.34.787,forced_choiceRT_color,2021.2.3,MacIntel,59.84082341,,,,,,,,,,,,,,,,,,,,,,,
,0,k,1,0.5195,7,3,31,3,1,k,purple,5bde3d1a3ec77c0001bddc37,2021-09-27_20h03.34.787,forced_choiceRT_color,2021.2.3,MacIntel,59.84082341,,,,,,,,,,,,,,,,,,,,,,,
,0,f,1,0.6241,8,0,32,1,1,f,blue,5bde3d1a3ec77c0001bddc37,2021-09-27_20h03.34.787,forced_choiceRT_color,2021.2.3,MacIntel,59.84082341,,,,,,,,,,,,,,,,,,,,,,,
,0,k,1,0.7171,8,1,33,3,1,k,purple,5bde3d1a3ec77c0001bddc37,2021-09-27_20h03.34.787,forced_choiceRT_color,2021.2.3,MacIntel,59.84082341,,,,,,,,,,,,,,,,,,,,,,,
,0,f,1,0.6539,8,2,34,1,1,f,blue,5bde3d1a3ec77c0001bddc37,2021-09-27_20h03.34.787,forced_choiceRT_color,2021.2.3,MacIntel,59.84082341,,,,,,,,,,,,,,,,,,,,,,,
,0,d,1,0.6731,8,3,35,0,1,d,orange,5bde3d1a3ec77c0001bddc37,2021-09-27_20h03.34.787,forced_choiceRT_color,2021.2.3,MacIntel,59.84082341,,,,,,,,,,,,,,,,,,,,,,,
,0,j,1,0.5708,9,0,36,2,1,j,red,5bde3d1a3ec77c0001bddc37,2021-09-27_20h03.34.787,forced_choiceRT_color,2021.2.3,MacIntel,59.84082341,,,,,,,,,,,,,,,,,,,,,,,
,0,d,1,0.6079,9,1,37,0,1,d,orange,5bde3d1a3ec77c0001bddc37,2021-09-27_20h03.34.787,forced_choiceRT_color,2021.2.3,MacIntel,59.84082341,,,,,,,,,,,,,,,,,,,,,,,
,0,j,1,0.6347,9,2,38,2,1,j,red,5bde3d1a3ec77c0001bddc37,2021-09-27_20h03.34.787,forced_choiceRT_color,2021.2.3,MacIntel,59.84082341,,,,,,,,,,,,,,,,,,,,,,,
,0,k,1,0.5338,9,3,39,3,1,k,purple,5bde3d1a3ec77c0001bddc37,2021-09-27_20h03.34.787,forced_choiceRT_color,2021.2.3,MacIntel,59.84082341,,,,,,,,,,,,,,,,,,,,,,,
,0,j,1,0.6692,10,0,40,2,1,j,red,5bde3d1a3ec77c0001bddc37,2021-09-27_20h03.34.787,forced_choiceRT_color,2021.2.3,MacIntel,59.84082341,,,,,,,,,,,,,,,,,,,,,,,
,0,f,1,0.6396,10,1,41,1,1,f,blue,5bde3d1a3ec77c0001bddc37,2021-09-27_20h03.34.787,forced_choiceRT_color,2021.2.3,MacIntel,59.84082341,,,,,,,,,,,,,,,,,,,,,,,
,0,k,1,0.778,10,2,42,3,1,k,purple,5bde3d1a3ec77c0001bddc37,2021-09-27_20h03.34.787,forced_choiceRT_color,2021.2.3,MacIntel,59.84082341,,,,,,,,,,,,,,,,,,,,,,,
,0,k,1,0.521,10,3,43,3,1,k,purple,5bde3d1a3ec77c0001bddc37,2021-09-27_20h03.34.787,forced_choiceRT_color,2021.2.3,MacIntel,59.84082341,,,,,,,,,,,,,,,,,,,,,,,
,0,d,1,0.6517,11,0,44,0,1,d,orange,5bde3d1a3ec77c0001bddc37,2021-09-27_20h03.34.787,forced_choiceRT_color,2021.2.3,MacIntel,59.84082341,,,,,,,,,,,,,,,,,,,,,,,
,0,k,1,0.6347,11,1,45,3,1,k,purple,5bde3d1a3ec77c0001bddc37,2021-09-27_20h03.34.787,forced_choiceRT_color,2021.2.3,MacIntel,59.84082341,,,,,,,,,,,,,,,,,,,,,,,
,0,f,1,0.6178,11,2,46,1,1,f,blue,5bde3d1a3ec77c0001bddc37,2021-09-27_20h03.34.787,forced_choiceRT_color,2021.2.3,MacIntel,59.84082341,,,,,,,,,,,,,,,,,,,,,,,
,0,k,0,0.6524,11,3,47,2,1,j,red,5bde3d1a3ec77c0001bddc37,2021-09-27_20h03.34.787,forced_choiceRT_color,2021.2.3,MacIntel,59.84082341,,,,,,,,,,,,,,,,,,,,,,,
,0,f,1,0.8517,12,0,48,1,1,f,blue,5bde3d1a3ec77c0001bddc37,2021-09-27_20h03.34.787,forced_choiceRT_color,2021.2.3,MacIntel,59.84082341,,,,,,,,,,,,,,,,,,,,,,,
,0,d,1,0.6177,12,1,49,0,1,d,orange,5bde3d1a3ec77c0001bddc37,2021-09-27_20h03.34.787,forced_choiceRT_color,2021.2.3,MacIntel,59.84082341,,,,,,,,,,,,,,,,,,,,,,,
,0,k,1,0.6208,12,2,50,3,1,k,purple,5bde3d1a3ec77c0001bddc37,2021-09-27_20h03.34.787,forced_choiceRT_color,2021.2.3,MacIntel,59.84082341,,,,,,,,,,,,,,,,,,,,,,,
,0,d,1,0.5666,12,3,51,0,1,d,orange,5bde3d1a3ec77c0001bddc37,2021-09-27_20h03.34.787,forced_choiceRT_color,2021.2.3,MacIntel,59.84082341,,,,,,,,,,,,,,,,,,,,,,,
,0,d,1,0.5889,13,0,52,0,1,d,orange,5bde3d1a3ec77c0001bddc37,2021-09-27_20h03.34.787,forced_choiceRT_color,2021.2.3,MacIntel,59.84082341,,,,,,,,,,,,,,,,,,,,,,,
,0,k,1,0.6514,13,1,53,3,1,k,purple,5bde3d1a3ec77c0001bddc37,2021-09-27_20h03.34.787,forced_choiceRT_color,2021.2.3,MacIntel,59.84082341,,,,,,,,,,,,,,,,,,,,,,,
,0,f,1,0.623,13,2,54,1,1,f,blue,5bde3d1a3ec77c0001bddc37,2021-09-27_20h03.34.787,forced_choiceRT_color,2021.2.3,MacIntel,59.84082341,,,,,,,,,,,,,,,,,,,,,,,
,0,f,1,0.5558,13,3,55,1,1,f,blue,5bde3d1a3ec77c0001bddc37,2021-09-27_20h03.34.787,forced_choiceRT_color,2021.2.3,MacIntel,59.84082341,,,,,,,,,,,,,,,,,,,,,,,
,0,k,1,0.6682,14,0,56,3,1,k,purple,5bde3d1a3ec77c0001bddc37,2021-09-27_20h03.34.787,forced_choiceRT_color,2021.2.3,MacIntel,59.84082341,,,,,,,,,,,,,,,,,,,,,,,
,0,d,1,0.6675,14,1,57,0,1,d,orange,5bde3d1a3ec77c0001bddc37,2021-09-27_20h03.34.787,forced_choiceRT_color,2021.2.3,MacIntel,59.84082341,,,,,,,,,,,,,,,,,,,,,,,
,0,j,1,0.6336,14,2,58,2,1,j,red,5bde3d1a3ec77c0001bddc37,2021-09-27_20h03.34.787,forced_choiceRT_color,2021.2.3,MacIntel,59.84082341,,,,,,,,,,,,,,,,,,,,,,,
,0,f,1,0.7184,14,3,59,1,1,f,blue,5bde3d1a3ec77c0001bddc37,2021-09-27_20h03.34.787,forced_choiceRT_color,2021.2.3,MacIntel,59.84082341,,,,,,,,,,,,,,,,,,,,,,,
,,,,,,,,,,,,5bde3d1a3ec77c0001bddc37,2021-09-27_20h03.34.787,forced_choiceRT_color,2021.2.3,MacIntel,59.84082341,d,3.4886,0,0,0,0,1,,,,,,,,,,,,,,,,
,,,,,,,,,,,,5bde3d1a3ec77c0001bddc37,2021-09-27_20h03.34.787,forced_choiceRT_color,2021.2.3,MacIntel,59.84082341,d,0.8561,1,0,1,0,1,,,,,,,,,,,,,,,,
,,,,,,,,,,,,5bde3d1a3ec77c0001bddc37,2021-09-27_20h03.34.787,forced_choiceRT_color,2021.2.3,MacIntel,59.84082341,k,1.8726,2,0,2,0,1,,,,,,,,,,,,,,,,
,,,,,,,,,,,,5bde3d1a3ec77c0001bddc37,2021-09-27_20h03.34.787,forced_choiceRT_color,2021.2.3,MacIntel,59.84082341,k,2.2215,3,0,3,0,1,,,,,,,,,,,,,,,,
,,,,,,,,,,,,5bde3d1a3ec77c0001bddc37,2021-09-27_20h03.34.787,forced_choiceRT_color,2021.2.3,MacIntel,59.84082341,k,1.763,4,0,4,0,1,,,,,,,,,,,,,,,,
,,,,,,,,,,,,5bde3d1a3ec77c0001bddc37,2021-09-27_20h03.34.787,forced_choiceRT_color,2021.2.3,MacIntel,59.84082341,k,2.0574,5,0,5,0,1,,,,,,,,,,,,,,,,
,,,,,,,,,,,,5bde3d1a3ec77c0001bddc37,2021-09-27_20h03.34.787,forced_choiceRT_color,2021.2.3,MacIntel,59.84082341,k,1.8895,6,0,6,0,1,,,,,,,,,,,,,,,,
,,,,,,,,,,,,5bde3d1a3ec77c0001bddc37,2021-09-27_20h03.34.787,forced_choiceRT_color,2021.2.3,MacIntel,59.84082341,k,2.1715,7,0,7,0,1,,,,,,,,,,,,,,,,
,,,,,,,,,,,,5bde3d1a3ec77c0001bddc37,2021-09-27_20h03.34.787,forced_choiceRT_color,2021.2.3,MacIntel,59.84082341,k,2.0284,8,0,8,0,1,,,,,,,,,,,,,,,,
,,,,,,,,,,,,5bde3d1a3ec77c0001bddc37,2021-09-27_20h03.34.787,forced_choiceRT_color,2021.2.3,MacIntel,59.84082341,k,1.9225,9,0,9,0,1,,,,,,,,,,,,,,,,
,,,,,,,,,,,,5bde3d1a3ec77c0001bddc37,2021-09-27_20h03.34.787,forced_choiceRT_color,2021.2.3,MacIntel,59.84082341,k,1.8461,10,0,10,0,1,,,,,,,,,,,,,,,,
,,,,,,,,,,,,5bde3d1a3ec77c0001bddc37,2021-09-27_20h03.34.787,forced_choiceRT_color,2021.2.3,MacIntel,59.84082341,k,1.9594,11,0,11,0,1,,,,,,,,,,,,,,,,
,,,,,,,,,,,,5bde3d1a3ec77c0001bddc37,2021-09-27_20h03.34.787,forced_choiceRT_color,2021.2.3,MacIntel,59.84082341,k,1.9592,12,0,12,0,1,,,,,,,,,,,,,,,,
,,,,,,,,,,,,5bde3d1a3ec77c0001bddc37,2021-09-27_20h03.34.787,forced_choiceRT_color,2021.2.3,MacIntel,59.84082341,k,1.7937,13,0,13,0,1,,,,,,,,,,,,,,,,
,,,,,,,,,,,,5bde3d1a3ec77c0001bddc37,2021-09-27_20h03.34.787,forced_choiceRT_color,2021.2.3,MacIntel,59.84082341,k,1.7799,14,0,14,0,1,,,,,,,,,,,,,,,,
,,,,,,,,,,,,5bde3d1a3ec77c0001bddc37,2021-09-27_20h03.34.787,forced_choiceRT_color,2021.2.3,MacIntel,59.84082341,k,2.0079,15,0,15,0,1,,,,,,,,,,,,,,,,
,,,,,,,,,,,,5bde3d1a3ec77c0001bddc37,2021-09-27_20h03.34.787,forced_choiceRT_color,2021.2.3,MacIntel,59.84082341,k,1.9471,16,0,16,0,1,,,,,,,,,,,,,,,,
,,,,,,,,,,,,5bde3d1a3ec77c0001bddc37,2021-09-27_20h03.34.787,forced_choiceRT_color,2021.2.3,MacIntel,59.84082341,k,1.7927,17,0,17,0,1,,,,,,,,,,,,,,,,
,,,,,,,,,,,,5bde3d1a3ec77c0001bddc37,2021-09-27_20h03.34.787,forced_choiceRT_color,2021.2.3,MacIntel,59.84082341,k,2.1903,18,0,18,0,1,,,,,,,,,,,,,,,,
,,,,,,,,,,,,5bde3d1a3ec77c0001bddc37,2021-09-27_20h03.34.787,forced_choiceRT_color,2021.2.3,MacIntel,59.84082341,k,1.8918,19,0,19,0,1,,,,,,,,,,,,,,,,
,1.85,,,,,,,,,f,blue,5bde3d1a3ec77c0001bddc37,2021-09-27_20h03.34.787,forced_choiceRT_color,2021.2.3,MacIntel,59.84082341,,,,,,,,1,Fast,long,k,0,1.8872,0,0,0,1,1,,,,,
,0.67,,,,,,,,,k,purple,5bde3d1a3ec77c0001bddc37,2021-09-27_20h03.34.787,forced_choiceRT_color,2021.2.3,MacIntel,59.84082341,,,,,,,,1,Fast,long,k,1,1.6061,0,1,1,3,1,,,,,
,1.21,,,,,,,,,f,blue,5bde3d1a3ec77c0001bddc37,2021-09-27_20h03.34.787,forced_choiceRT_color,2021.2.3,MacIntel,59.84082341,,,,,,,,1,Slow,long,f,1,2.1126,0,2,2,1,1,,,,,
,0.61,,,,,,,,,f,blue,5bde3d1a3ec77c0001bddc37,2021-09-27_20h03.34.787,forced_choiceRT_color,2021.2.3,MacIntel,59.84082341,,,,,,,,1,Fast,long,f,1,1.4237,0,3,3,1,1,,,,,
,0.26,,,,,,,,,f,blue,5bde3d1a3ec77c0001bddc37,2021-09-27_20h03.34.787,forced_choiceRT_color,2021.2.3,MacIntel,59.84082341,,,,,,,,1,Fast,long,f,1,1.8935,1,0,4,1,1,,,,,
,1.45,,,,,,,,,f,blue,5bde3d1a3ec77c0001bddc37,2021-09-27_20h03.34.787,forced_choiceRT_color,2021.2.3,MacIntel,59.84082341,,,,,,,,1,Ontime,long,f,1,2.0751,1,1,5,1,1,,,,,
,1.05,,,,,,,,,d,orange,5bde3d1a3ec77c0001bddc37,2021-09-27_20h03.34.787,forced_choiceRT_color,2021.2.3,MacIntel,59.84082341,,,,,,,,1,Ontime,long,d,1,2.0813,1,2,6,0,1,,,,,
,1.63,,,,,,,,,d,orange,5bde3d1a3ec77c0001bddc37,2021-09-27_20h03.34.787,forced_choiceRT_color,2021.2.3,MacIntel,59.84082341,,,,,,,,1,Slow,long,d,1,2.2952,1,3,7,0,1,,,,,
,0.35,,,,,,,,,k,purple,5bde3d1a3ec77c0001bddc37,2021-09-27_20h03.34.787,forced_choiceRT_color,2021.2.3,MacIntel,59.84082341,,,,,,,,1,Fast,long,k,1,1.8263,2,0,8,3,1,,,,,
,0.03,,,,,,,,,d,orange,5bde3d1a3ec77c0001bddc37,2021-09-27_20h03.34.787,forced_choiceRT_color,2021.2.3,MacIntel,59.84082341,,,,,,,,1,Fast,long,d,1,1.8026,2,1,9,0,1,,,,,
,1.75,,,,,,,,,d,orange,5bde3d1a3ec77c0001bddc37,2021-09-27_20h03.34.787,forced_choiceRT_color,2021.2.3,MacIntel,59.84082341,,,,,,,,1,Slow,long,d,1,2.2169,2,2,10,0,1,,,,,
,1.26,,,,,,,,,d,orange,5bde3d1a3ec77c0001bddc37,2021-09-27_20h03.34.787,forced_choiceRT_color,2021.2.3,MacIntel,59.84082341,,,,,,,,1,Ontime,long,d,1,1.9274,2,3,11,0,1,,,,,
,1.29,,,,,,,,,k,purple,5bde3d1a3ec77c0001bddc37,2021-09-27_20h03.34.787,forced_choiceRT_color,2021.2.3,MacIntel,59.84082341,,,,,,,,1,Ontime,long,k,1,2.0301,3,0,12,3,1,,,,,
,1.15,,,,,,,,,d,orange,5bde3d1a3ec77c0001bddc37,2021-09-27_20h03.34.787,forced_choiceRT_color,2021.2.3,MacIntel,59.84082341,,,,,,,,1,Ontime,long,d,1,1.9956,3,1,13,0,1,,,,,
,1.8,,,,,,,,,f,blue,5bde3d1a3ec77c0001bddc37,2021-09-27_20h03.34.787,forced_choiceRT_color,2021.2.3,MacIntel,59.84082341,,,,,,,,1,Slow,long,f,1,2.2614,3,2,14,1,1,,,,,
,1.92,,,,,,,,,j,red,5bde3d1a3ec77c0001bddc37,2021-09-27_20h03.34.787,forced_choiceRT_color,2021.2.3,MacIntel,59.84082341,,,,,,,,1,Slow,long,j,1,2.3268,3,3,15,2,1,,,,,
,1.51,,,,,,,,,k,purple,5bde3d1a3ec77c0001bddc37,2021-09-27_20h03.34.787,forced_choiceRT_color,2021.2.3,MacIntel,59.84082341,,,,,,,,1,Ontime,long,k,1,1.9613,4,0,16,3,1,,,,,
,0.84,,,,,,,,,j,red,5bde3d1a3ec77c0001bddc37,2021-09-27_20h03.34.787,forced_choiceRT_color,2021.2.3,MacIntel,59.84082341,,,,,,,,1,Fast,long,j,1,1.6678,4,1,17,2,1,,,,,
,1.83,,,,,,,,,k,purple,5bde3d1a3ec77c0001bddc37,2021-09-27_20h03.34.787,forced_choiceRT_color,2021.2.3,MacIntel,59.84082341,,,,,,,,1,Slow,long,k,1,2.2603,4,2,18,3,1,,,,,
,1.77,,,,,,,,,d,orange,5bde3d1a3ec77c0001bddc37,2021-09-27_20h03.34.787,forced_choiceRT_color,2021.2.3,MacIntel,59.84082341,,,,,,,,1,Slow,long,f,0,2.2441,4,3,19,0,1,,,,,
,0.47,,,,,,,,,k,purple,5bde3d1a3ec77c0001bddc37,2021-09-27_20h03.34.787,forced_choiceRT_color,2021.2.3,MacIntel,59.84082341,,,,,,,,1,Fast,long,k,1,1.8646,5,0,20,3,1,,,,,
,1.34,,,,,,,,,d,orange,5bde3d1a3ec77c0001bddc37,2021-09-27_20h03.34.787,forced_choiceRT_color,2021.2.3,MacIntel,59.84082341,,,,,,,,1,Ontime,long,d,1,1.9583,5,1,21,0,1,,,,,
,1.56,,,,,,,,,d,orange,5bde3d1a3ec77c0001bddc37,2021-09-27_20h03.34.787,forced_choiceRT_color,2021.2.3,MacIntel,59.84082341,,,,,,,,1,Ontime,long,d,1,2.0484,5,2,22,0,1,,,,,
,0.88,,,,,,,,,k,purple,5bde3d1a3ec77c0001bddc37,2021-09-27_20h03.34.787,forced_choiceRT_color,2021.2.3,MacIntel,59.84082341,,,,,,,,1,Ontime,long,k,1,2.0262,5,3,23,3,1,,,,,
,0.63,,,,,,,,,j,red,5bde3d1a3ec77c0001bddc37,2021-09-27_20h03.34.787,forced_choiceRT_color,2021.2.3,MacIntel,59.84082341,,,,,,,,1,Fast,long,f,0,1.7747,6,0,24,2,1,,,,,
,0,,,,,,,,,j,red,5bde3d1a3ec77c0001bddc37,2021-09-27_20h03.34.787,forced_choiceRT_color,2021.2.3,MacIntel,59.84082341,,,,,,,,1,Ontime,long,j,1,1.9565,6,1,25,2,1,,,,,
,0.05,,,,,,,,,f,blue,5bde3d1a3ec77c0001bddc37,2021-09-27_20h03.34.787,forced_choiceRT_color,2021.2.3,MacIntel,59.84082341,,,,,,,,1,Ontime,long,f,1,1.9407,6,2,26,1,1,,,,,
,1.94,,,,,,,,,f,blue,5bde3d1a3ec77c0001bddc37,2021-09-27_20h03.34.787,forced_choiceRT_color,2021.2.3,MacIntel,59.84082341,,,,,,,,1,Slow,long,d,0,2.3263,6,3,27,1,1,,,,,
,0.54,,,,,,,,,d,orange,5bde3d1a3ec77c0001bddc37,2021-09-27_20h03.34.787,forced_choiceRT_color,2021.2.3,MacIntel,59.84082341,,,,,,,,1,Fast,long,d,1,1.8024,7,0,28,0,1,,,,,
,0.56,,,,,,,,,f,blue,5bde3d1a3ec77c0001bddc37,2021-09-27_20h03.34.787,forced_choiceRT_color,2021.2.3,MacIntel,59.84082341,,,,,,,,1,Ontime,long,j,0,2.0012,7,1,29,1,1,,,,,
,0.7,,,,,,,,,k,purple,5bde3d1a3ec77c0001bddc37,2021-09-27_20h03.34.787,forced_choiceRT_color,2021.2.3,MacIntel,59.84082341,,,,,,,,1,Fast,long,k,1,1.8405,7,2,30,3,1,,,,,
,0.55,,,,,,,,,j,red,5bde3d1a3ec77c0001bddc37,2021-09-27_20h03.34.787,forced_choiceRT_color,2021.2.3,MacIntel,59.84082341,,,,,,,,1,Ontime,long,j,1,1.9267,7,3,31,2,1,,,,,
,1.52,,,,,,,,,j,red,5bde3d1a3ec77c0001bddc37,2021-09-27_20h03.34.787,forced_choiceRT_color,2021.2.3,MacIntel,59.84082341,,,,,,,,1,Ontime,long,j,1,2.0761,8,0,32,2,1,,,,,
,1.8,,,,,,,,,j,red,5bde3d1a3ec77c0001bddc37,2021-09-27_20h03.34.787,forced_choiceRT_color,2021.2.3,MacIntel,59.84082341,,,,,,,,1,Slow,long,j,1,2.2914,8,1,33,2,1,,,,,
,1.46,,,,,,,,,j,red,5bde3d1a3ec77c0001bddc37,2021-09-27_20h03.34.787,forced_choiceRT_color,2021.2.3,MacIntel,59.84082341,,,,,,,,1,Ontime,long,j,1,1.9112,8,2,34,2,1,,,,,
,0.57,,,,,,,,,j,red,5bde3d1a3ec77c0001bddc37,2021-09-27_20h03.34.787,forced_choiceRT_color,2021.2.3,MacIntel,59.84082341,,,,,,,,1,Ontime,long,j,1,1.9188,8,3,35,2,1,,,,,
,1.77,,,,,,,,,k,purple,5bde3d1a3ec77c0001bddc37,2021-09-27_20h03.34.787,forced_choiceRT_color,2021.2.3,MacIntel,59.84082341,,,,,,,,1,Slow,long,k,1,2.2557,9,0,36,3,1,,,,,
,0.08,,,,,,,,,k,purple,5bde3d1a3ec77c0001bddc37,2021-09-27_20h03.34.787,forced_choiceRT_color,2021.2.3,MacIntel,59.84082341,,,,,,,,1,Ontime,long,k,1,1.9237,9,1,37,3,1,,,,,
,1.3,,,,,,,,,j,red,5bde3d1a3ec77c0001bddc37,2021-09-27_20h03.34.787,forced_choiceRT_color,2021.2.3,MacIntel,59.84082341,,,,,,,,1,Fast,long,j,1,1.8957,9,2,38,2,1,,,,,
,0.49,,,,,,,,,f,blue,5bde3d1a3ec77c0001bddc37,2021-09-27_20h03.34.787,forced_choiceRT_color,2021.2.3,MacIntel,59.84082341,,,,,,,,1,Fast,long,f,1,1.8512,9,3,39,1,1,,,,,
,,,,,,,,,,,,5bde3d1a3ec77c0001bddc37,2021-09-27_20h03.34.787,forced_choiceRT_color,2021.2.3,MacIntel,59.84082341,,,,,,,,,,,,,,,,,,,0,0,0,0,1
,1.39,,,,,,,,,j,red,5bde3d1a3ec77c0001bddc37,2021-09-27_20h03.34.787,forced_choiceRT_color,2021.2.3,MacIntel,59.84082341,,,,,,,,2,Ontime,long,j,1,1.9906,0,0,0,2,1,,,,,
,0.54,,,,,,,,,k,purple,5bde3d1a3ec77c0001bddc37,2021-09-27_20h03.34.787,forced_choiceRT_color,2021.2.3,MacIntel,59.84082341,,,,,,,,2,Ontime,long,k,1,1.9817,0,1,1,3,1,,,,,
,0.9,,,,,,,,,j,red,5bde3d1a3ec77c0001bddc37,2021-09-27_20h03.34.787,forced_choiceRT_color,2021.2.3,MacIntel,59.84082341,,,,,,,,2,Fast,long,j,1,1.8472,0,2,2,2,1,,,,,
,0.56,,,,,,,,,d,orange,5bde3d1a3ec77c0001bddc37,2021-09-27_20h03.34.787,forced_choiceRT_color,2021.2.3,MacIntel,59.84082341,,,,,,,,2,Ontime,long,d,1,1.9519,0,3,3,0,1,,,,,
,0.76,,,,,,,,,f,blue,5bde3d1a3ec77c0001bddc37,2021-09-27_20h03.34.787,forced_choiceRT_color,2021.2.3,MacIntel,59.84082341,,,,,,,,2,Ontime,long,f,1,1.9743,1,0,4,1,1,,,,,
,1.73,,,,,,,,,d,orange,5bde3d1a3ec77c0001bddc37,2021-09-27_20h03.34.787,forced_choiceRT_color,2021.2.3,MacIntel,59.84082341,,,,,,,,2,Slow,long,f,0,2.2986,1,1,5,0,1,,,,,
,0.13,,,,,,,,,d,orange,5bde3d1a3ec77c0001bddc37,2021-09-27_20h03.34.787,forced_choiceRT_color,2021.2.3,MacIntel,59.84082341,,,,,,,,2,Ontime,long,d,1,1.9281,1,2,6,0,1,,,,,
,1.1,,,,,,,,,f,blue,5bde3d1a3ec77c0001bddc37,2021-09-27_20h03.34.787,forced_choiceRT_color,2021.2.3,MacIntel,59.84082341,,,,,,,,2,Ontime,long,j,0,2.0738,1,3,7,1,1,,,,,
,1.84,,,,,,,,,k,purple,5bde3d1a3ec77c0001bddc37,2021-09-27_20h03.34.787,forced_choiceRT_color,2021.2.3,MacIntel,59.84082341,,,,,,,,2,Slow,long,k,1,2.3455,2,0,8,3,1,,,,,
,1.1,,,,,,,,,f,blue,5bde3d1a3ec77c0001bddc37,2021-09-27_20h03.34.787,forced_choiceRT_color,2021.2.3,MacIntel,59.84082341,,,,,,,,2,Fast,long,j,0,1.8424,2,1,9,1,1,,,,,
,1.65,,,,,,,,,k,purple,5bde3d1a3ec77c0001bddc37,2021-09-27_20h03.34.787,forced_choiceRT_color,2021.2.3,MacIntel,59.84082341,,,,,,,,2,Slow,long,k,1,2.1085,2,2,10,3,1,,,,,
,1.61,,,,,,,,,j,red,5bde3d1a3ec77c0001bddc37,2021-09-27_20h03.34.787,forced_choiceRT_color,2021.2.3,MacIntel,59.84082341,,,,,,,,2,Slow,long,j,1,2.1562,2,3,11,2,1,,,,,
,0.61,,,,,,,,,d,orange,5bde3d1a3ec77c0001bddc37,2021-09-27_20h03.34.787,forced_choiceRT_color,2021.2.3,MacIntel,59.84082341,,,,,,,,2,Ontime,long,d,1,2.0063,3,0,12,0,1,,,,,
,1.59,,,,,,,,,k,purple,5bde3d1a3ec77c0001bddc37,2021-09-27_20h03.34.787,forced_choiceRT_color,2021.2.3,MacIntel,59.84082341,,,,,,,,2,Slow,long,k,1,2.1708,3,1,13,3,1,,,,,
,1.25,,,,,,,,,k,purple,5bde3d1a3ec77c0001bddc37,2021-09-27_20h03.34.787,forced_choiceRT_color,2021.2.3,MacIntel,59.84082341,,,,,,,,2,Fast,long,k,1,1.807,3,2,14,3,1,,,,,
,0.54,,,,,,,,,d,orange,5bde3d1a3ec77c0001bddc37,2021-09-27_20h03.34.787,forced_choiceRT_color,2021.2.3,MacIntel,59.84082341,,,,,,,,2,Ontime,long,d,1,1.9106,3,3,15,0,1,,,,,
,0.37,,,,,,,,,f,blue,5bde3d1a3ec77c0001bddc37,2021-09-27_20h03.34.787,forced_choiceRT_color,2021.2.3,MacIntel,59.84082341,,,,,,,,2,Fast,long,d,0,1.7927,4,0,16,1,1,,,,,
,1.48,,,,,,,,,f,blue,5bde3d1a3ec77c0001bddc37,2021-09-27_20h03.34.787,forced_choiceRT_color,2021.2.3,MacIntel,59.84082341,,,,,,,,2,Ontime,long,f,1,2.0506,4,1,17,1,1,,,,,
,0.05,,,,,,,,,j,red,5bde3d1a3ec77c0001bddc37,2021-09-27_20h03.34.787,forced_choiceRT_color,2021.2.3,MacIntel,59.84082341,,,,,,,,2,Fast,long,j,1,1.8056,4,2,18,2,1,,,,,
,1.72,,,,,,,,,j,red,5bde3d1a3ec77c0001bddc37,2021-09-27_20h03.34.787,forced_choiceRT_color,2021.2.3,MacIntel,59.84082341,,,,,,,,2,Slow,long,j,1,2.1723,4,3,19,2,1,,,,,
,1.29,,,,,,,,,f,blue,5bde3d1a3ec77c0001bddc37,2021-09-27_20h03.34.787,forced_choiceRT_color,2021.2.3,MacIntel,59.84082341,,,,,,,,2,Ontime,long,d,0,2.0745,5,0,20,1,1,,,,,
,1.92,,,,,,,,,k,purple,5bde3d1a3ec77c0001bddc37,2021-09-27_20h03.34.787,forced_choiceRT_color,2021.2.3,MacIntel,59.84082341,,,,,,,,2,Slow,long,k,1,2.4138,5,1,21,3,1,,,,,
,1.14,,,,,,,,,f,blue,5bde3d1a3ec77c0001bddc37,2021-09-27_20h03.34.787,forced_choiceRT_color,2021.2.3,MacIntel,59.84082341,,,,,,,,2,Ontime,long,j,0,1.9177,5,2,22,1,1,,,,,
,0.95,,,,,,,,,j,red,5bde3d1a3ec77c0001bddc37,2021-09-27_20h03.34.787,forced_choiceRT_color,2021.2.3,MacIntel,59.84082341,,,,,,,,2,Fast,long,j,1,1.8872,5,3,23,2,1,,,,,
,1.36,,,,,,,,,k,purple,5bde3d1a3ec77c0001bddc37,2021-09-27_20h03.34.787,forced_choiceRT_color,2021.2.3,MacIntel,59.84082341,,,,,,,,2,Ontime,long,k,1,1.9237,6,0,24,3,1,,,,,
,1.99,,,,,,,,,k,purple,5bde3d1a3ec77c0001bddc37,2021-09-27_20h03.34.787,forced_choiceRT_color,2021.2.3,MacIntel,59.84082341,,,,,,,,2,Slow,long,f,0,2.2582,6,1,25,3,1,,,,,
,0.59,,,,,,,,,j,red,5bde3d1a3ec77c0001bddc37,2021-09-27_20h03.34.787,forced_choiceRT_color,2021.2.3,MacIntel,59.84082341,,,,,,,,2,Ontime,long,j,1,1.9107,6,2,26,2,1,,,,,
,1.45,,,,,,,,,d,orange,5bde3d1a3ec77c0001bddc37,2021-09-27_20h03.34.787,forced_choiceRT_color,2021.2.3,MacIntel,59.84082341,,,,,,,,2,Ontime,long,d,1,2.0631,6,3,27,0,1,,,,,
,0.4,,,,,,,,,f,blue,5bde3d1a3ec77c0001bddc37,2021-09-27_20h03.34.787,forced_choiceRT_color,2021.2.3,MacIntel,59.84082341,,,,,,,,2,Slow,long,f,1,2.2442,7,0,28,1,1,,,,,
,0.56,,,,,,,,,j,red,5bde3d1a3ec77c0001bddc37,2021-09-27_20h03.34.787,forced_choiceRT_color,2021.2.3,MacIntel,59.84082341,,,,,,,,2,Fast,long,j,1,1.8792,7,1,29,2,1,,,,,
,0.36,,,,,,,,,j,red,5bde3d1a3ec77c0001bddc37,2021-09-27_20h03.34.787,forced_choiceRT_color,2021.2.3,MacIntel,59.84082341,,,,,,,,2,Ontime,long,j,1,2.0511,7,2,30,2,1,,,,,
,1.23,,,,,,,,,d,orange,5bde3d1a3ec77c0001bddc37,2021-09-27_20h03.34.787,forced_choiceRT_color,2021.2.3,MacIntel,59.84082341,,,,,,,,2,Ontime,long,d,1,1.9742,7,3,31,0,1,,,,,
,1.8,,,,,,,,,j,red,5bde3d1a3ec77c0001bddc37,2021-09-27_20h03.34.787,forced_choiceRT_color,2021.2.3,MacIntel,59.84082341,,,,,,,,2,Slow,long,j,1,2.3327,8,0,32,2,1,,,,,
,0.18,,,,,,,,,f,blue,5bde3d1a3ec77c0001bddc37,2021-09-27_20h03.34.787,forced_choiceRT_color,2021.2.3,MacIntel,59.84082341,,,,,,,,2,Fast,long,f,1,1.893,8,1,33,1,1,,,,,
,0.57,,,,,,,,,k,purple,5bde3d1a3ec77c0001bddc37,2021-09-27_20h03.34.787,forced_choiceRT_color,2021.2.3,MacIntel,59.84082341,,,,,,,,2,Ontime,long,k,1,1.9575,8,2,34,3,1,,,,,
,1.7,,,,,,,,,d,orange,5bde3d1a3ec77c0001bddc37,2021-09-27_20h03.34.787,forced_choiceRT_color,2021.2.3,MacIntel,59.84082341,,,,,,,,2,Slow,long,d,1,2.1756,8,3,35,0,1,,,,,
,1.23,,,,,,,,,f,blue,5bde3d1a3ec77c0001bddc37,2021-09-27_20h03.34.787,forced_choiceRT_color,2021.2.3,MacIntel,59.84082341,,,,,,,,2,Fast,long,j,0,1.8269,9,0,36,1,1,,,,,
,0.48,,,,,,,,,d,orange,5bde3d1a3ec77c0001bddc37,2021-09-27_20h03.34.787,forced_choiceRT_color,2021.2.3,MacIntel,59.84082341,,,,,,,,2,Ontime,long,d,1,1.9254,9,1,37,0,1,,,,,
,1.3,,,,,,,,,d,orange,5bde3d1a3ec77c0001bddc37,2021-09-27_20h03.34.787,forced_choiceRT_color,2021.2.3,MacIntel,59.84082341,,,,,,,,2,Ontime,long,d,1,2.0061,9,2,38,0,1,,,,,
,1.72,,,,,,,,,k,purple,5bde3d1a3ec77c0001bddc37,2021-09-27_20h03.34.787,forced_choiceRT_color,2021.2.3,MacIntel,59.84082341,,,,,,,,2,Slow,long,k,1,2.1799,9,3,39,3,1,,,,,
,,,,,,,,,,,,5bde3d1a3ec77c0001bddc37,2021-09-27_20h03.34.787,forced_choiceRT_color,2021.2.3,MacIntel,59.84082341,,,,,,,,,,,,,,,,,,,1,0,1,0,1
,1.91,,,,,,,,,d,orange,5bde3d1a3ec77c0001bddc37,2021-09-27_20h03.34.787,forced_choiceRT_color,2021.2.3,MacIntel,59.84082341,,,,,,,,3,Slow,long,d,1,2.5126,0,0,0,0,1,,,,,
,0.76,,,,,,,,,j,red,5bde3d1a3ec77c0001bddc37,2021-09-27_20h03.34.787,forced_choiceRT_color,2021.2.3,MacIntel,59.84082341,,,,,,,,3,Fast,long,j,1,1.7732,0,1,1,2,1,,,,,
,0.47,,,,,,,,,j,red,5bde3d1a3ec77c0001bddc37,2021-09-27_20h03.34.787,forced_choiceRT_color,2021.2.3,MacIntel,59.84082341,,,,,,,,3,Ontime,long,j,1,2.0106,0,2,2,2,1,,,,,
,1.52,,,,,,,,,d,orange,5bde3d1a3ec77c0001bddc37,2021-09-27_20h03.34.787,forced_choiceRT_color,2021.2.3,MacIntel,59.84082341,,,,,,,,3,Ontime,long,d,1,2.0438,0,3,3,0,1,,,,,
,0.21,,,,,,,,,d,orange,5bde3d1a3ec77c0001bddc37,2021-09-27_20h03.34.787,forced_choiceRT_color,2021.2.3,MacIntel,59.84082341,,,,,,,,3,Ontime,long,d,1,2.0076,1,0,4,0,1,,,,,
,0.2,,,,,,,,,d,orange,5bde3d1a3ec77c0001bddc37,2021-09-27_20h03.34.787,forced_choiceRT_color,2021.2.3,MacIntel,59.84082341,,,,,,,,3,Fast,long,d,1,1.8406,1,1,5,0,1,,,,,
,1.02,,,,,,,,,k,purple,5bde3d1a3ec77c0001bddc37,2021-09-27_20h03.34.787,forced_choiceRT_color,2021.2.3,MacIntel,59.84082341,,,,,,,,3,Ontime,long,k,1,1.9772,1,2,6,3,1,,,,,
,0.83,,,,,,,,,k,purple,5bde3d1a3ec77c0001bddc37,2021-09-27_20h03.34.787,forced_choiceRT_color,2021.2.3,MacIntel,59.84082341,,,,,,,,3,Ontime,long,k,1,1.9582,1,3,7,3,1,,,,,
,1.31,,,,,,,,,d,orange,5bde3d1a3ec77c0001bddc37,2021-09-27_20h03.34.787,forced_choiceRT_color,2021.2.3,MacIntel,59.84082341,,,,,,,,3,Ontime,long,d,1,2.0645,2,0,8,0,1,,,,,
,1.57,,,,,,,,,j,red,5bde3d1a3ec77c0001bddc37,2021-09-27_20h03.34.787,forced_choiceRT_color,2021.2.3,MacIntel,59.84082341,,,,,,,,3,Ontime,long,f,0,2.0448,2,1,9,2,1,,,,,
,0.97,,,,,,,,,j,red,5bde3d1a3ec77c0001bddc37,2021-09-27_20h03.34.787,forced_choiceRT_color,2021.2.3,MacIntel,59.84082341,,,,,,,,3,Ontime,long,j,1,1.9099,2,2,10,2,1,,,,,
,1.9,,,,,,,,,j,red,5bde3d1a3ec77c0001bddc37,2021-09-27_20h03.34.787,forced_choiceRT_color,2021.2.3,MacIntel,59.84082341,,,,,,,,3,Slow,long,j,1,2.3077,2,3,11,2,1,,,,,
,1.73,,,,,,,,,k,purple,5bde3d1a3ec77c0001bddc37,2021-09-27_20h03.34.787,forced_choiceRT_color,2021.2.3,MacIntel,59.84082341,,,,,,,,3,Slow,long,j,0,2.2403,3,0,12,3,1,,,,,
,0.96,,,,,,,,,f,blue,5bde3d1a3ec77c0001bddc37,2021-09-27_20h03.34.787,forced_choiceRT_color,2021.2.3,MacIntel,59.84082341,,,,,,,,3,Fast,long,f,1,1.8573,3,1,13,1,1,,,,,
,1.9,,,,,,,,,k,purple,5bde3d1a3ec77c0001bddc37,2021-09-27_20h03.34.787,forced_choiceRT_color,2021.2.3,MacIntel,59.84082341,,,,,,,,3,Slow,long,k,1,2.3824,3,2,14,3,1,,,,,
,1.92,,,,,,,,,k,purple,5bde3d1a3ec77c0001bddc37,2021-09-27_20h03.34.787,forced_choiceRT_color,2021.2.3,MacIntel,59.84082341,,,,,,,,3,Slow,long,k,1,2.4018,3,3,15,3,1,,,,,
,0.85,,,,,,,,,f,blue,5bde3d1a3ec77c0001bddc37,2021-09-27_20h03.34.787,forced_choiceRT_color,2021.2.3,MacIntel,59.84082341,,,,,,,,3,Fast,long,f,1,1.8764,4,0,16,1,1,,,,,
,1.44,,,,,,,,,k,purple,5bde3d1a3ec77c0001bddc37,2021-09-27_20h03.34.787,forced_choiceRT_color,2021.2.3,MacIntel,59.84082341,,,,,,,,3,Slow,long,k,1,2.262,4,1,17,3,1,,,,,
,0.35,,,,,,,,,f,blue,5bde3d1a3ec77c0001bddc37,2021-09-27_20h03.34.787,forced_choiceRT_color,2021.2.3,MacIntel,59.84082341,,,,,,,,3,Fast,long,f,1,1.8771,4,2,18,1,1,,,,,
,1.79,,,,,,,,,f,blue,5bde3d1a3ec77c0001bddc37,2021-09-27_20h03.34.787,forced_choiceRT_color,2021.2.3,MacIntel,59.84082341,,,,,,,,3,Slow,long,f,1,2.3859,4,3,19,1,1,,,,,
,1.22,,,,,,,,,d,orange,5bde3d1a3ec77c0001bddc37,2021-09-27_20h03.34.787,forced_choiceRT_color,2021.2.3,MacIntel,59.84082341,,,,,,,,3,Fast,long,d,1,1.7925,5,0,20,0,1,,,,,
,0.38,,,,,,,,,j,red,5bde3d1a3ec77c0001bddc37,2021-09-27_20h03.34.787,forced_choiceRT_color,2021.2.3,MacIntel,59.84082341,,,,,,,,3,Fast,long,j,1,1.8252,5,1,21,2,1,,,,,
,0.9,,,,,,,,,j,red,5bde3d1a3ec77c0001bddc37,2021-09-27_20h03.34.787,forced_choiceRT_color,2021.2.3,MacIntel,59.84082341,,,,,,,,3,Ontime,long,j,1,1.9451,5,2,22,2,1,,,,,
,1.39,,,,,,,,,d,orange,5bde3d1a3ec77c0001bddc37,2021-09-27_20h03.34.787,forced_choiceRT_color,2021.2.3,MacIntel,59.84082341,,,,,,,,3,Ontime,long,d,1,1.9697,5,3,23,0,1,,,,,
,1.89,,,,,,,,,j,red,5bde3d1a3ec77c0001bddc37,2021-09-27_20h03.34.787,forced_choiceRT_color,2021.2.3,MacIntel,59.84082341,,,,,,,,3,Slow,long,j,1,2.2667,6,0,24,2,1,,,,,
,1.17,,,,,,,,,f,blue,5bde3d1a3ec77c0001bddc37,2021-09-27_20h03.34.787,forced_choiceRT_color,2021.2.3,MacIntel,59.84082341,,,,,,,,3,Ontime,long,f,1,1.9758,6,1,25,1,1,,,,,
,1.2,,,,,,,,,d,orange,5bde3d1a3ec77c0001bddc37,2021-09-27_20h03.34.787,forced_choiceRT_color,2021.2.3,MacIntel,59.84082341,,,,,,,,3,Fast,long,d,1,1.7823,6,2,26,0,1,,,,,
,1.43,,,,,,,,,f,blue,5bde3d1a3ec77c0001bddc37,2021-09-27_20h03.34.787,forced_choiceRT_color,2021.2.3,MacIntel,59.84082341,,,,,,,,3,Ontime,long,f,1,2.0912,6,3,27,1,1,,,,,
,0.93,,,,,,,,,k,purple,5bde3d1a3ec77c0001bddc37,2021-09-27_20h03.34.787,forced_choiceRT_color,2021.2.3,MacIntel,59.84082341,,,,,,,,3,Fast,long,k,1,1.8559,7,0,28,3,1,,,,,
,1.54,,,,,,,,,d,orange,5bde3d1a3ec77c0001bddc37,2021-09-27_20h03.34.787,forced_choiceRT_color,2021.2.3,MacIntel,59.84082341,,,,,,,,3,Slow,long,d,1,2.1946,7,1,29,0,1,,,,,
,0.95,,,,,,,,,j,red,5bde3d1a3ec77c0001bddc37,2021-09-27_20h03.34.787,forced_choiceRT_color,2021.2.3,MacIntel,59.84082341,,,,,,,,3,Ontime,long,j,1,1.9181,7,2,30,2,1,,,,,
,1.92,,,,,,,,,f,blue,5bde3d1a3ec77c0001bddc37,2021-09-27_20h03.34.787,forced_choiceRT_color,2021.2.3,MacIntel,59.84082341,,,,,,,,3,Slow,long,f,1,2.2912,7,3,31,1,1,,,,,
,1.39,,,,,,,,,d,orange,5bde3d1a3ec77c0001bddc37,2021-09-27_20h03.34.787,forced_choiceRT_color,2021.2.3,MacIntel,59.84082341,,,,,,,,3,Ontime,long,d,1,1.9741,8,0,32,0,1,,,,,
,0.65,,,,,,,,,f,blue,5bde3d1a3ec77c0001bddc37,2021-09-27_20h03.34.787,forced_choiceRT_color,2021.2.3,MacIntel,59.84082341,,,,,,,,3,Ontime,long,f,1,2.0261,8,1,33,1,1,,,,,
,1.18,,,,,,,,,f,blue,5bde3d1a3ec77c0001bddc37,2021-09-27_20h03.34.787,forced_choiceRT_color,2021.2.3,MacIntel,59.84082341,,,,,,,,3,Ontime,long,f,1,2.0078,8,2,34,1,1,,,,,
,1.74,,,,,,,,,j,red,5bde3d1a3ec77c0001bddc37,2021-09-27_20h03.34.787,forced_choiceRT_color,2021.2.3,MacIntel,59.84082341,,,,,,,,3,Ontime,long,f,0,2.0788,8,3,35,2,1,,,,,
,0.76,,,,,,,,,k,purple,5bde3d1a3ec77c0001bddc37,2021-09-27_20h03.34.787,forced_choiceRT_color,2021.2.3,MacIntel,59.84082341,,,,,,,,3,Ontime,long,k,1,1.9226,9,0,36,3,1,,,,,
,0.43,,,,,,,,,k,purple,5bde3d1a3ec77c0001bddc37,2021-09-27_20h03.34.787,forced_choiceRT_color,2021.2.3,MacIntel,59.84082341,,,,,,,,3,Ontime,long,k,1,1.9053,9,1,37,3,1,,,,,
,1.52,,,,,,,,,k,purple,5bde3d1a3ec77c0001bddc37,2021-09-27_20h03.34.787,forced_choiceRT_color,2021.2.3,MacIntel,59.84082341,,,,,,,,3,Ontime,long,k,1,2.0248,9,2,38,3,1,,,,,
,1.79,,,,,,,,,f,blue,5bde3d1a3ec77c0001bddc37,2021-09-27_20h03.34.787,forced_choiceRT_color,2021.2.3,MacIntel,59.84082341,,,,,,,,3,Slow,long,f,1,2.2869,9,3,39,1,1,,,,,
,,,,,,,,,,,,5bde3d1a3ec77c0001bddc37,2021-09-27_20h03.34.787,forced_choiceRT_color,2021.2.3,MacIntel,59.84082341,,,,,,,,,,,,,,,,,,,2,0,2,0,1
,1.4,,,,,,,,,d,orange,5bde3d1a3ec77c0001bddc37,2021-09-27_20h03.34.787,forced_choiceRT_color,2021.2.3,MacIntel,59.84082341,,,,,,,,4,Ontime,long,d,1,1.912,0,0,0,0,1,,,,,
,0.78,,,,,,,,,d,orange,5bde3d1a3ec77c0001bddc37,2021-09-27_20h03.34.787,forced_choiceRT_color,2021.2.3,MacIntel,59.84082341,,,,,,,,4,Ontime,long,d,1,1.9479,0,1,1,0,1,,,,,
,0.66,,,,,,,,,j,red,5bde3d1a3ec77c0001bddc37,2021-09-27_20h03.34.787,forced_choiceRT_color,2021.2.3,MacIntel,59.84082341,,,,,,,,4,Fast,long,j,1,1.8461,0,2,2,2,1,,,,,
,0.88,,,,,,,,,f,blue,5bde3d1a3ec77c0001bddc37,2021-09-27_20h03.34.787,forced_choiceRT_color,2021.2.3,MacIntel,59.84082341,,,,,,,,4,Fast,long,f,1,1.7896,0,3,3,1,1,,,,,
,0.43,,,,,,,,,j,red,5bde3d1a3ec77c0001bddc37,2021-09-27_20h03.34.787,forced_choiceRT_color,2021.2.3,MacIntel,59.84082341,,,,,,,,4,Ontime,long,j,1,1.9568,1,0,4,2,1,,,,,
,0.89,,,,,,,,,f,blue,5bde3d1a3ec77c0001bddc37,2021-09-27_20h03.34.787,forced_choiceRT_color,2021.2.3,MacIntel,59.84082341,,,,,,,,4,Ontime,long,f,1,1.9925,1,1,5,1,1,,,,,
,0,,,,,,,,,k,purple,5bde3d1a3ec77c0001bddc37,2021-09-27_20h03.34.787,forced_choiceRT_color,2021.2.3,MacIntel,59.84082341,,,,,,,,4,Fast,long,k,1,1.8263,1,2,6,3,1,,,,,
,0.25,,,,,,,,,f,blue,5bde3d1a3ec77c0001bddc37,2021-09-27_20h03.34.787,forced_choiceRT_color,2021.2.3,MacIntel,59.84082341,,,,,,,,4,Ontime,long,f,1,1.9599,1,3,7,1,1,,,,,
,0.11,,,,,,,,,k,purple,5bde3d1a3ec77c0001bddc37,2021-09-27_20h03.34.787,forced_choiceRT_color,2021.2.3,MacIntel,59.84082341,,,,,,,,4,Ontime,long,k,1,1.9751,2,0,8,3,1,,,,,
,1.12,,,,,,,,,f,blue,5bde3d1a3ec77c0001bddc37,2021-09-27_20h03.34.787,forced_choiceRT_color,2021.2.3,MacIntel,59.84082341,,,,,,,,4,Ontime,long,f,1,1.9724,2,1,9,1,1,,,,,
,0.53,,,,,,,,,f,blue,5bde3d1a3ec77c0001bddc37,2021-09-27_20h03.34.787,forced_choiceRT_color,2021.2.3,MacIntel,59.84082341,,,,,,,,4,Ontime,long,f,1,1.9766,2,2,10,1,1,,,,,
,0.27,,,,,,,,,j,red,5bde3d1a3ec77c0001bddc37,2021-09-27_20h03.34.787,forced_choiceRT_color,2021.2.3,MacIntel,59.84082341,,,,,,,,4,Fast,long,j,1,1.8092,2,3,11,2,1,,,,,
,0.33,,,,,,,,,d,orange,5bde3d1a3ec77c0001bddc37,2021-09-27_20h03.34.787,forced_choiceRT_color,2021.2.3,MacIntel,59.84082341,,,,,,,,4,Fast,long,d,1,1.8233,3,0,12,0,1,,,,,
,0.21,,,,,,,,,k,purple,5bde3d1a3ec77c0001bddc37,2021-09-27_20h03.34.787,forced_choiceRT_color,2021.2.3,MacIntel,59.84082341,,,,,,,,4,Ontime,long,k,1,1.9738,3,1,13,3,1,,,,,
,0.71,,,,,,,,,f,blue,5bde3d1a3ec77c0001bddc37,2021-09-27_20h03.34.787,forced_choiceRT_color,2021.2.3,MacIntel,59.84082341,,,,,,,,4,Fast,long,f,1,1.8289,3,2,14,1,1,,,,,
,1.7,,,,,,,,,k,purple,5bde3d1a3ec77c0001bddc37,2021-09-27_20h03.34.787,forced_choiceRT_color,2021.2.3,MacIntel,59.84082341,,,,,,,,4,Slow,long,k,1,2.2075,3,3,15,3,1,,,,,
,0.43,,,,,,,,,d,orange,5bde3d1a3ec77c0001bddc37,2021-09-27_20h03.34.787,forced_choiceRT_color,2021.2.3,MacIntel,59.84082341,,,,,,,,4,Ontime,long,d,1,1.9286,4,0,16,0,1,,,,,
,1.81,,,,,,,,,j,red,5bde3d1a3ec77c0001bddc37,2021-09-27_20h03.34.787,forced_choiceRT_color,2021.2.3,MacIntel,59.84082341,,,,,,,,4,Slow,long,j,1,2.2505,4,1,17,2,1,,,,,
,0.84,,,,,,,,,d,orange,5bde3d1a3ec77c0001bddc37,2021-09-27_20h03.34.787,forced_choiceRT_color,2021.2.3,MacIntel,59.84082341,,,,,,,,4,Fast,long,d,1,1.8929,4,2,18,0,1,,,,,
,0.2,,,,,,,,,k,purple,5bde3d1a3ec77c0001bddc37,2021-09-27_20h03.34.787,forced_choiceRT_color,2021.2.3,MacIntel,59.84082341,,,,,,,,4,Ontime,long,k,1,1.9612,4,3,19,3,1,,,,,
,1.22,,,,,,,,,k,purple,5bde3d1a3ec77c0001bddc37,2021-09-27_20h03.34.787,forced_choiceRT_color,2021.2.3,MacIntel,59.84082341,,,,,,,,4,Ontime,long,k,1,1.9063,5,0,20,3,1,,,,,
,0.47,,,,,,,,,d,orange,5bde3d1a3ec77c0001bddc37,2021-09-27_20h03.34.787,forced_choiceRT_color,2021.2.3,MacIntel,59.84082341,,,,,,,,4,Ontime,long,d,1,1.956,5,1,21,0,1,,,,,
,1.12,,,,,,,,,k,purple,5bde3d1a3ec77c0001bddc37,2021-09-27_20h03.34.787,forced_choiceRT_color,2021.2.3,MacIntel,59.84082341,,,,,,,,4,Fast,long,k,1,1.8915,5,2,22,3,1,,,,,
,0.35,,,,,,,,,d,orange,5bde3d1a3ec77c0001bddc37,2021-09-27_20h03.34.787,forced_choiceRT_color,2021.2.3,MacIntel,59.84082341,,,,,,,,4,Ontime,long,d,1,2.0239,5,3,23,0,1,,,,,
,1.24,,,,,,,,,d,orange,5bde3d1a3ec77c0001bddc37,2021-09-27_20h03.34.787,forced_choiceRT_color,2021.2.3,MacIntel,59.84082341,,,,,,,,4,Ontime,long,d,1,1.9913,6,0,24,0,1,,,,,
,0.56,,,,,,,,,d,orange,5bde3d1a3ec77c0001bddc37,2021-09-27_20h03.34.787,forced_choiceRT_color,2021.2.3,MacIntel,59.84082341,,,,,,,,4,Ontime,long,d,1,1.9476,6,1,25,0,1,,,,,
,0.51,,,,,,,,,j,red,5bde3d1a3ec77c0001bddc37,2021-09-27_20h03.34.787,forced_choiceRT_color,2021.2.3,MacIntel,59.84082341,,,,,,,,4,Ontime,long,j,1,1.9919,6,2,26,2,1,,,,,
,0.94,,,,,,,,,j,red,5bde3d1a3ec77c0001bddc37,2021-09-27_20h03.34.787,forced_choiceRT_color,2021.2.3,MacIntel,59.84082341,,,,,,,,4,Ontime,long,j,1,2.0744,6,3,27,2,1,,,,,
,0.73,,,,,,,,,k,purple,5bde3d1a3ec77c0001bddc37,2021-09-27_20h03.34.787,forced_choiceRT_color,2021.2.3,MacIntel,59.84082341,,,,,,,,4,Ontime,long,k,1,1.9103,7,0,28,3,1,,,,,
,0.78,,,,,,,,,f,blue,5bde3d1a3ec77c0001bddc37,2021-09-27_20h03.34.787,forced_choiceRT_color,2021.2.3,MacIntel,59.84082341,,,,,,,,4,Ontime,long,f,1,2.0239,7,1,29,1,1,,,,,
,0.52,,,,,,,,,j,red,5bde3d1a3ec77c0001bddc37,2021-09-27_20h03.34.787,forced_choiceRT_color,2021.2.3,MacIntel,59.84082341,,,,,,,,4,Ontime,long,j,1,1.9071,7,2,30,2,1,,,,,
,1.79,,,,,,,,,d,orange,5bde3d1a3ec77c0001bddc37,2021-09-27_20h03.34.787,forced_choiceRT_color,2021.2.3,MacIntel,59.84082341,,,,,,,,4,Slow,long,k,0,2.2458,7,3,31,0,1,,,,,
,0.96,,,,,,,,,f,blue,5bde3d1a3ec77c0001bddc37,2021-09-27_20h03.34.787,forced_choiceRT_color,2021.2.3,MacIntel,59.84082341,,,,,,,,4,Ontime,long,f,1,1.962,8,0,32,1,1,,,,,
,0.29,,,,,,,,,j,red,5bde3d1a3ec77c0001bddc37,2021-09-27_20h03.34.787,forced_choiceRT_color,2021.2.3,MacIntel,59.84082341,,,,,,,,4,Ontime,long,j,1,1.9634,8,1,33,2,1,,,,,
,0.65,,,,,,,,,f,blue,5bde3d1a3ec77c0001bddc37,2021-09-27_20h03.34.787,forced_choiceRT_color,2021.2.3,MacIntel,59.84082341,,,,,,,,4,Fast,long,f,1,1.8646,8,2,34,1,1,,,,,
,0.74,,,,,,,,,j,red,5bde3d1a3ec77c0001bddc37,2021-09-27_20h03.34.787,forced_choiceRT_color,2021.2.3,MacIntel,59.84082341,,,,,,,,4,Ontime,long,f,0,2.0143,8,3,35,2,1,,,,,
,1.09,,,,,,,,,f,blue,5bde3d1a3ec77c0001bddc37,2021-09-27_20h03.34.787,forced_choiceRT_color,2021.2.3,MacIntel,59.84082341,,,,,,,,4,Ontime,long,f,1,2.0407,9,0,36,1,1,,,,,
,0.11,,,,,,,,,k,purple,5bde3d1a3ec77c0001bddc37,2021-09-27_20h03.34.787,forced_choiceRT_color,2021.2.3,MacIntel,59.84082341,,,,,,,,4,Fast,long,k,1,1.857,9,1,37,3,1,,,,,
,0.32,,,,,,,,,k,purple,5bde3d1a3ec77c0001bddc37,2021-09-27_20h03.34.787,forced_choiceRT_color,2021.2.3,MacIntel,59.84082341,,,,,,,,4,Ontime,long,k,1,2.0325,9,2,38,3,1,,,,,
,1.95,,,,,,,,,j,red,5bde3d1a3ec77c0001bddc37,2021-09-27_20h03.34.787,forced_choiceRT_color,2021.2.3,MacIntel,59.84082341,,,,,,,,4,Slow,long,j,1,2.4564,9,3,39,2,1,,,,,
,,,,,,,,,,,,5bde3d1a3ec77c0001bddc37,2021-09-27_20h03.34.787,forced_choiceRT_color,2021.2.3,MacIntel,59.84082341,,,,,,,,,,,,,,,,,,,3,0,3,0,1
,1.57,,,,,,,,,d,orange,5bde3d1a3ec77c0001bddc37,2021-09-27_20h03.34.787,forced_choiceRT_color,2021.2.3,MacIntel,59.84082341,,,,,,,,5,Slow,long,d,1,2.1885,0,0,0,0,1,,,,,
,0.36,,,,,,,,,k,purple,5bde3d1a3ec77c0001bddc37,2021-09-27_20h03.34.787,forced_choiceRT_color,2021.2.3,MacIntel,59.84082341,,,,,,,,5,Fast,long,k,1,1.8803,0,1,1,3,1,,,,,
,0.15,,,,,,,,,d,orange,5bde3d1a3ec77c0001bddc37,2021-09-27_20h03.34.787,forced_choiceRT_color,2021.2.3,MacIntel,59.84082341,,,,,,,,5,Ontime,long,d,1,1.9116,0,2,2,0,1,,,,,
,1.64,,,,,,,,,j,red,5bde3d1a3ec77c0001bddc37,2021-09-27_20h03.34.787,forced_choiceRT_color,2021.2.3,MacIntel,59.84082341,,,,,,,,5,Slow,long,j,1,2.1625,0,3,3,2,1,,,,,
,1.15,,,,,,,,,j,red,5bde3d1a3ec77c0001bddc37,2021-09-27_20h03.34.787,forced_choiceRT_color,2021.2.3,MacIntel,59.84082341,,,,,,,,5,Fast,long,j,1,1.7127,1,0,4,2,1,,,,,
,0.38,,,,,,,,,f,blue,5bde3d1a3ec77c0001bddc37,2021-09-27_20h03.34.787,forced_choiceRT_color,2021.2.3,MacIntel,59.84082341,,,,,,,,5,Ontime,long,f,1,1.9611,1,1,5,1,1,,,,,
,0.45,,,,,,,,,j,red,5bde3d1a3ec77c0001bddc37,2021-09-27_20h03.34.787,forced_choiceRT_color,2021.2.3,MacIntel,59.84082341,,,,,,,,5,Ontime,long,j,1,1.9445,1,2,6,2,1,,,,,
,0.86,,,,,,,,,j,red,5bde3d1a3ec77c0001bddc37,2021-09-27_20h03.34.787,forced_choiceRT_color,2021.2.3,MacIntel,59.84082341,,,,,,,,5,Ontime,long,j,1,1.91,1,3,7,2,1,,,,,
,1.57,,,,,,,,,k,purple,5bde3d1a3ec77c0001bddc37,2021-09-27_20h03.34.787,forced_choiceRT_color,2021.2.3,MacIntel,59.84082341,,,,,,,,5,Slow,long,k,1,2.1099,2,0,8,3,1,,,,,
,1.48,,,,,,,,,f,blue,5bde3d1a3ec77c0001bddc37,2021-09-27_20h03.34.787,forced_choiceRT_color,2021.2.3,MacIntel,59.84082341,,,,,,,,5,Slow,long,f,1,2.1202,2,1,9,1,1,,,,,
,1.29,,,,,,,,,k,purple,5bde3d1a3ec77c0001bddc37,2021-09-27_20h03.34.787,forced_choiceRT_color,2021.2.3,MacIntel,59.84082341,,,,,,,,5,Fast,long,f,0,1.8401,2,2,10,3,1,,,,,
,0.43,,,,,,,,,d,orange,5bde3d1a3ec77c0001bddc37,2021-09-27_20h03.34.787,forced_choiceRT_color,2021.2.3,MacIntel,59.84082341,,,,,,,,5,Fast,long,d,1,1.8939,2,3,11,0,1,,,,,
,0.73,,,,,,,,,k,purple,5bde3d1a3ec77c0001bddc37,2021-09-27_20h03.34.787,forced_choiceRT_color,2021.2.3,MacIntel,59.84082341,,,,,,,,5,Fast,long,k,1,1.7748,3,0,12,3,1,,,,,
,1.17,,,,,,,,,f,blue,5bde3d1a3ec77c0001bddc37,2021-09-27_20h03.34.787,forced_choiceRT_color,2021.2.3,MacIntel,59.84082341,,,,,,,,5,Slow,long,j,0,2.1421,3,1,13,1,1,,,,,
,0.85,,,,,,,,,j,red,5bde3d1a3ec77c0001bddc37,2021-09-27_20h03.34.787,forced_choiceRT_color,2021.2.3,MacIntel,59.84082341,,,,,,,,5,Ontime,long,j,1,1.9075,3,2,14,2,1,,,,,
,0.13,,,,,,,,,d,orange,5bde3d1a3ec77c0001bddc37,2021-09-27_20h03.34.787,forced_choiceRT_color,2021.2.3,MacIntel,59.84082341,,,,,,,,5,Ontime,long,d,1,1.9737,3,3,15,0,1,,,,,
,1.68,,,,,,,,,f,blue,5bde3d1a3ec77c0001bddc37,2021-09-27_20h03.34.787,forced_choiceRT_color,2021.2.3,MacIntel,59.84082341,,,,,,,,5,Slow,long,f,1,2.2342,4,0,16,1,1,,,,,
,0.28,,,,,,,,,f,blue,5bde3d1a3ec77c0001bddc37,2021-09-27_20h03.34.787,forced_choiceRT_color,2021.2.3,MacIntel,59.84082341,,,,,,,,5,Fast,long,f,1,1.8474,4,1,17,1,1,,,,,
,1.84,,,,,,,,,d,orange,5bde3d1a3ec77c0001bddc37,2021-09-27_20h03.34.787,forced_choiceRT_color,2021.2.3,MacIntel,59.84082341,,,,,,,,5,Slow,long,f,0,2.2617,4,2,18,0,1,,,,,
,0.71,,,,,,,,,k,purple,5bde3d1a3ec77c0001bddc37,2021-09-27_20h03.34.787,forced_choiceRT_color,2021.2.3,MacIntel,59.84082341,,,,,,,,5,Fast,long,k,1,1.8838,4,3,19,3,1,,,,,
,1.39,,,,,,,,,d,orange,5bde3d1a3ec77c0001bddc37,2021-09-27_20h03.34.787,forced_choiceRT_color,2021.2.3,MacIntel,59.84082341,,,,,,,,5,Ontime,long,d,1,1.9407,5,0,20,0,1,,,,,
,0.53,,,,,,,,,d,orange,5bde3d1a3ec77c0001bddc37,2021-09-27_20h03.34.787,forced_choiceRT_color,2021.2.3,MacIntel,59.84082341,,,,,,,,5,Ontime,long,d,1,1.9304,5,1,21,0,1,,,,,
,0.35,,,,,,,,,f,blue,5bde3d1a3ec77c0001bddc37,2021-09-27_20h03.34.787,forced_choiceRT_color,2021.2.3,MacIntel,59.84082341,,,,,,,,5,Fast,long,f,1,1.832,5,2,22,1,1,,,,,
,0.87,,,,,,,,,j,red,5bde3d1a3ec77c0001bddc37,2021-09-27_20h03.34.787,forced_choiceRT_color,2021.2.3,MacIntel,59.84082341,,,,,,,,5,Ontime,long,j,1,2.0086,5,3,23,2,1,,,,,
,1.18,,,,,,,,,d,orange,5bde3d1a3ec77c0001bddc37,2021-09-27_20h03.34.787,forced_choiceRT_color,2021.2.3,MacIntel,59.84082341,,,,,,,,5,Ontime,long,d,1,1.9493,6,0,24,0,1,,,,,
,0.25,,,,,,,,,k,purple,5bde3d1a3ec77c0001bddc37,2021-09-27_20h03.34.787,forced_choiceRT_color,2021.2.3,MacIntel,59.84082341,,,,,,,,5,Ontime,long,k,1,2.0917,6,1,25,3,1,,,,,
,0.03,,,,,,,,,f,blue,5bde3d1a3ec77c0001bddc37,2021-09-27_20h03.34.787,forced_choiceRT_color,2021.2.3,MacIntel,59.84082341,,,,,,,,5,Ontime,long,f,1,1.9749,6,2,26,1,1,,,,,
,0.16,,,,,,,,,k,purple,5bde3d1a3ec77c0001bddc37,2021-09-27_20h03.34.787,forced_choiceRT_color,2021.2.3,MacIntel,59.84082341,,,,,,,,5,Ontime,long,k,1,1.9734,6,3,27,3,1,,,,,
,1.32,,,,,,,,,k,purple,5bde3d1a3ec77c0001bddc37,2021-09-27_20h03.34.787,forced_choiceRT_color,2021.2.3,MacIntel,59.84082341,,,,,,,,5,Ontime,long,k,1,2.0148,7,0,28,3,1,,,,,
,0.89,,,,,,,,,j,red,5bde3d1a3ec77c0001bddc37,2021-09-27_20h03.34.787,forced_choiceRT_color,2021.2.3,MacIntel,59.84082341,,,,,,,,5,Ontime,long,j,1,1.9612,7,1,29,2,1,,,,,
,0.04,,,,,,,,,k,purple,5bde3d1a3ec77c0001bddc37,2021-09-27_20h03.34.787,forced_choiceRT_color,2021.2.3,MacIntel,59.84082341,,,,,,,,5,Ontime,long,k,1,1.9073,7,2,30,3,1,,,,,
,0.52,,,,,,,,,j,red,5bde3d1a3ec77c0001bddc37,2021-09-27_20h03.34.787,forced_choiceRT_color,2021.2.3,MacIntel,59.84082341,,,,,,,,5,Ontime,long,j,1,2.0749,7,3,31,2,1,,,,,
,0.23,,,,,,,,,j,red,5bde3d1a3ec77c0001bddc37,2021-09-27_20h03.34.787,forced_choiceRT_color,2021.2.3,MacIntel,59.84082341,,,,,,,,5,Ontime,long,j,1,1.9761,8,0,32,2,1,,,,,
,1.52,,,,,,,,,k,purple,5bde3d1a3ec77c0001bddc37,2021-09-27_20h03.34.787,forced_choiceRT_color,2021.2.3,MacIntel,59.84082341,,,,,,,,5,Ontime,long,k,1,2.0567,8,1,33,3,1,,,,,
,0.44,,,,,,,,,d,orange,5bde3d1a3ec77c0001bddc37,2021-09-27_20h03.34.787,forced_choiceRT_color,2021.2.3,MacIntel,59.84082341,,,,,,,,5,Ontime,long,d,1,1.9473,8,2,34,0,1,,,,,
,1.61,,,,,,,,,j,red,5bde3d1a3ec77c0001bddc37,2021-09-27_20h03.34.787,forced_choiceRT_color,2021.2.3,MacIntel,59.84082341,,,,,,,,5,Slow,long,k,0,2.2205,8,3,35,2,1,,,,,
,0.69,,,,,,,,,f,blue,5bde3d1a3ec77c0001bddc37,2021-09-27_20h03.34.787,forced_choiceRT_color,2021.2.3,MacIntel,59.84082341,,,,,,,,5,Ontime,long,f,1,1.9133,9,0,36,1,1,,,,,
,0.59,,,,,,,,,f,blue,5bde3d1a3ec77c0001bddc37,2021-09-27_20h03.34.787,forced_choiceRT_color,2021.2.3,MacIntel,59.84082341,,,,,,,,5,Ontime,long,f,1,1.9404,9,1,37,1,1,,,,,
,0.61,,,,,,,,,f,blue,5bde3d1a3ec77c0001bddc37,2021-09-27_20h03.34.787,forced_choiceRT_color,2021.2.3,MacIntel,59.84082341,,,,,,,,5,Fast,long,f,1,1.8546,9,2,38,1,1,,,,,
,0.49,,,,,,,,,d,orange,5bde3d1a3ec77c0001bddc37,2021-09-27_20h03.34.787,forced_choiceRT_color,2021.2.3,MacIntel,59.84082341,,,,,,,,5,Ontime,long,d,1,1.9413,9,3,39,0,1,,,,,
,,,,,,,,,,,,5bde3d1a3ec77c0001bddc37,2021-09-27_20h03.34.787,forced_choiceRT_color,2021.2.3,MacIntel,59.84082341,,,,,,,,,,,,,,,,,,,4,0,4,0,1
,0.83,,,,,,,,,f,blue,5bde3d1a3ec77c0001bddc37,2021-09-27_20h03.34.787,forced_choiceRT_color,2021.2.3,MacIntel,59.84082341,,,,,,,,6,Ontime,long,f,1,2.0553,0,0,0,1,1,,,,,
,1.21,,,,,,,,,f,blue,5bde3d1a3ec77c0001bddc37,2021-09-27_20h03.34.787,forced_choiceRT_color,2021.2.3,MacIntel,59.84082341,,,,,,,,6,Fast,long,f,1,1.8791,0,1,1,1,1,,,,,
,0.25,,,,,,,,,j,red,5bde3d1a3ec77c0001bddc37,2021-09-27_20h03.34.787,forced_choiceRT_color,2021.2.3,MacIntel,59.84082341,,,,,,,,6,Ontime,long,j,1,2.0105,0,2,2,2,1,,,,,
,1.01,,,,,,,,,j,red,5bde3d1a3ec77c0001bddc37,2021-09-27_20h03.34.787,forced_choiceRT_color,2021.2.3,MacIntel,59.84082341,,,,,,,,6,Ontime,long,j,1,2.0769,0,3,3,2,1,,,,,
,1.66,,,,,,,,,d,orange,5bde3d1a3ec77c0001bddc37,2021-09-27_20h03.34.787,forced_choiceRT_color,2021.2.3,MacIntel,59.84082341,,,,,,,,6,Ontime,long,f,0,2.0999,1,0,4,0,1,,,,,
,0.08,,,,,,,,,d,orange,5bde3d1a3ec77c0001bddc37,2021-09-27_20h03.34.787,forced_choiceRT_color,2021.2.3,MacIntel,59.84082341,,,,,,,,6,Ontime,long,d,1,1.9169,1,1,5,0,1,,,,,
,1.58,,,,,,,,,f,blue,5bde3d1a3ec77c0001bddc37,2021-09-27_20h03.34.787,forced_choiceRT_color,2021.2.3,MacIntel,59.84082341,,,,,,,,6,Slow,long,f,1,3.7284,1,2,6,1,1,,,,,
,1,,,,,,,,,k,purple,5bde3d1a3ec77c0001bddc37,2021-09-27_20h03.34.787,forced_choiceRT_color,2021.2.3,MacIntel,59.84082341,,,,,,,,6,Ontime,long,k,1,1.9154,1,3,7,3,1,,,,,
,1.92,,,,,,,,,k,purple,5bde3d1a3ec77c0001bddc37,2021-09-27_20h03.34.787,forced_choiceRT_color,2021.2.3,MacIntel,59.84082341,,,,,,,,6,Slow,long,k,1,2.4457,2,0,8,3,1,,,,,
,0.73,,,,,,,,,j,red,5bde3d1a3ec77c0001bddc37,2021-09-27_20h03.34.787,forced_choiceRT_color,2021.2.3,MacIntel,59.84082341,,,,,,,,6,Fast,long,j,1,1.8501,2,1,9,2,1,,,,,
,1.34,,,,,,,,,j,red,5bde3d1a3ec77c0001bddc37,2021-09-27_20h03.34.787,forced_choiceRT_color,2021.2.3,MacIntel,59.84082341,,,,,,,,6,Ontime,long,j,1,2.0946,2,2,10,2,1,,,,,
,0.51,,,,,,,,,d,orange,5bde3d1a3ec77c0001bddc37,2021-09-27_20h03.34.787,forced_choiceRT_color,2021.2.3,MacIntel,59.84082341,,,,,,,,6,Ontime,long,d,1,2.024,2,3,11,0,1,,,,,
,1.06,,,,,,,,,k,purple,5bde3d1a3ec77c0001bddc37,2021-09-27_20h03.34.787,forced_choiceRT_color,2021.2.3,MacIntel,59.84082341,,,,,,,,6,Ontime,long,k,1,2.0177,3,0,12,3,1,,,,,
,0.99,,,,,,,,,d,orange,5bde3d1a3ec77c0001bddc37,2021-09-27_20h03.34.787,forced_choiceRT_color,2021.2.3,MacIntel,59.84082341,,,,,,,,6,Fast,long,d,1,1.6404,3,1,13,0,1,,,,,
,0.79,,,,,,,,,d,orange,5bde3d1a3ec77c0001bddc37,2021-09-27_20h03.34.787,forced_choiceRT_color,2021.2.3,MacIntel,59.84082341,,,,,,,,6,Ontime,long,d,1,2.0427,3,2,14,0,1,,,,,
,1.35,,,,,,,,,f,blue,5bde3d1a3ec77c0001bddc37,2021-09-27_20h03.34.787,forced_choiceRT_color,2021.2.3,MacIntel,59.84082341,,,,,,,,6,Slow,long,k,0,2.1748,3,3,15,1,1,,,,,
,0.36,,,,,,,,,f,blue,5bde3d1a3ec77c0001bddc37,2021-09-27_20h03.34.787,forced_choiceRT_color,2021.2.3,MacIntel,59.84082341,,,,,,,,6,Ontime,long,f,1,1.9857,4,0,16,1,1,,,,,
,1.92,,,,,,,,,k,purple,5bde3d1a3ec77c0001bddc37,2021-09-27_20h03.34.787,forced_choiceRT_color,2021.2.3,MacIntel,59.84082341,,,,,,,,6,Slow,long,j,0,2.2906,4,1,17,3,1,,,,,
,1.81,,,,,,,,,f,blue,5bde3d1a3ec77c0001bddc37,2021-09-27_20h03.34.787,forced_choiceRT_color,2021.2.3,MacIntel,59.84082341,,,,,,,,6,Slow,long,j,0,2.4493,4,2,18,1,1,,,,,
,1.66,,,,,,,,,k,purple,5bde3d1a3ec77c0001bddc37,2021-09-27_20h03.34.787,forced_choiceRT_color,2021.2.3,MacIntel,59.84082341,,,,,,,,6,Slow,long,f,0,2.1147,4,3,19,3,1,,,,,
,0.63,,,,,,,,,f,blue,5bde3d1a3ec77c0001bddc37,2021-09-27_20h03.34.787,forced_choiceRT_color,2021.2.3,MacIntel,59.84082341,,,,,,,,6,Fast,long,f,1,1.7913,5,0,20,1,1,,,,,
,0.45,,,,,,,,,d,orange,5bde3d1a3ec77c0001bddc37,2021-09-27_20h03.34.787,forced_choiceRT_color,2021.2.3,MacIntel,59.84082341,,,,,,,,6,Ontime,long,d,1,1.924,5,1,21,0,1,,,,,
,1.19,,,,,,,,,j,red,5bde3d1a3ec77c0001bddc37,2021-09-27_20h03.34.787,forced_choiceRT_color,2021.2.3,MacIntel,59.84082341,,,,,,,,6,Ontime,long,j,1,2.0088,5,2,22,2,1,,,,,
,1.38,,,,,,,,,f,blue,5bde3d1a3ec77c0001bddc37,2021-09-27_20h03.34.787,forced_choiceRT_color,2021.2.3,MacIntel,59.84082341,,,,,,,,6,Ontime,long,f,1,2.0269,5,3,23,1,1,,,,,
,1.36,,,,,,,,,d,orange,5bde3d1a3ec77c0001bddc37,2021-09-27_20h03.34.787,forced_choiceRT_color,2021.2.3,MacIntel,59.84082341,,,,,,,,6,Ontime,long,d,1,1.9611,6,0,24,0,1,,,,,
,1.19,,,,,,,,,k,purple,5bde3d1a3ec77c0001bddc37,2021-09-27_20h03.34.787,forced_choiceRT_color,2021.2.3,MacIntel,59.84082341,,,,,,,,6,Fast,long,k,1,1.8771,6,1,25,3,1,,,,,
,1.62,,,,,,,,,d,orange,5bde3d1a3ec77c0001bddc37,2021-09-27_20h03.34.787,forced_choiceRT_color,2021.2.3,MacIntel,59.84082341,,,,,,,,6,Slow,long,f,0,2.1133,6,2,26,0,1,,,,,
,1.05,,,,,,,,,d,orange,5bde3d1a3ec77c0001bddc37,2021-09-27_20h03.34.787,forced_choiceRT_color,2021.2.3,MacIntel,59.84082341,,,,,,,,6,Fast,long,d,1,1.8146,6,3,27,0,1,,,,,
,0.43,,,,,,,,,j,red,5bde3d1a3ec77c0001bddc37,2021-09-27_20h03.34.787,forced_choiceRT_color,2021.2.3,MacIntel,59.84082341,,,,,,,,6,Fast,long,j,1,1.8541,7,0,28,2,1,,,,,
,0.44,,,,,,,,,j,red,5bde3d1a3ec77c0001bddc37,2021-09-27_20h03.34.787,forced_choiceRT_color,2021.2.3,MacIntel,59.84082341,,,,,,,,6,Ontime,long,j,1,2.0275,7,1,29,2,1,,,,,
,0.1,,,,,,,,,f,blue,5bde3d1a3ec77c0001bddc37,2021-09-27_20h03.34.787,forced_choiceRT_color,2021.2.3,MacIntel,59.84082341,,,,,,,,6,Ontime,long,f,1,1.9914,7,2,30,1,1,,,,,
,1.77,,,,,,,,,k,purple,5bde3d1a3ec77c0001bddc37,2021-09-27_20h03.34.787,forced_choiceRT_color,2021.2.3,MacIntel,59.84082341,,,,,,,,6,Slow,long,k,1,2.5693,7,3,31,3,1,,,,,
,1.98,,,,,,,,,f,blue,5bde3d1a3ec77c0001bddc37,2021-09-27_20h03.34.787,forced_choiceRT_color,2021.2.3,MacIntel,59.84082341,,,,,,,,6,Slow,long,j,0,2.5583,8,0,32,1,1,,,,,
,1.53,,,,,,,,,j,red,5bde3d1a3ec77c0001bddc37,2021-09-27_20h03.34.787,forced_choiceRT_color,2021.2.3,MacIntel,59.84082341,,,,,,,,6,Ontime,long,d,0,2.0418,8,1,33,2,1,,,,,
,1.87,,,,,,,,,k,purple,5bde3d1a3ec77c0001bddc37,2021-09-27_20h03.34.787,forced_choiceRT_color,2021.2.3,MacIntel,59.84082341,,,,,,,,6,Slow,long,d,0,2.3336,8,2,34,3,1,,,,,
,0.36,,,,,,,,,j,red,5bde3d1a3ec77c0001bddc37,2021-09-27_20h03.34.787,forced_choiceRT_color,2021.2.3,MacIntel,59.84082341,,,,,,,,6,Ontime,long,j,1,1.9467,8,3,35,2,1,,,,,
,0.8,,,,,,,,,k,purple,5bde3d1a3ec77c0001bddc37,2021-09-27_20h03.34.787,forced_choiceRT_color,2021.2.3,MacIntel,59.84082341,,,,,,,,6,Fast,long,k,1,1.8903,9,0,36,3,1,,,,,
,1.3,,,,,,,,,j,red,5bde3d1a3ec77c0001bddc37,2021-09-27_20h03.34.787,forced_choiceRT_color,2021.2.3,MacIntel,59.84082341,,,,,,,,6,Ontime,long,j,1,1.9239,9,1,37,2,1,,,,,
,1.2,,,,,,,,,d,orange,5bde3d1a3ec77c0001bddc37,2021-09-27_20h03.34.787,forced_choiceRT_color,2021.2.3,MacIntel,59.84082341,,,,,,,,6,Fast,long,d,1,1.8627,9,2,38,0,1,,,,,
,0.61,,,,,,,,,k,purple,5bde3d1a3ec77c0001bddc37,2021-09-27_20h03.34.787,forced_choiceRT_color,2021.2.3,MacIntel,59.84082341,,,,,,,,6,Ontime,long,k,1,1.9998,9,3,39,3,1,,,,,
,,,,,,,,,,,,5bde3d1a3ec77c0001bddc37,2021-09-27_20h03.34.787,forced_choiceRT_color,2021.2.3,MacIntel,59.84082341,,,,,,,,,,,,,,,,,,,5,0,5,0,1
,1.38,,,,,,,,,j,red,5bde3d1a3ec77c0001bddc37,2021-09-27_20h03.34.787,forced_choiceRT_color,2021.2.3,MacIntel,59.84082341,,,,,,,,7,Slow,long,j,1,2.2508,0,0,0,2,1,,,,,
,1.54,,,,,,,,,k,purple,5bde3d1a3ec77c0001bddc37,2021-09-27_20h03.34.787,forced_choiceRT_color,2021.2.3,MacIntel,59.84082341,,,,,,,,7,Slow,long,k,1,2.1649,0,1,1,3,1,,,,,
,1.41,,,,,,,,,f,blue,5bde3d1a3ec77c0001bddc37,2021-09-27_20h03.34.787,forced_choiceRT_color,2021.2.3,MacIntel,59.84082341,,,,,,,,7,Slow,long,f,1,2.13,0,2,2,1,1,,,,,
,1.06,,,,,,,,,j,red,5bde3d1a3ec77c0001bddc37,2021-09-27_20h03.34.787,forced_choiceRT_color,2021.2.3,MacIntel,59.84082341,,,,,,,,7,Fast,long,j,1,1.762,0,3,3,2,1,,,,,
,1.79,,,,,,,,,f,blue,5bde3d1a3ec77c0001bddc37,2021-09-27_20h03.34.787,forced_choiceRT_color,2021.2.3,MacIntel,59.84082341,,,,,,,,7,Slow,long,f,1,2.2269,1,0,4,1,1,,,,,
,0.97,,,,,,,,,k,purple,5bde3d1a3ec77c0001bddc37,2021-09-27_20h03.34.787,forced_choiceRT_color,2021.2.3,MacIntel,59.84082341,,,,,,,,7,Ontime,long,k,1,2.009,1,1,5,3,1,,,,,
,0,,,,,,,,,f,blue,5bde3d1a3ec77c0001bddc37,2021-09-27_20h03.34.787,forced_choiceRT_color,2021.2.3,MacIntel,59.84082341,,,,,,,,7,Ontime,long,f,1,2.0259,1,2,6,1,1,,,,,
,0.05,,,,,,,,,d,orange,5bde3d1a3ec77c0001bddc37,2021-09-27_20h03.34.787,forced_choiceRT_color,2021.2.3,MacIntel,59.84082341,,,,,,,,7,Ontime,long,d,1,1.9596,1,3,7,0,1,,,,,
,0.08,,,,,,,,,j,red,5bde3d1a3ec77c0001bddc37,2021-09-27_20h03.34.787,forced_choiceRT_color,2021.2.3,MacIntel,59.84082341,,,,,,,,7,Ontime,long,j,1,1.9247,2,0,8,2,1,,,,,
,0.19,,,,,,,,,k,purple,5bde3d1a3ec77c0001bddc37,2021-09-27_20h03.34.787,forced_choiceRT_color,2021.2.3,MacIntel,59.84082341,,,,,,,,7,Ontime,long,k,1,1.9028,2,1,9,3,1,,,,,
,1.35,,,,,,,,,f,blue,5bde3d1a3ec77c0001bddc37,2021-09-27_20h03.34.787,forced_choiceRT_color,2021.2.3,MacIntel,59.84082341,,,,,,,,7,Ontime,long,f,1,1.9863,2,2,10,1,1,,,,,
,1.7,,,,,,,,,j,red,5bde3d1a3ec77c0001bddc37,2021-09-27_20h03.34.787,forced_choiceRT_color,2021.2.3,MacIntel,59.84082341,,,,,,,,7,Slow,long,k,0,2.2429,2,3,11,2,1,,,,,
,1.41,,,,,,,,,j,red,5bde3d1a3ec77c0001bddc37,2021-09-27_20h03.34.787,forced_choiceRT_color,2021.2.3,MacIntel,59.84082341,,,,,,,,7,Ontime,long,j,1,1.9926,3,0,12,2,1,,,,,
,0.98,,,,,,,,,d,orange,5bde3d1a3ec77c0001bddc37,2021-09-27_20h03.34.787,forced_choiceRT_color,2021.2.3,MacIntel,59.84082341,,,,,,,,7,Fast,long,d,1,1.8408,3,1,13,0,1,,,,,
,1.89,,,,,,,,,d,orange,5bde3d1a3ec77c0001bddc37,2021-09-27_20h03.34.787,forced_choiceRT_color,2021.2.3,MacIntel,59.84082341,,,,,,,,7,Slow,long,d,1,2.3189,3,2,14,0,1,,,,,
,0.22,,,,,,,,,k,purple,5bde3d1a3ec77c0001bddc37,2021-09-27_20h03.34.787,forced_choiceRT_color,2021.2.3,MacIntel,59.84082341,,,,,,,,7,Fast,long,k,1,1.8248,3,3,15,3,1,,,,,
,0.73,,,,,,,,,j,red,5bde3d1a3ec77c0001bddc37,2021-09-27_20h03.34.787,forced_choiceRT_color,2021.2.3,MacIntel,59.84082341,,,,,,,,7,Ontime,long,j,1,1.9084,4,0,16,2,1,,,,,
,0.84,,,,,,,,,f,blue,5bde3d1a3ec77c0001bddc37,2021-09-27_20h03.34.787,forced_choiceRT_color,2021.2.3,MacIntel,59.84082341,,,,,,,,7,Ontime,long,f,1,1.9575,4,1,17,1,1,,,,,
,1.62,,,,,,,,,f,blue,5bde3d1a3ec77c0001bddc37,2021-09-27_20h03.34.787,forced_choiceRT_color,2021.2.3,MacIntel,59.84082341,,,,,,,,7,Slow,long,f,1,2.1088,4,2,18,1,1,,,,,
,1,,,,,,,,,d,orange,5bde3d1a3ec77c0001bddc37,2021-09-27_20h03.34.787,forced_choiceRT_color,2021.2.3,MacIntel,59.84082341,,,,,,,,7,Fast,long,d,1,1.8831,4,3,19,0,1,,,,,
,1.45,,,,,,,,,j,red,5bde3d1a3ec77c0001bddc37,2021-09-27_20h03.34.787,forced_choiceRT_color,2021.2.3,MacIntel,59.84082341,,,,,,,,7,Ontime,long,k,0,1.9928,5,0,20,2,1,,,,,
,0.23,,,,,,,,,k,purple,5bde3d1a3ec77c0001bddc37,2021-09-27_20h03.34.787,forced_choiceRT_color,2021.2.3,MacIntel,59.84082341,,,,,,,,7,Fast,long,k,1,1.7614,5,1,21,3,1,,,,,
,1.27,,,,,,,,,k,purple,5bde3d1a3ec77c0001bddc37,2021-09-27_20h03.34.787,forced_choiceRT_color,2021.2.3,MacIntel,59.84082341,,,,,,,,7,Ontime,long,k,1,2.0414,5,2,22,3,1,,,,,
,0.93,,,,,,,,,j,red,5bde3d1a3ec77c0001bddc37,2021-09-27_20h03.34.787,forced_choiceRT_color,2021.2.3,MacIntel,59.84082341,,,,,,,,7,Fast,long,j,1,1.8662,5,3,23,2,1,,,,,
,1.48,,,,,,,,,k,purple,5bde3d1a3ec77c0001bddc37,2021-09-27_20h03.34.787,forced_choiceRT_color,2021.2.3,MacIntel,59.84082341,,,,,,,,7,Ontime,long,k,1,2.015,6,0,24,3,1,,,,,
,1.81,,,,,,,,,j,red,5bde3d1a3ec77c0001bddc37,2021-09-27_20h03.34.787,forced_choiceRT_color,2021.2.3,MacIntel,59.84082341,,,,,,,,7,Slow,long,j,1,2.2735,6,1,25,2,1,,,,,
,0.82,,,,,,,,,f,blue,5bde3d1a3ec77c0001bddc37,2021-09-27_20h03.34.787,forced_choiceRT_color,2021.2.3,MacIntel,59.84082341,,,,,,,,7,Ontime,long,f,1,2.0233,6,2,26,1,1,,,,,
,1.21,,,,,,,,,d,orange,5bde3d1a3ec77c0001bddc37,2021-09-27_20h03.34.787,forced_choiceRT_color,2021.2.3,MacIntel,59.84082341,,,,,,,,7,Ontime,long,d,1,1.977,6,3,27,0,1,,,,,
,0.29,,,,,,,,,f,blue,5bde3d1a3ec77c0001bddc37,2021-09-27_20h03.34.787,forced_choiceRT_color,2021.2.3,MacIntel,59.84082341,,,,,,,,7,Ontime,long,f,1,2.0098,7,0,28,1,1,,,,,
,1.17,,,,,,,,,d,orange,5bde3d1a3ec77c0001bddc37,2021-09-27_20h03.34.787,forced_choiceRT_color,2021.2.3,MacIntel,59.84082341,,,,,,,,7,Ontime,long,d,1,1.9651,7,1,29,0,1,,,,,
,0.57,,,,,,,,,d,orange,5bde3d1a3ec77c0001bddc37,2021-09-27_20h03.34.787,forced_choiceRT_color,2021.2.3,MacIntel,59.84082341,,,,,,,,7,Fast,long,d,1,1.8638,7,2,30,0,1,,,,,
,1.24,,,,,,,,,f,blue,5bde3d1a3ec77c0001bddc37,2021-09-27_20h03.34.787,forced_choiceRT_color,2021.2.3,MacIntel,59.84082341,,,,,,,,7,Ontime,long,f,1,1.9435,7,3,31,1,1,,,,,
,1.16,,,,,,,,,f,blue,5bde3d1a3ec77c0001bddc37,2021-09-27_20h03.34.787,forced_choiceRT_color,2021.2.3,MacIntel,59.84082341,,,,,,,,7,Ontime,long,f,1,2.013,8,0,32,1,1,,,,,
,1.99,,,,,,,,,d,orange,5bde3d1a3ec77c0001bddc37,2021-09-27_20h03.34.787,forced_choiceRT_color,2021.2.3,MacIntel,59.84082341,,,,,,,,7,Slow,long,f,0,2.5226,8,1,33,0,1,,,,,
,0.04,,,,,,,,,k,purple,5bde3d1a3ec77c0001bddc37,2021-09-27_20h03.34.787,forced_choiceRT_color,2021.2.3,MacIntel,59.84082341,,,,,,,,7,Ontime,long,k,1,2.0266,8,2,34,3,1,,,,,
,0.28,,,,,,,,,d,orange,5bde3d1a3ec77c0001bddc37,2021-09-27_20h03.34.787,forced_choiceRT_color,2021.2.3,MacIntel,59.84082341,,,,,,,,7,Ontime,long,d,1,2.0396,8,3,35,0,1,,,,,
,1.85,,,,,,,,,k,purple,5bde3d1a3ec77c0001bddc37,2021-09-27_20h03.34.787,forced_choiceRT_color,2021.2.3,MacIntel,59.84082341,,,,,,,,7,Slow,long,f,0,2.3136,9,0,36,3,1,,,,,
,0.53,,,,,,,,,k,purple,5bde3d1a3ec77c0001bddc37,2021-09-27_20h03.34.787,forced_choiceRT_color,2021.2.3,MacIntel,59.84082341,,,,,,,,7,Ontime,long,k,1,1.9367,9,1,37,3,1,,,,,
,1.66,,,,,,,,,j,red,5bde3d1a3ec77c0001bddc37,2021-09-27_20h03.34.787,forced_choiceRT_color,2021.2.3,MacIntel,59.84082341,,,,,,,,7,Slow,long,j,1,2.4075,9,2,38,2,1,,,,,
,1.09,,,,,,,,,d,orange,5bde3d1a3ec77c0001bddc37,2021-09-27_20h03.34.787,forced_choiceRT_color,2021.2.3,MacIntel,59.84082341,,,,,,,,7,Ontime,long,d,1,1.9734,9,3,39,0,1,,,,,
,,,,,,,,,,,,5bde3d1a3ec77c0001bddc37,2021-09-27_20h03.34.787,forced_choiceRT_color,2021.2.3,MacIntel,59.84082341,,,,,,,,,,,,,,,,,,,6,0,6,0,1
,1.06,,,,,,,,,d,orange,5bde3d1a3ec77c0001bddc37,2021-09-27_20h03.34.787,forced_choiceRT_color,2021.2.3,MacIntel,59.84082341,,,,,,,,8,Ontime,long,d,1,1.9592,0,0,0,0,1,,,,,
,1.21,,,,,,,,,d,orange,5bde3d1a3ec77c0001bddc37,2021-09-27_20h03.34.787,forced_choiceRT_color,2021.2.3,MacIntel,59.84082341,,,,,,,,8,Fast,long,d,1,1.8072,0,1,1,0,1,,,,,
,0.96,,,,,,,,,f,blue,5bde3d1a3ec77c0001bddc37,2021-09-27_20h03.34.787,forced_choiceRT_color,2021.2.3,MacIntel,59.84082341,,,,,,,,8,Ontime,long,f,1,1.9586,0,2,2,1,1,,,,,
,0.79,,,,,,,,,k,purple,5bde3d1a3ec77c0001bddc37,2021-09-27_20h03.34.787,forced_choiceRT_color,2021.2.3,MacIntel,59.84082341,,,,,,,,8,Ontime,long,k,1,1.912,0,3,3,3,1,,,,,
,0.24,,,,,,,,,f,blue,5bde3d1a3ec77c0001bddc37,2021-09-27_20h03.34.787,forced_choiceRT_color,2021.2.3,MacIntel,59.84082341,,,,,,,,8,Ontime,long,f,1,1.9707,1,0,4,1,1,,,,,
,1.52,,,,,,,,,j,red,5bde3d1a3ec77c0001bddc37,2021-09-27_20h03.34.787,forced_choiceRT_color,2021.2.3,MacIntel,59.84082341,,,,,,,,8,Slow,long,j,1,2.196,1,1,5,2,1,,,,,
,0.96,,,,,,,,,k,purple,5bde3d1a3ec77c0001bddc37,2021-09-27_20h03.34.787,forced_choiceRT_color,2021.2.3,MacIntel,59.84082341,,,,,,,,8,Ontime,long,k,1,1.9965,1,2,6,3,1,,,,,
,1.49,,,,,,,,,f,blue,5bde3d1a3ec77c0001bddc37,2021-09-27_20h03.34.787,forced_choiceRT_color,2021.2.3,MacIntel,59.84082341,,,,,,,,8,Slow,long,f,1,2.1582,1,3,7,1,1,,,,,
,0.85,,,,,,,,,j,red,5bde3d1a3ec77c0001bddc37,2021-09-27_20h03.34.787,forced_choiceRT_color,2021.2.3,MacIntel,59.84082341,,,,,,,,8,Fast,long,j,1,1.778,2,0,8,2,1,,,,,
,0.6,,,,,,,,,k,purple,5bde3d1a3ec77c0001bddc37,2021-09-27_20h03.34.787,forced_choiceRT_color,2021.2.3,MacIntel,59.84082341,,,,,,,,8,Ontime,long,k,1,1.9595,2,1,9,3,1,,,,,
,1.08,,,,,,,,,d,orange,5bde3d1a3ec77c0001bddc37,2021-09-27_20h03.34.787,forced_choiceRT_color,2021.2.3,MacIntel,59.84082341,,,,,,,,8,Fast,long,d,1,1.8626,2,2,10,0,1,,,,,
,1.56,,,,,,,,,d,orange,5bde3d1a3ec77c0001bddc37,2021-09-27_20h03.34.787,forced_choiceRT_color,2021.2.3,MacIntel,59.84082341,,,,,,,,8,Ontime,long,d,1,2.0436,2,3,11,0,1,,,,,
,1.84,,,,,,,,,j,red,5bde3d1a3ec77c0001bddc37,2021-09-27_20h03.34.787,forced_choiceRT_color,2021.2.3,MacIntel,59.84082341,,,,,,,,8,Slow,long,j,1,2.3141,3,0,12,2,1,,,,,
,1.39,,,,,,,,,j,red,5bde3d1a3ec77c0001bddc37,2021-09-27_20h03.34.787,forced_choiceRT_color,2021.2.3,MacIntel,59.84082341,,,,,,,,8,Fast,long,j,1,1.878,3,1,13,2,1,,,,,
,0.69,,,,,,,,,j,red,5bde3d1a3ec77c0001bddc37,2021-09-27_20h03.34.787,forced_choiceRT_color,2021.2.3,MacIntel,59.84082341,,,,,,,,8,Ontime,long,j,1,2.0428,3,2,14,2,1,,,,,
,1.68,,,,,,,,,f,blue,5bde3d1a3ec77c0001bddc37,2021-09-27_20h03.34.787,forced_choiceRT_color,2021.2.3,MacIntel,59.84082341,,,,,,,,8,Slow,long,f,1,2.232,3,3,15,1,1,,,,,
,0.19,,,,,,,,,k,purple,5bde3d1a3ec77c0001bddc37,2021-09-27_20h03.34.787,forced_choiceRT_color,2021.2.3,MacIntel,59.84082341,,,,,,,,8,Ontime,long,k,1,1.9024,4,0,16,3,1,,,,,
,1.45,,,,,,,,,d,orange,5bde3d1a3ec77c0001bddc37,2021-09-27_20h03.34.787,forced_choiceRT_color,2021.2.3,MacIntel,59.84082341,,,,,,,,8,Ontime,long,d,1,2.0593,4,1,17,0,1,,,,,
,1.3,,,,,,,,,k,purple,5bde3d1a3ec77c0001bddc37,2021-09-27_20h03.34.787,forced_choiceRT_color,2021.2.3,MacIntel,59.84082341,,,,,,,,8,Ontime,long,k,1,1.976,4,2,18,3,1,,,,,
,0.18,,,,,,,,,d,orange,5bde3d1a3ec77c0001bddc37,2021-09-27_20h03.34.787,forced_choiceRT_color,2021.2.3,MacIntel,59.84082341,,,,,,,,8,Fast,long,d,1,1.8888,4,3,19,0,1,,,,,
,0.5,,,,,,,,,k,purple,5bde3d1a3ec77c0001bddc37,2021-09-27_20h03.34.787,forced_choiceRT_color,2021.2.3,MacIntel,59.84082341,,,,,,,,8,Ontime,long,k,1,2.0293,5,0,20,3,1,,,,,
,1.13,,,,,,,,,j,red,5bde3d1a3ec77c0001bddc37,2021-09-27_20h03.34.787,forced_choiceRT_color,2021.2.3,MacIntel,59.84082341,,,,,,,,8,Fast,long,j,1,1.8642,5,1,21,2,1,,,,,
,0.03,,,,,,,,,k,purple,5bde3d1a3ec77c0001bddc37,2021-09-27_20h03.34.787,forced_choiceRT_color,2021.2.3,MacIntel,59.84082341,,,,,,,,8,Fast,long,k,1,1.8559,5,2,22,3,1,,,,,
,1.61,,,,,,,,,f,blue,5bde3d1a3ec77c0001bddc37,2021-09-27_20h03.34.787,forced_choiceRT_color,2021.2.3,MacIntel,59.84082341,,,,,,,,8,Slow,long,f,1,2.1796,5,3,23,1,1,,,,,
,1.93,,,,,,,,,d,orange,5bde3d1a3ec77c0001bddc37,2021-09-27_20h03.34.787,forced_choiceRT_color,2021.2.3,MacIntel,59.84082341,,,,,,,,8,Slow,long,f,0,2.4486,6,0,24,0,1,,,,,
,0.72,,,,,,,,,k,purple,5bde3d1a3ec77c0001bddc37,2021-09-27_20h03.34.787,forced_choiceRT_color,2021.2.3,MacIntel,59.84082341,,,,,,,,8,Ontime,long,k,1,1.9076,6,1,25,3,1,,,,,
,0.78,,,,,,,,,f,blue,5bde3d1a3ec77c0001bddc37,2021-09-27_20h03.34.787,forced_choiceRT_color,2021.2.3,MacIntel,59.84082341,,,,,,,,8,Fast,long,f,1,1.8239,6,2,26,1,1,,,,,
,0.29,,,,,,,,,d,orange,5bde3d1a3ec77c0001bddc37,2021-09-27_20h03.34.787,forced_choiceRT_color,2021.2.3,MacIntel,59.84082341,,,,,,,,8,Ontime,long,d,1,1.9811,6,3,27,0,1,,,,,
,0.42,,,,,,,,,k,purple,5bde3d1a3ec77c0001bddc37,2021-09-27_20h03.34.787,forced_choiceRT_color,2021.2.3,MacIntel,59.84082341,,,,,,,,8,Ontime,long,k,1,2.0368,7,0,28,3,1,,,,,
,1.15,,,,,,,,,j,red,5bde3d1a3ec77c0001bddc37,2021-09-27_20h03.34.787,forced_choiceRT_color,2021.2.3,MacIntel,59.84082341,,,,,,,,8,Ontime,long,j,1,1.9813,7,1,29,2,1,,,,,
,1.21,,,,,,,,,k,purple,5bde3d1a3ec77c0001bddc37,2021-09-27_20h03.34.787,forced_choiceRT_color,2021.2.3,MacIntel,59.84082341,,,,,,,,8,Ontime,long,k,1,1.944,7,2,30,3,1,,,,,
,1.3,,,,,,,,,j,red,5bde3d1a3ec77c0001bddc37,2021-09-27_20h03.34.787,forced_choiceRT_color,2021.2.3,MacIntel,59.84082341,,,,,,,,8,Ontime,long,j,1,2.0487,7,3,31,2,1,,,,,
,0.53,,,,,,,,,f,blue,5bde3d1a3ec77c0001bddc37,2021-09-27_20h03.34.787,forced_choiceRT_color,2021.2.3,MacIntel,59.84082341,,,,,,,,8,Ontime,long,f,1,2.0208,8,0,32,1,1,,,,,
,0.18,,,,,,,,,d,orange,5bde3d1a3ec77c0001bddc37,2021-09-27_20h03.34.787,forced_choiceRT_color,2021.2.3,MacIntel,59.84082341,,,,,,,,8,Ontime,long,d,1,2.0457,8,1,33,0,1,,,,,
,0.2,,,,,,,,,f,blue,5bde3d1a3ec77c0001bddc37,2021-09-27_20h03.34.787,forced_choiceRT_color,2021.2.3,MacIntel,59.84082341,,,,,,,,8,Ontime,long,f,1,2.0491,8,2,34,1,1,,,,,
,0.88,,,,,,,,,f,blue,5bde3d1a3ec77c0001bddc37,2021-09-27_20h03.34.787,forced_choiceRT_color,2021.2.3,MacIntel,59.84082341,,,,,,,,8,Ontime,long,f,1,2.0182,8,3,35,1,1,,,,,
,0.12,,,,,,,,,j,red,5bde3d1a3ec77c0001bddc37,2021-09-27_20h03.34.787,forced_choiceRT_color,2021.2.3,MacIntel,59.84082341,,,,,,,,8,Ontime,long,j,1,1.98,9,0,36,2,1,,,,,
,0.11,,,,,,,,,j,red,5bde3d1a3ec77c0001bddc37,2021-09-27_20h03.34.787,forced_choiceRT_color,2021.2.3,MacIntel,59.84082341,,,,,,,,8,Ontime,long,j,1,1.965,9,1,37,2,1,,,,,
,0.96,,,,,,,,,d,orange,5bde3d1a3ec77c0001bddc37,2021-09-27_20h03.34.787,forced_choiceRT_color,2021.2.3,MacIntel,59.84082341,,,,,,,,8,Ontime,long,d,1,1.9641,9,2,38,0,1,,,,,
,1.42,,,,,,,,,f,blue,5bde3d1a3ec77c0001bddc37,2021-09-27_20h03.34.787,forced_choiceRT_color,2021.2.3,MacIntel,59.84082341,,,,,,,,8,Ontime,long,f,1,1.939,9,3,39,1,1,,,,,
,,,,,,,,,,,,5bde3d1a3ec77c0001bddc37,2021-09-27_20h03.34.787,forced_choiceRT_color,2021.2.3,MacIntel,59.84082341,,,,,,,,,,,,,,,,,,,7,0,7,0,1
,1.65,,,,,,,,,k,purple,5bde3d1a3ec77c0001bddc37,2021-09-27_20h03.34.787,forced_choiceRT_color,2021.2.3,MacIntel,59.84082341,,,,,,,,9,Slow,long,k,1,2.1523,0,0,0,3,1,,,,,
,1.82,,,,,,,,,j,red,5bde3d1a3ec77c0001bddc37,2021-09-27_20h03.34.787,forced_choiceRT_color,2021.2.3,MacIntel,59.84082341,,,,,,,,9,Slow,long,j,1,2.2655,0,1,1,2,1,,,,,
,1.43,,,,,,,,,j,red,5bde3d1a3ec77c0001bddc37,2021-09-27_20h03.34.787,forced_choiceRT_color,2021.2.3,MacIntel,59.84082341,,,,,,,,9,Fast,long,j,1,1.8755,0,2,2,2,1,,,,,
,0.12,,,,,,,,,f,blue,5bde3d1a3ec77c0001bddc37,2021-09-27_20h03.34.787,forced_choiceRT_color,2021.2.3,MacIntel,59.84082341,,,,,,,,9,Ontime,long,f,1,1.909,0,3,3,1,1,,,,,
,1.8,,,,,,,,,d,orange,5bde3d1a3ec77c0001bddc37,2021-09-27_20h03.34.787,forced_choiceRT_color,2021.2.3,MacIntel,59.84082341,,,,,,,,9,Slow,long,d,1,2.3081,1,0,4,0,1,,,,,
,1.92,,,,,,,,,k,purple,5bde3d1a3ec77c0001bddc37,2021-09-27_20h03.34.787,forced_choiceRT_color,2021.2.3,MacIntel,59.84082341,,,,,,,,9,Slow,long,k,1,2.5759,1,1,5,3,1,,,,,
,1.57,,,,,,,,,d,orange,5bde3d1a3ec77c0001bddc37,2021-09-27_20h03.34.787,forced_choiceRT_color,2021.2.3,MacIntel,59.84082341,,,,,,,,9,Slow,long,d,1,2.1084,1,2,6,0,1,,,,,
,0.23,,,,,,,,,j,red,5bde3d1a3ec77c0001bddc37,2021-09-27_20h03.34.787,forced_choiceRT_color,2021.2.3,MacIntel,59.84082341,,,,,,,,9,Ontime,long,j,1,1.9932,1,3,7,2,1,,,,,
,0.81,,,,,,,,,d,orange,5bde3d1a3ec77c0001bddc37,2021-09-27_20h03.34.787,forced_choiceRT_color,2021.2.3,MacIntel,59.84082341,,,,,,,,9,Ontime,long,d,1,2.0104,2,0,8,0,1,,,,,
,1.98,,,,,,,,,f,blue,5bde3d1a3ec77c0001bddc37,2021-09-27_20h03.34.787,forced_choiceRT_color,2021.2.3,MacIntel,59.84082341,,,,,,,,9,Slow,long,j,0,2.2943,2,1,9,1,1,,,,,
,1,,,,,,,,,j,red,5bde3d1a3ec77c0001bddc37,2021-09-27_20h03.34.787,forced_choiceRT_color,2021.2.3,MacIntel,59.84082341,,,,,,,,9,Ontime,long,j,1,2.0105,2,2,10,2,1,,,,,
,1.97,,,,,,,,,j,red,5bde3d1a3ec77c0001bddc37,2021-09-27_20h03.34.787,forced_choiceRT_color,2021.2.3,MacIntel,59.84082341,,,,,,,,9,Slow,long,j,1,2.3277,2,3,11,2,1,,,,,
,0.46,,,,,,,,,k,purple,5bde3d1a3ec77c0001bddc37,2021-09-27_20h03.34.787,forced_choiceRT_color,2021.2.3,MacIntel,59.84082341,,,,,,,,9,Ontime,long,k,1,1.9428,3,0,12,3,1,,,,,
,0.05,,,,,,,,,d,orange,5bde3d1a3ec77c0001bddc37,2021-09-27_20h03.34.787,forced_choiceRT_color,2021.2.3,MacIntel,59.84082341,,,,,,,,9,Ontime,long,d,1,1.925,3,1,13,0,1,,,,,
,0.5,,,,,,,,,k,purple,5bde3d1a3ec77c0001bddc37,2021-09-27_20h03.34.787,forced_choiceRT_color,2021.2.3,MacIntel,59.84082341,,,,,,,,9,Ontime,long,k,1,1.959,3,2,14,3,1,,,,,
,0.5,,,,,,,,,j,red,5bde3d1a3ec77c0001bddc37,2021-09-27_20h03.34.787,forced_choiceRT_color,2021.2.3,MacIntel,59.84082341,,,,,,,,9,Ontime,long,j,1,1.9568,3,3,15,2,1,,,,,
,0.58,,,,,,,,,k,purple,5bde3d1a3ec77c0001bddc37,2021-09-27_20h03.34.787,forced_choiceRT_color,2021.2.3,MacIntel,59.84082341,,,,,,,,9,Fast,long,k,1,0.1014,4,0,16,3,1,,,,,
,1.28,,,,,,,,,k,purple,5bde3d1a3ec77c0001bddc37,2021-09-27_20h03.34.787,forced_choiceRT_color,2021.2.3,MacIntel,59.84082341,,,,,,,,9,Ontime,long,k,1,1.9094,4,1,17,3,1,,,,,
,1.85,,,,,,,,,j,red,5bde3d1a3ec77c0001bddc37,2021-09-27_20h03.34.787,forced_choiceRT_color,2021.2.3,MacIntel,59.84082341,,,,,,,,9,Slow,long,j,1,2.2001,4,2,18,2,1,,,,,
,0.21,,,,,,,,,j,red,5bde3d1a3ec77c0001bddc37,2021-09-27_20h03.34.787,forced_choiceRT_color,2021.2.3,MacIntel,59.84082341,,,,,,,,9,Ontime,long,j,1,2.0261,4,3,19,2,1,,,,,
,1.18,,,,,,,,,f,blue,5bde3d1a3ec77c0001bddc37,2021-09-27_20h03.34.787,forced_choiceRT_color,2021.2.3,MacIntel,59.84082341,,,,,,,,9,Fast,long,f,1,1.8916,5,0,20,1,1,,,,,
,1.15,,,,,,,,,k,purple,5bde3d1a3ec77c0001bddc37,2021-09-27_20h03.34.787,forced_choiceRT_color,2021.2.3,MacIntel,59.84082341,,,,,,,,9,Fast,long,k,1,1.8443,5,1,21,3,1,,,,,
,0.96,,,,,,,,,j,red,5bde3d1a3ec77c0001bddc37,2021-09-27_20h03.34.787,forced_choiceRT_color,2021.2.3,MacIntel,59.84082341,,,,,,,,9,Fast,long,j,1,1.8136,5,2,22,2,1,,,,,
,0.56,,,,,,,,,d,orange,5bde3d1a3ec77c0001bddc37,2021-09-27_20h03.34.787,forced_choiceRT_color,2021.2.3,MacIntel,59.84082341,,,,,,,,9,Ontime,long,d,1,2.0969,5,3,23,0,1,,,,,
,0.15,,,,,,,,,k,purple,5bde3d1a3ec77c0001bddc37,2021-09-27_20h03.34.787,forced_choiceRT_color,2021.2.3,MacIntel,59.84082341,,,,,,,,9,Ontime,long,k,1,1.9568,6,0,24,3,1,,,,,
,0.79,,,,,,,,,f,blue,5bde3d1a3ec77c0001bddc37,2021-09-27_20h03.34.787,forced_choiceRT_color,2021.2.3,MacIntel,59.84082341,,,,,,,,9,Fast,long,f,1,1.8925,6,1,25,1,1,,,,,
,0.32,,,,,,,,,d,orange,5bde3d1a3ec77c0001bddc37,2021-09-27_20h03.34.787,forced_choiceRT_color,2021.2.3,MacIntel,59.84082341,,,,,,,,9,Fast,long,d,1,1.8978,6,2,26,0,1,,,,,
,0.3,,,,,,,,,d,orange,5bde3d1a3ec77c0001bddc37,2021-09-27_20h03.34.787,forced_choiceRT_color,2021.2.3,MacIntel,59.84082341,,,,,,,,9,Ontime,long,d,1,2.0826,6,3,27,0,1,,,,,
,0.84,,,,,,,,,d,orange,5bde3d1a3ec77c0001bddc37,2021-09-27_20h03.34.787,forced_choiceRT_color,2021.2.3,MacIntel,59.84082341,,,,,,,,9,Slow,long,d,1,2.1065,7,0,28,0,1,,,,,
,1.32,,,,,,,,,k,purple,5bde3d1a3ec77c0001bddc37,2021-09-27_20h03.34.787,forced_choiceRT_color,2021.2.3,MacIntel,59.84082341,,,,,,,,9,Slow,long,k,1,2.2453,7,1,29,3,1,,,,,
,1.93,,,,,,,,,f,blue,5bde3d1a3ec77c0001bddc37,2021-09-27_20h03.34.787,forced_choiceRT_color,2021.2.3,MacIntel,59.84082341,,,,,,,,9,Slow,long,j,0,2.359,7,2,30,1,1,,,,,
,0.36,,,,,,,,,d,orange,5bde3d1a3ec77c0001bddc37,2021-09-27_20h03.34.787,forced_choiceRT_color,2021.2.3,MacIntel,59.84082341,,,,,,,,9,Ontime,long,d,1,1.9848,7,3,31,0,1,,,,,
,0.46,,,,,,,,,d,orange,5bde3d1a3ec77c0001bddc37,2021-09-27_20h03.34.787,forced_choiceRT_color,2021.2.3,MacIntel,59.84082341,,,,,,,,9,Ontime,long,d,1,1.9944,8,0,32,0,1,,,,,
,1.67,,,,,,,,,f,blue,5bde3d1a3ec77c0001bddc37,2021-09-27_20h03.34.787,forced_choiceRT_color,2021.2.3,MacIntel,59.84082341,,,,,,,,9,Slow,long,j,0,2.1589,8,1,33,1,1,,,,,
,1.26,,,,,,,,,f,blue,5bde3d1a3ec77c0001bddc37,2021-09-27_20h03.34.787,forced_choiceRT_color,2021.2.3,MacIntel,59.84082341,,,,,,,,9,Fast,long,f,1,1.8928,8,2,34,1,1,,,,,
,1.57,,,,,,,,,f,blue,5bde3d1a3ec77c0001bddc37,2021-09-27_20h03.34.787,forced_choiceRT_color,2021.2.3,MacIntel,59.84082341,,,,,,,,9,Slow,long,f,1,2.2091,8,3,35,1,1,,,,,
,0.43,,,,,,,,,j,red,5bde3d1a3ec77c0001bddc37,2021-09-27_20h03.34.787,forced_choiceRT_color,2021.2.3,MacIntel,59.84082341,,,,,,,,9,Ontime,long,j,1,2.0306,9,0,36,2,1,,,,,
,1.01,,,,,,,,,f,blue,5bde3d1a3ec77c0001bddc37,2021-09-27_20h03.34.787,forced_choiceRT_color,2021.2.3,MacIntel,59.84082341,,,,,,,,9,Ontime,long,f,1,1.9765,9,1,37,1,1,,,,,
,0.88,,,,,,,,,k,purple,5bde3d1a3ec77c0001bddc37,2021-09-27_20h03.34.787,forced_choiceRT_color,2021.2.3,MacIntel,59.84082341,,,,,,,,9,Ontime,long,k,1,2.0119,9,2,38,3,1,,,,,
,1.61,,,,,,,,,f,blue,5bde3d1a3ec77c0001bddc37,2021-09-27_20h03.34.787,forced_choiceRT_color,2021.2.3,MacIntel,59.84082341,,,,,,,,9,Ontime,long,f,1,2.096,9,3,39,1,1,,,,,
,,,,,,,,,,,,5bde3d1a3ec77c0001bddc37,2021-09-27_20h03.34.787,forced_choiceRT_color,2021.2.3,MacIntel,59.84082341,,,,,,,,,,,,,,,,,,,8,0,8,0,1
,1.97,,,,,,,,,f,blue,5bde3d1a3ec77c0001bddc37,2021-09-27_20h03.34.787,forced_choiceRT_color,2021.2.3,MacIntel,59.84082341,,,,,,,,10,Slow,long,f,1,2.7527,0,0,0,1,1,,,,,
,1.39,,,,,,,,,k,purple,5bde3d1a3ec77c0001bddc37,2021-09-27_20h03.34.787,forced_choiceRT_color,2021.2.3,MacIntel,59.84082341,,,,,,,,10,Ontime,long,k,1,1.9424,0,1,1,3,1,,,,,
,0.28,,,,,,,,,j,red,5bde3d1a3ec77c0001bddc37,2021-09-27_20h03.34.787,forced_choiceRT_color,2021.2.3,MacIntel,59.84082341,,,,,,,,10,Ontime,long,j,1,2.043,0,2,2,2,1,,,,,
,0.09,,,,,,,,,d,orange,5bde3d1a3ec77c0001bddc37,2021-09-27_20h03.34.787,forced_choiceRT_color,2021.2.3,MacIntel,59.84082341,,,,,,,,10,Ontime,long,d,1,1.9471,0,3,3,0,1,,,,,
,0.33,,,,,,,,,d,orange,5bde3d1a3ec77c0001bddc37,2021-09-27_20h03.34.787,forced_choiceRT_color,2021.2.3,MacIntel,59.84082341,,,,,,,,10,Fast,long,d,1,1.8992,1,0,4,0,1,,,,,
,0.89,,,,,,,,,d,orange,5bde3d1a3ec77c0001bddc37,2021-09-27_20h03.34.787,forced_choiceRT_color,2021.2.3,MacIntel,59.84082341,,,,,,,,10,Ontime,long,d,1,2.011,1,1,5,0,1,,,,,
,0.06,,,,,,,,,k,purple,5bde3d1a3ec77c0001bddc37,2021-09-27_20h03.34.787,forced_choiceRT_color,2021.2.3,MacIntel,59.84082341,,,,,,,,10,Ontime,long,k,1,2.0584,1,2,6,3,1,,,,,
,1.97,,,,,,,,,k,purple,5bde3d1a3ec77c0001bddc37,2021-09-27_20h03.34.787,forced_choiceRT_color,2021.2.3,MacIntel,59.84082341,,,,,,,,10,Slow,long,j,0,2.2435,1,3,7,3,1,,,,,
,0.85,,,,,,,,,f,blue,5bde3d1a3ec77c0001bddc37,2021-09-27_20h03.34.787,forced_choiceRT_color,2021.2.3,MacIntel,59.84082341,,,,,,,,10,Ontime,long,f,1,2.024,2,0,8,1,1,,,,,
,1.11,,,,,,,,,j,red,5bde3d1a3ec77c0001bddc37,2021-09-27_20h03.34.787,forced_choiceRT_color,2021.2.3,MacIntel,59.84082341,,,,,,,,10,Ontime,long,j,1,2.0302,2,1,9,2,1,,,,,
,1.11,,,,,,,,,k,purple,5bde3d1a3ec77c0001bddc37,2021-09-27_20h03.34.787,forced_choiceRT_color,2021.2.3,MacIntel,59.84082341,,,,,,,,10,Ontime,long,k,1,1.9155,2,2,10,3,1,,,,,
,0.49,,,,,,,,,f,blue,5bde3d1a3ec77c0001bddc37,2021-09-27_20h03.34.787,forced_choiceRT_color,2021.2.3,MacIntel,59.84082341,,,,,,,,10,Ontime,long,f,1,1.9423,2,3,11,1,1,,,,,
,0.44,,,,,,,,,f,blue,5bde3d1a3ec77c0001bddc37,2021-09-27_20h03.34.787,forced_choiceRT_color,2021.2.3,MacIntel,59.84082341,,,,,,,,10,Ontime,long,f,1,1.9435,3,0,12,1,1,,,,,
,0.65,,,,,,,,,f,blue,5bde3d1a3ec77c0001bddc37,2021-09-27_20h03.34.787,forced_choiceRT_color,2021.2.3,MacIntel,59.84082341,,,,,,,,10,Ontime,long,f,1,1.978,3,1,13,1,1,,,,,
,1.14,,,,,,,,,f,blue,5bde3d1a3ec77c0001bddc37,2021-09-27_20h03.34.787,forced_choiceRT_color,2021.2.3,MacIntel,59.84082341,,,,,,,,10,Ontime,long,f,1,1.9621,3,2,14,1,1,,,,,
,1.33,,,,,,,,,k,purple,5bde3d1a3ec77c0001bddc37,2021-09-27_20h03.34.787,forced_choiceRT_color,2021.2.3,MacIntel,59.84082341,,,,,,,,10,Ontime,long,k,1,1.9237,3,3,15,3,1,,,,,
,0.04,,,,,,,,,j,red,5bde3d1a3ec77c0001bddc37,2021-09-27_20h03.34.787,forced_choiceRT_color,2021.2.3,MacIntel,59.84082341,,,,,,,,10,Ontime,long,j,1,1.974,4,0,16,2,1,,,,,
,1.63,,,,,,,,,d,orange,5bde3d1a3ec77c0001bddc37,2021-09-27_20h03.34.787,forced_choiceRT_color,2021.2.3,MacIntel,59.84082341,,,,,,,,10,Ontime,long,d,1,2.0837,4,1,17,0,1,,,,,
,1.23,,,,,,,,,f,blue,5bde3d1a3ec77c0001bddc37,2021-09-27_20h03.34.787,forced_choiceRT_color,2021.2.3,MacIntel,59.84082341,,,,,,,,10,Ontime,long,f,1,2.0458,4,2,18,1,1,,,,,
,0.48,,,,,,,,,f,blue,5bde3d1a3ec77c0001bddc37,2021-09-27_20h03.34.787,forced_choiceRT_color,2021.2.3,MacIntel,59.84082341,,,,,,,,10,Ontime,long,f,1,1.9759,4,3,19,1,1,,,,,
,0.71,,,,,,,,,k,purple,5bde3d1a3ec77c0001bddc37,2021-09-27_20h03.34.787,forced_choiceRT_color,2021.2.3,MacIntel,59.84082341,,,,,,,,10,Ontime,long,k,1,1.954,5,0,20,3,1,,,,,
,0.64,,,,,,,,,d,orange,5bde3d1a3ec77c0001bddc37,2021-09-27_20h03.34.787,forced_choiceRT_color,2021.2.3,MacIntel,59.84082341,,,,,,,,10,Ontime,long,d,1,1.9583,5,1,21,0,1,,,,,
,0.48,,,,,,,,,d,orange,5bde3d1a3ec77c0001bddc37,2021-09-27_20h03.34.787,forced_choiceRT_color,2021.2.3,MacIntel,59.84082341,,,,,,,,10,Ontime,long,d,1,1.9308,5,2,22,0,1,,,,,
,1.68,,,,,,,,,k,purple,5bde3d1a3ec77c0001bddc37,2021-09-27_20h03.34.787,forced_choiceRT_color,2021.2.3,MacIntel,59.84082341,,,,,,,,10,Slow,long,j,0,2.2329,5,3,23,3,1,,,,,
,0.22,,,,,,,,,j,red,5bde3d1a3ec77c0001bddc37,2021-09-27_20h03.34.787,forced_choiceRT_color,2021.2.3,MacIntel,59.84082341,,,,,,,,10,Ontime,long,j,1,1.9763,6,0,24,2,1,,,,,
,0.67,,,,,,,,,d,orange,5bde3d1a3ec77c0001bddc37,2021-09-27_20h03.34.787,forced_choiceRT_color,2021.2.3,MacIntel,59.84082341,,,,,,,,10,Ontime,long,d,1,1.9452,6,1,25,0,1,,,,,
,0.05,,,,,,,,,j,red,5bde3d1a3ec77c0001bddc37,2021-09-27_20h03.34.787,forced_choiceRT_color,2021.2.3,MacIntel,59.84082341,,,,,,,,10,Ontime,long,j,1,1.9989,6,2,26,2,1,,,,,
,1.72,,,,,,,,,f,blue,5bde3d1a3ec77c0001bddc37,2021-09-27_20h03.34.787,forced_choiceRT_color,2021.2.3,MacIntel,59.84082341,,,,,,,,10,Slow,long,f,1,2.1398,6,3,27,1,1,,,,,
,0.94,,,,,,,,,k,purple,5bde3d1a3ec77c0001bddc37,2021-09-27_20h03.34.787,forced_choiceRT_color,2021.2.3,MacIntel,59.84082341,,,,,,,,10,Ontime,long,k,1,1.9242,7,0,28,3,1,,,,,
,0.47,,,,,,,,,j,red,5bde3d1a3ec77c0001bddc37,2021-09-27_20h03.34.787,forced_choiceRT_color,2021.2.3,MacIntel,59.84082341,,,,,,,,10,Ontime,long,j,1,2.0273,7,1,29,2,1,,,,,
,0.81,,,,,,,,,k,purple,5bde3d1a3ec77c0001bddc37,2021-09-27_20h03.34.787,forced_choiceRT_color,2021.2.3,MacIntel,59.84082341,,,,,,,,10,Fast,long,k,1,1.8796,7,2,30,3,1,,,,,
,0.53,,,,,,,,,k,purple,5bde3d1a3ec77c0001bddc37,2021-09-27_20h03.34.787,forced_choiceRT_color,2021.2.3,MacIntel,59.84082341,,,,,,,,10,Ontime,long,k,1,2.0456,7,3,31,3,1,,,,,
,0.59,,,,,,,,,j,red,5bde3d1a3ec77c0001bddc37,2021-09-27_20h03.34.787,forced_choiceRT_color,2021.2.3,MacIntel,59.84082341,,,,,,,,10,Ontime,long,j,1,2.0504,8,0,32,2,1,,,,,
,1.53,,,,,,,,,j,red,5bde3d1a3ec77c0001bddc37,2021-09-27_20h03.34.787,forced_choiceRT_color,2021.2.3,MacIntel,59.84082341,,,,,,,,10,Slow,long,j,1,2.1116,8,1,33,2,1,,,,,
,0.61,,,,,,,,,d,orange,5bde3d1a3ec77c0001bddc37,2021-09-27_20h03.34.787,forced_choiceRT_color,2021.2.3,MacIntel,59.84082341,,,,,,,,10,Ontime,long,d,1,1.9494,8,2,34,0,1,,,,,
,0.24,,,,,,,,,j,red,5bde3d1a3ec77c0001bddc37,2021-09-27_20h03.34.787,forced_choiceRT_color,2021.2.3,MacIntel,59.84082341,,,,,,,,10,Ontime,long,j,1,1.9946,8,3,35,2,1,,,,,
,0.22,,,,,,,,,d,orange,5bde3d1a3ec77c0001bddc37,2021-09-27_20h03.34.787,forced_choiceRT_color,2021.2.3,MacIntel,59.84082341,,,,,,,,10,Ontime,long,d,1,1.9763,9,0,36,0,1,,,,,
,0.84,,,,,,,,,d,orange,5bde3d1a3ec77c0001bddc37,2021-09-27_20h03.34.787,forced_choiceRT_color,2021.2.3,MacIntel,59.84082341,,,,,,,,10,Ontime,long,d,1,1.9966,9,1,37,0,1,,,,,
,0.09,,,,,,,,,j,red,5bde3d1a3ec77c0001bddc37,2021-09-27_20h03.34.787,forced_choiceRT_color,2021.2.3,MacIntel,59.84082341,,,,,,,,10,Ontime,long,j,1,1.9391,9,2,38,2,1,,,,,
,1.67,,,,,,,,,f,blue,5bde3d1a3ec77c0001bddc37,2021-09-27_20h03.34.787,forced_choiceRT_color,2021.2.3,MacIntel,59.84082341,,,,,,,,10,Slow,long,f,1,2.3077,9,3,39,1,1,,,,,
,,,,,,,,,,,,5bde3d1a3ec77c0001bddc37,2021-09-27_20h03.34.787,forced_choiceRT_color,2021.2.3,MacIntel,59.84082341,,,,,,,,,,,,,,,,,,,9,0,9,0,1
