target_onset,trial_resp_sp.keys,trial_resp_sp.corr,trial_resp_sp.rt,trials_train_loop.thisRepN,trials_train_loop.thisTrialN,trials_train_loop.thisN,trials_train_loop.thisIndex,trials_train_loop.ran,correct_key,color,participant,date,expName,psychopyVersion,OS,frameRate,trial_resp_timing.keys,trial_resp_timing.rt,trials_train_timing.thisRepN,trials_train_timing.thisTrialN,trials_train_timing.thisN,trials_train_timing.thisIndex,trials_train_timing.ran,block_id,ontime,feedback_cond,forcedRT_resp.keys,forcedRT_resp.corr,forcedRT_resp.rt,trials.thisRepN,trials.thisTrialN,trials.thisN,trials.thisIndex,trials.ran,blocks.thisRepN,blocks.thisTrialN,blocks.thisN,blocks.thisIndex,blocks.ran
0,f,0,1.1011,0,0,0,0,1,d,orange,5c276057336b1500015078e9,2021-09-27_17h19.49.884,forced_choiceRT_color,2021.2.3,Linux x86_64,60.0132029,,,,,,,,,,,,,,,,,,,,,,,
0,d,1,4.7609,0,1,1,0,1,d,orange,5c276057336b1500015078e9,2021-09-27_17h19.49.884,forced_choiceRT_color,2021.2.3,Linux x86_64,60.0132029,,,,,,,,,,,,,,,,,,,,,,,
0,d,1,0.702,0,2,2,0,1,d,orange,5c276057336b1500015078e9,2021-09-27_17h19.49.884,forced_choiceRT_color,2021.2.3,Linux x86_64,60.0132029,,,,,,,,,,,,,,,,,,,,,,,
0,k,1,2.5755,0,3,3,3,1,k,purple,5c276057336b1500015078e9,2021-09-27_17h19.49.884,forced_choiceRT_color,2021.2.3,Linux x86_64,60.0132029,,,,,,,,,,,,,,,,,,,,,,,
0,j,1,0.8754,1,0,4,2,1,j,red,5c276057336b1500015078e9,2021-09-27_17h19.49.884,forced_choiceRT_color,2021.2.3,Linux x86_64,60.0132029,,,,,,,,,,,,,,,,,,,,,,,
0,k,1,0.6825,1,1,5,3,1,k,purple,5c276057336b1500015078e9,2021-09-27_17h19.49.884,forced_choiceRT_color,2021.2.3,Linux x86_64,60.0132029,,,,,,,,,,,,,,,,,,,,,,,
0,k,1,0.5624,1,2,6,3,1,k,purple,5c276057336b1500015078e9,2021-09-27_17h19.49.884,forced_choiceRT_color,2021.2.3,Linux x86_64,60.0132029,,,,,,,,,,,,,,,,,,,,,,,
0,d,1,0.6876,1,3,7,0,1,d,orange,5c276057336b1500015078e9,2021-09-27_17h19.49.884,forced_choiceRT_color,2021.2.3,Linux x86_64,60.0132029,,,,,,,,,,,,,,,,,,,,,,,
0,k,1,0.6149,2,0,8,3,1,k,purple,5c276057336b1500015078e9,2021-09-27_17h19.49.884,forced_choiceRT_color,2021.2.3,Linux x86_64,60.0132029,,,,,,,,,,,,,,,,,,,,,,,
0,f,1,0.5135,2,1,9,1,1,f,blue,5c276057336b1500015078e9,2021-09-27_17h19.49.884,forced_choiceRT_color,2021.2.3,Linux x86_64,60.0132029,,,,,,,,,,,,,,,,,,,,,,,
0,f,1,0.5277,2,2,10,1,1,f,blue,5c276057336b1500015078e9,2021-09-27_17h19.49.884,forced_choiceRT_color,2021.2.3,Linux x86_64,60.0132029,,,,,,,,,,,,,,,,,,,,,,,
0,j,1,0.7594,2,3,11,2,1,j,red,5c276057336b1500015078e9,2021-09-27_17h19.49.884,forced_choiceRT_color,2021.2.3,Linux x86_64,60.0132029,,,,,,,,,,,,,,,,,,,,,,,
0,k,1,0.5071,3,0,12,3,1,k,purple,5c276057336b1500015078e9,2021-09-27_17h19.49.884,forced_choiceRT_color,2021.2.3,Linux x86_64,60.0132029,,,,,,,,,,,,,,,,,,,,,,,
0,j,1,0.6471,3,1,13,2,1,j,red,5c276057336b1500015078e9,2021-09-27_17h19.49.884,forced_choiceRT_color,2021.2.3,Linux x86_64,60.0132029,,,,,,,,,,,,,,,,,,,,,,,
0,f,1,0.617,3,2,14,1,1,f,blue,5c276057336b1500015078e9,2021-09-27_17h19.49.884,forced_choiceRT_color,2021.2.3,Linux x86_64,60.0132029,,,,,,,,,,,,,,,,,,,,,,,
0,f,1,0.5483,3,3,15,1,1,f,blue,5c276057336b1500015078e9,2021-09-27_17h19.49.884,forced_choiceRT_color,2021.2.3,Linux x86_64,60.0132029,,,,,,,,,,,,,,,,,,,,,,,
0,f,1,0.5361,4,0,16,1,1,f,blue,5c276057336b1500015078e9,2021-09-27_17h19.49.884,forced_choiceRT_color,2021.2.3,Linux x86_64,60.0132029,,,,,,,,,,,,,,,,,,,,,,,
0,k,1,0.5678,4,1,17,3,1,k,purple,5c276057336b1500015078e9,2021-09-27_17h19.49.884,forced_choiceRT_color,2021.2.3,Linux x86_64,60.0132029,,,,,,,,,,,,,,,,,,,,,,,
0,j,1,0.6328,4,2,18,2,1,j,red,5c276057336b1500015078e9,2021-09-27_17h19.49.884,forced_choiceRT_color,2021.2.3,Linux x86_64,60.0132029,,,,,,,,,,,,,,,,,,,,,,,
0,k,1,0.4865,4,3,19,3,1,k,purple,5c276057336b1500015078e9,2021-09-27_17h19.49.884,forced_choiceRT_color,2021.2.3,Linux x86_64,60.0132029,,,,,,,,,,,,,,,,,,,,,,,
0,k,1,0.6628,5,0,20,3,1,k,purple,5c276057336b1500015078e9,2021-09-27_17h19.49.884,forced_choiceRT_color,2021.2.3,Linux x86_64,60.0132029,,,,,,,,,,,,,,,,,,,,,,,
0,d,1,0.5698,5,1,21,0,1,d,orange,5c276057336b1500015078e9,2021-09-27_17h19.49.884,forced_choiceRT_color,2021.2.3,Linux x86_64,60.0132029,,,,,,,,,,,,,,,,,,,,,,,
0,d,1,0.4373,5,2,22,0,1,d,orange,5c276057336b1500015078e9,2021-09-27_17h19.49.884,forced_choiceRT_color,2021.2.3,Linux x86_64,60.0132029,,,,,,,,,,,,,,,,,,,,,,,
0,f,1,0.5932,5,3,23,1,1,f,blue,5c276057336b1500015078e9,2021-09-27_17h19.49.884,forced_choiceRT_color,2021.2.3,Linux x86_64,60.0132029,,,,,,,,,,,,,,,,,,,,,,,
0,f,1,0.3992,6,0,24,1,1,f,blue,5c276057336b1500015078e9,2021-09-27_17h19.49.884,forced_choiceRT_color,2021.2.3,Linux x86_64,60.0132029,,,,,,,,,,,,,,,,,,,,,,,
0,k,1,0.6268,6,1,25,3,1,k,purple,5c276057336b1500015078e9,2021-09-27_17h19.49.884,forced_choiceRT_color,2021.2.3,Linux x86_64,60.0132029,,,,,,,,,,,,,,,,,,,,,,,
0,k,1,0.42,6,2,26,3,1,k,purple,5c276057336b1500015078e9,2021-09-27_17h19.49.884,forced_choiceRT_color,2021.2.3,Linux x86_64,60.0132029,,,,,,,,,,,,,,,,,,,,,,,
0,d,1,0.7607,6,3,27,0,1,d,orange,5c276057336b1500015078e9,2021-09-27_17h19.49.884,forced_choiceRT_color,2021.2.3,Linux x86_64,60.0132029,,,,,,,,,,,,,,,,,,,,,,,
0,d,1,0.3725,7,0,28,0,1,d,orange,5c276057336b1500015078e9,2021-09-27_17h19.49.884,forced_choiceRT_color,2021.2.3,Linux x86_64,60.0132029,,,,,,,,,,,,,,,,,,,,,,,
0,d,1,0.4288,7,1,29,0,1,d,orange,5c276057336b1500015078e9,2021-09-27_17h19.49.884,forced_choiceRT_color,2021.2.3,Linux x86_64,60.0132029,,,,,,,,,,,,,,,,,,,,,,,
0,j,1,0.6316,7,2,30,2,1,j,red,5c276057336b1500015078e9,2021-09-27_17h19.49.884,forced_choiceRT_color,2021.2.3,Linux x86_64,60.0132029,,,,,,,,,,,,,,,,,,,,,,,
0,f,1,0.6382,7,3,31,1,1,f,blue,5c276057336b1500015078e9,2021-09-27_17h19.49.884,forced_choiceRT_color,2021.2.3,Linux x86_64,60.0132029,,,,,,,,,,,,,,,,,,,,,,,
0,d,1,0.5565,8,0,32,0,1,d,orange,5c276057336b1500015078e9,2021-09-27_17h19.49.884,forced_choiceRT_color,2021.2.3,Linux x86_64,60.0132029,,,,,,,,,,,,,,,,,,,,,,,
0,f,1,0.6218,8,1,33,1,1,f,blue,5c276057336b1500015078e9,2021-09-27_17h19.49.884,forced_choiceRT_color,2021.2.3,Linux x86_64,60.0132029,,,,,,,,,,,,,,,,,,,,,,,
0,f,1,0.5057,8,2,34,1,1,f,blue,5c276057336b1500015078e9,2021-09-27_17h19.49.884,forced_choiceRT_color,2021.2.3,Linux x86_64,60.0132029,,,,,,,,,,,,,,,,,,,,,,,
0,j,1,0.5994,8,3,35,2,1,j,red,5c276057336b1500015078e9,2021-09-27_17h19.49.884,forced_choiceRT_color,2021.2.3,Linux x86_64,60.0132029,,,,,,,,,,,,,,,,,,,,,,,
0,j,1,0.4371,9,0,36,2,1,j,red,5c276057336b1500015078e9,2021-09-27_17h19.49.884,forced_choiceRT_color,2021.2.3,Linux x86_64,60.0132029,,,,,,,,,,,,,,,,,,,,,,,
0,k,1,0.5979,9,1,37,3,1,k,purple,5c276057336b1500015078e9,2021-09-27_17h19.49.884,forced_choiceRT_color,2021.2.3,Linux x86_64,60.0132029,,,,,,,,,,,,,,,,,,,,,,,
0,d,1,0.536,9,2,38,0,1,d,orange,5c276057336b1500015078e9,2021-09-27_17h19.49.884,forced_choiceRT_color,2021.2.3,Linux x86_64,60.0132029,,,,,,,,,,,,,,,,,,,,,,,
0,k,1,0.6183,9,3,39,3,1,k,purple,5c276057336b1500015078e9,2021-09-27_17h19.49.884,forced_choiceRT_color,2021.2.3,Linux x86_64,60.0132029,,,,,,,,,,,,,,,,,,,,,,,
0,j,1,0.6186,10,0,40,2,1,j,red,5c276057336b1500015078e9,2021-09-27_17h19.49.884,forced_choiceRT_color,2021.2.3,Linux x86_64,60.0132029,,,,,,,,,,,,,,,,,,,,,,,
0,f,1,0.5422,10,1,41,1,1,f,blue,5c276057336b1500015078e9,2021-09-27_17h19.49.884,forced_choiceRT_color,2021.2.3,Linux x86_64,60.0132029,,,,,,,,,,,,,,,,,,,,,,,
0,j,1,0.4681,10,2,42,2,1,j,red,5c276057336b1500015078e9,2021-09-27_17h19.49.884,forced_choiceRT_color,2021.2.3,Linux x86_64,60.0132029,,,,,,,,,,,,,,,,,,,,,,,
0,k,1,0.6133,10,3,43,3,1,k,purple,5c276057336b1500015078e9,2021-09-27_17h19.49.884,forced_choiceRT_color,2021.2.3,Linux x86_64,60.0132029,,,,,,,,,,,,,,,,,,,,,,,
0,k,0,0.4607,11,0,44,2,1,j,red,5c276057336b1500015078e9,2021-09-27_17h19.49.884,forced_choiceRT_color,2021.2.3,Linux x86_64,60.0132029,,,,,,,,,,,,,,,,,,,,,,,
0,j,1,0.515,11,1,45,2,1,j,red,5c276057336b1500015078e9,2021-09-27_17h19.49.884,forced_choiceRT_color,2021.2.3,Linux x86_64,60.0132029,,,,,,,,,,,,,,,,,,,,,,,
0,d,1,0.6479,11,2,46,0,1,d,orange,5c276057336b1500015078e9,2021-09-27_17h19.49.884,forced_choiceRT_color,2021.2.3,Linux x86_64,60.0132029,,,,,,,,,,,,,,,,,,,,,,,
0,d,1,0.4289,11,3,47,0,1,d,orange,5c276057336b1500015078e9,2021-09-27_17h19.49.884,forced_choiceRT_color,2021.2.3,Linux x86_64,60.0132029,,,,,,,,,,,,,,,,,,,,,,,
0,d,1,0.3958,12,0,48,0,1,d,orange,5c276057336b1500015078e9,2021-09-27_17h19.49.884,forced_choiceRT_color,2021.2.3,Linux x86_64,60.0132029,,,,,,,,,,,,,,,,,,,,,,,
0,f,1,0.5163,12,1,49,1,1,f,blue,5c276057336b1500015078e9,2021-09-27_17h19.49.884,forced_choiceRT_color,2021.2.3,Linux x86_64,60.0132029,,,,,,,,,,,,,,,,,,,,,,,
0,f,1,0.4701,12,2,50,1,1,f,blue,5c276057336b1500015078e9,2021-09-27_17h19.49.884,forced_choiceRT_color,2021.2.3,Linux x86_64,60.0132029,,,,,,,,,,,,,,,,,,,,,,,
0,f,1,0.4331,12,3,51,1,1,f,blue,5c276057336b1500015078e9,2021-09-27_17h19.49.884,forced_choiceRT_color,2021.2.3,Linux x86_64,60.0132029,,,,,,,,,,,,,,,,,,,,,,,
0,d,1,0.555,13,0,52,0,1,d,orange,5c276057336b1500015078e9,2021-09-27_17h19.49.884,forced_choiceRT_color,2021.2.3,Linux x86_64,60.0132029,,,,,,,,,,,,,,,,,,,,,,,
0,k,1,0.5867,13,1,53,3,1,k,purple,5c276057336b1500015078e9,2021-09-27_17h19.49.884,forced_choiceRT_color,2021.2.3,Linux x86_64,60.0132029,,,,,,,,,,,,,,,,,,,,,,,
0,k,1,0.4206,13,2,54,3,1,k,purple,5c276057336b1500015078e9,2021-09-27_17h19.49.884,forced_choiceRT_color,2021.2.3,Linux x86_64,60.0132029,,,,,,,,,,,,,,,,,,,,,,,
0,j,1,0.591,13,3,55,2,1,j,red,5c276057336b1500015078e9,2021-09-27_17h19.49.884,forced_choiceRT_color,2021.2.3,Linux x86_64,60.0132029,,,,,,,,,,,,,,,,,,,,,,,
0,j,1,0.4683,14,0,56,2,1,j,red,5c276057336b1500015078e9,2021-09-27_17h19.49.884,forced_choiceRT_color,2021.2.3,Linux x86_64,60.0132029,,,,,,,,,,,,,,,,,,,,,,,
0,j,1,0.4367,14,1,57,2,1,j,red,5c276057336b1500015078e9,2021-09-27_17h19.49.884,forced_choiceRT_color,2021.2.3,Linux x86_64,60.0132029,,,,,,,,,,,,,,,,,,,,,,,
0,j,1,0.4032,14,2,58,2,1,j,red,5c276057336b1500015078e9,2021-09-27_17h19.49.884,forced_choiceRT_color,2021.2.3,Linux x86_64,60.0132029,,,,,,,,,,,,,,,,,,,,,,,
0,f,1,0.5499,14,3,59,1,1,f,blue,5c276057336b1500015078e9,2021-09-27_17h19.49.884,forced_choiceRT_color,2021.2.3,Linux x86_64,60.0132029,,,,,,,,,,,,,,,,,,,,,,,
,,,,,,,,,,,5c276057336b1500015078e9,2021-09-27_17h19.49.884,forced_choiceRT_color,2021.2.3,Linux x86_64,60.0132029,j,2.266,0,0,0,0,1,,,,,,,,,,,,,,,,
,,,,,,,,,,,5c276057336b1500015078e9,2021-09-27_17h19.49.884,forced_choiceRT_color,2021.2.3,Linux x86_64,60.0132029,j,2.0618,1,0,1,0,1,,,,,,,,,,,,,,,,
,,,,,,,,,,,5c276057336b1500015078e9,2021-09-27_17h19.49.884,forced_choiceRT_color,2021.2.3,Linux x86_64,60.0132029,j,1.9164,2,0,2,0,1,,,,,,,,,,,,,,,,
,,,,,,,,,,,5c276057336b1500015078e9,2021-09-27_17h19.49.884,forced_choiceRT_color,2021.2.3,Linux x86_64,60.0132029,j,1.9617,3,0,3,0,1,,,,,,,,,,,,,,,,
,,,,,,,,,,,5c276057336b1500015078e9,2021-09-27_17h19.49.884,forced_choiceRT_color,2021.2.3,Linux x86_64,60.0132029,j,1.8464,4,0,4,0,1,,,,,,,,,,,,,,,,
,,,,,,,,,,,5c276057336b1500015078e9,2021-09-27_17h19.49.884,forced_choiceRT_color,2021.2.3,Linux x86_64,60.0132029,j,1.8735,5,0,5,0,1,,,,,,,,,,,,,,,,
,,,,,,,,,,,5c276057336b1500015078e9,2021-09-27_17h19.49.884,forced_choiceRT_color,2021.2.3,Linux x86_64,60.0132029,j,2.0283,6,0,6,0,1,,,,,,,,,,,,,,,,
,,,,,,,,,,,5c276057336b1500015078e9,2021-09-27_17h19.49.884,forced_choiceRT_color,2021.2.3,Linux x86_64,60.0132029,j,1.7724,7,0,7,0,1,,,,,,,,,,,,,,,,
,,,,,,,,,,,5c276057336b1500015078e9,2021-09-27_17h19.49.884,forced_choiceRT_color,2021.2.3,Linux x86_64,60.0132029,j,2.0098,8,0,8,0,1,,,,,,,,,,,,,,,,
,,,,,,,,,,,5c276057336b1500015078e9,2021-09-27_17h19.49.884,forced_choiceRT_color,2021.2.3,Linux x86_64,60.0132029,j,2.0516,9,0,9,0,1,,,,,,,,,,,,,,,,
,,,,,,,,,,,5c276057336b1500015078e9,2021-09-27_17h19.49.884,forced_choiceRT_color,2021.2.3,Linux x86_64,60.0132029,j,2.0691,10,0,10,0,1,,,,,,,,,,,,,,,,
,,,,,,,,,,,5c276057336b1500015078e9,2021-09-27_17h19.49.884,forced_choiceRT_color,2021.2.3,Linux x86_64,60.0132029,j,1.9862,11,0,11,0,1,,,,,,,,,,,,,,,,
,,,,,,,,,,,5c276057336b1500015078e9,2021-09-27_17h19.49.884,forced_choiceRT_color,2021.2.3,Linux x86_64,60.0132029,f,1.9611,12,0,12,0,1,,,,,,,,,,,,,,,,
,,,,,,,,,,,5c276057336b1500015078e9,2021-09-27_17h19.49.884,forced_choiceRT_color,2021.2.3,Linux x86_64,60.0132029,f,1.9199,13,0,13,0,1,,,,,,,,,,,,,,,,
,,,,,,,,,,,5c276057336b1500015078e9,2021-09-27_17h19.49.884,forced_choiceRT_color,2021.2.3,Linux x86_64,60.0132029,k,1.9504,14,0,14,0,1,,,,,,,,,,,,,,,,
,,,,,,,,,,,5c276057336b1500015078e9,2021-09-27_17h19.49.884,forced_choiceRT_color,2021.2.3,Linux x86_64,60.0132029,d,1.9251,15,0,15,0,1,,,,,,,,,,,,,,,,
,,,,,,,,,,,5c276057336b1500015078e9,2021-09-27_17h19.49.884,forced_choiceRT_color,2021.2.3,Linux x86_64,60.0132029,d,2.1174,16,0,16,0,1,,,,,,,,,,,,,,,,
,,,,,,,,,,,5c276057336b1500015078e9,2021-09-27_17h19.49.884,forced_choiceRT_color,2021.2.3,Linux x86_64,60.0132029,k,1.9384,17,0,17,0,1,,,,,,,,,,,,,,,,
,,,,,,,,,,,5c276057336b1500015078e9,2021-09-27_17h19.49.884,forced_choiceRT_color,2021.2.3,Linux x86_64,60.0132029,j,1.9238,18,0,18,0,1,,,,,,,,,,,,,,,,
,,,,,,,,,,,5c276057336b1500015078e9,2021-09-27_17h19.49.884,forced_choiceRT_color,2021.2.3,Linux x86_64,60.0132029,j,2.0003,19,0,19,0,1,,,,,,,,,,,,,,,,
0.78,,,,,,,,,k,purple,5c276057336b1500015078e9,2021-09-27_17h19.49.884,forced_choiceRT_color,2021.2.3,Linux x86_64,60.0132029,,,,,,,,1,Slow,short,j,0,2.3285,0,0,0,3,1,,,,,
1.6,,,,,,,,,d,orange,5c276057336b1500015078e9,2021-09-27_17h19.49.884,forced_choiceRT_color,2021.2.3,Linux x86_64,60.0132029,,,,,,,,1,Slow,short,d,1,2.2721,0,1,1,0,1,,,,,
0.82,,,,,,,,,f,blue,5c276057336b1500015078e9,2021-09-27_17h19.49.884,forced_choiceRT_color,2021.2.3,Linux x86_64,60.0132029,,,,,,,,1,Ontime,short,f,1,1.9376,0,2,2,1,1,,,,,
1.22,,,,,,,,,j,red,5c276057336b1500015078e9,2021-09-27_17h19.49.884,forced_choiceRT_color,2021.2.3,Linux x86_64,60.0132029,,,,,,,,1,Ontime,short,j,1,2.058,0,3,3,2,1,,,,,
1.35,,,,,,,,,k,purple,5c276057336b1500015078e9,2021-09-27_17h19.49.884,forced_choiceRT_color,2021.2.3,Linux x86_64,60.0132029,,,,,,,,1,Ontime,short,k,1,1.952,1,0,4,3,1,,,,,
1.16,,,,,,,,,d,orange,5c276057336b1500015078e9,2021-09-27_17h19.49.884,forced_choiceRT_color,2021.2.3,Linux x86_64,60.0132029,,,,,,,,1,Ontime,short,d,1,2.049,1,1,5,0,1,,,,,
0.16,,,,,,,,,d,orange,5c276057336b1500015078e9,2021-09-27_17h19.49.884,forced_choiceRT_color,2021.2.3,Linux x86_64,60.0132029,,,,,,,,1,Ontime,short,d,1,1.9052,1,2,6,0,1,,,,,
1.09,,,,,,,,,d,orange,5c276057336b1500015078e9,2021-09-27_17h19.49.884,forced_choiceRT_color,2021.2.3,Linux x86_64,60.0132029,,,,,,,,1,Ontime,short,d,1,1.9819,1,3,7,0,1,,,,,
0.22,,,,,,,,,f,blue,5c276057336b1500015078e9,2021-09-27_17h19.49.884,forced_choiceRT_color,2021.2.3,Linux x86_64,60.0132029,,,,,,,,1,Slow,short,f,1,2.1154,2,0,8,1,1,,,,,
1.38,,,,,,,,,k,purple,5c276057336b1500015078e9,2021-09-27_17h19.49.884,forced_choiceRT_color,2021.2.3,Linux x86_64,60.0132029,,,,,,,,1,Slow,short,k,1,2.1594,2,1,9,3,1,,,,,
1.77,,,,,,,,,k,purple,5c276057336b1500015078e9,2021-09-27_17h19.49.884,forced_choiceRT_color,2021.2.3,Linux x86_64,60.0132029,,,,,,,,1,Slow,short,k,1,2.2123,2,2,10,3,1,,,,,
1.73,,,,,,,,,d,orange,5c276057336b1500015078e9,2021-09-27_17h19.49.884,forced_choiceRT_color,2021.2.3,Linux x86_64,60.0132029,,,,,,,,1,Ontime,short,k,0,1.9594,2,3,11,0,1,,,,,
0.35,,,,,,,,,j,red,5c276057336b1500015078e9,2021-09-27_17h19.49.884,forced_choiceRT_color,2021.2.3,Linux x86_64,60.0132029,,,,,,,,1,Fast,short,d,0,0.2317,3,0,12,2,1,,,,,
0.09,,,,,,,,,d,orange,5c276057336b1500015078e9,2021-09-27_17h19.49.884,forced_choiceRT_color,2021.2.3,Linux x86_64,60.0132029,,,,,,,,1,Ontime,short,d,1,1.9603,3,1,13,0,1,,,,,
0.93,,,,,,,,,k,purple,5c276057336b1500015078e9,2021-09-27_17h19.49.884,forced_choiceRT_color,2021.2.3,Linux x86_64,60.0132029,,,,,,,,1,Ontime,short,k,1,2.034,3,2,14,3,1,,,,,
0.51,,,,,,,,,k,purple,5c276057336b1500015078e9,2021-09-27_17h19.49.884,forced_choiceRT_color,2021.2.3,Linux x86_64,60.0132029,,,,,,,,1,Ontime,short,k,1,1.9825,3,3,15,3,1,,,,,
1.21,,,,,,,,,f,blue,5c276057336b1500015078e9,2021-09-27_17h19.49.884,forced_choiceRT_color,2021.2.3,Linux x86_64,60.0132029,,,,,,,,1,Slow,short,f,1,2.1026,4,0,16,1,1,,,,,
1.13,,,,,,,,,d,orange,5c276057336b1500015078e9,2021-09-27_17h19.49.884,forced_choiceRT_color,2021.2.3,Linux x86_64,60.0132029,,,,,,,,1,Ontime,short,d,1,2.0203,4,1,17,0,1,,,,,
0.6,,,,,,,,,f,blue,5c276057336b1500015078e9,2021-09-27_17h19.49.884,forced_choiceRT_color,2021.2.3,Linux x86_64,60.0132029,,,,,,,,1,Ontime,short,f,1,2.0526,4,2,18,1,1,,,,,
1.24,,,,,,,,,j,red,5c276057336b1500015078e9,2021-09-27_17h19.49.884,forced_choiceRT_color,2021.2.3,Linux x86_64,60.0132029,,,,,,,,1,Ontime,short,k,0,1.9721,4,3,19,2,1,,,,,
0.59,,,,,,,,,f,blue,5c276057336b1500015078e9,2021-09-27_17h19.49.884,forced_choiceRT_color,2021.2.3,Linux x86_64,60.0132029,,,,,,,,1,Fast,short,f,1,1.8804,5,0,20,1,1,,,,,
1.58,,,,,,,,,j,red,5c276057336b1500015078e9,2021-09-27_17h19.49.884,forced_choiceRT_color,2021.2.3,Linux x86_64,60.0132029,,,,,,,,1,Ontime,short,d,0,2.039,5,1,21,2,1,,,,,
1.84,,,,,,,,,j,red,5c276057336b1500015078e9,2021-09-27_17h19.49.884,forced_choiceRT_color,2021.2.3,Linux x86_64,60.0132029,,,,,,,,1,Slow,short,j,1,2.2824,5,2,22,2,1,,,,,
0.7,,,,,,,,,j,red,5c276057336b1500015078e9,2021-09-27_17h19.49.884,forced_choiceRT_color,2021.2.3,Linux x86_64,60.0132029,,,,,,,,1,Ontime,short,j,1,1.9852,5,3,23,2,1,,,,,
0.33,,,,,,,,,f,blue,5c276057336b1500015078e9,2021-09-27_17h19.49.884,forced_choiceRT_color,2021.2.3,Linux x86_64,60.0132029,,,,,,,,1,Ontime,short,f,1,1.9772,6,0,24,1,1,,,,,
1.15,,,,,,,,,k,purple,5c276057336b1500015078e9,2021-09-27_17h19.49.884,forced_choiceRT_color,2021.2.3,Linux x86_64,60.0132029,,,,,,,,1,Ontime,short,k,1,2.0378,6,1,25,3,1,,,,,
1.89,,,,,,,,,d,orange,5c276057336b1500015078e9,2021-09-27_17h19.49.884,forced_choiceRT_color,2021.2.3,Linux x86_64,60.0132029,,,,,,,,1,Slow,short,d,1,2.3656,6,2,26,0,1,,,,,
0.29,,,,,,,,,j,red,5c276057336b1500015078e9,2021-09-27_17h19.49.884,forced_choiceRT_color,2021.2.3,Linux x86_64,60.0132029,,,,,,,,1,Ontime,short,j,1,2.0585,6,3,27,2,1,,,,,
1.73,,,,,,,,,j,red,5c276057336b1500015078e9,2021-09-27_17h19.49.884,forced_choiceRT_color,2021.2.3,Linux x86_64,60.0132029,,,,,,,,1,Slow,short,f,0,2.165,7,0,28,2,1,,,,,
1.28,,,,,,,,,k,purple,5c276057336b1500015078e9,2021-09-27_17h19.49.884,forced_choiceRT_color,2021.2.3,Linux x86_64,60.0132029,,,,,,,,1,Ontime,short,k,1,2.0532,7,1,29,3,1,,,,,
0.99,,,,,,,,,f,blue,5c276057336b1500015078e9,2021-09-27_17h19.49.884,forced_choiceRT_color,2021.2.3,Linux x86_64,60.0132029,,,,,,,,1,Ontime,short,f,1,1.9413,7,2,30,1,1,,,,,
0.92,,,,,,,,,f,blue,5c276057336b1500015078e9,2021-09-27_17h19.49.884,forced_choiceRT_color,2021.2.3,Linux x86_64,60.0132029,,,,,,,,1,Slow,short,f,1,2.125,7,3,31,1,1,,,,,
0.22,,,,,,,,,d,orange,5c276057336b1500015078e9,2021-09-27_17h19.49.884,forced_choiceRT_color,2021.2.3,Linux x86_64,60.0132029,,,,,,,,1,Ontime,short,d,1,1.9954,8,0,32,0,1,,,,,
1.98,,,,,,,,,j,red,5c276057336b1500015078e9,2021-09-27_17h19.49.884,forced_choiceRT_color,2021.2.3,Linux x86_64,60.0132029,,,,,,,,1,Slow,short,j,1,2.5763,8,1,33,2,1,,,,,
1.83,,,,,,,,,f,blue,5c276057336b1500015078e9,2021-09-27_17h19.49.884,forced_choiceRT_color,2021.2.3,Linux x86_64,60.0132029,,,,,,,,1,Slow,short,f,1,2.3141,8,2,34,1,1,,,,,
0.02,,,,,,,,,d,orange,5c276057336b1500015078e9,2021-09-27_17h19.49.884,forced_choiceRT_color,2021.2.3,Linux x86_64,60.0132029,,,,,,,,1,Ontime,short,d,1,2.0608,8,3,35,0,1,,,,,
1.09,,,,,,,,,k,purple,5c276057336b1500015078e9,2021-09-27_17h19.49.884,forced_choiceRT_color,2021.2.3,Linux x86_64,60.0132029,,,,,,,,1,Ontime,short,k,1,2.0165,9,0,36,3,1,,,,,
1.93,,,,,,,,,f,blue,5c276057336b1500015078e9,2021-09-27_17h19.49.884,forced_choiceRT_color,2021.2.3,Linux x86_64,60.0132029,,,,,,,,1,Slow,short,j,0,2.448,9,1,37,1,1,,,,,
1.64,,,,,,,,,k,purple,5c276057336b1500015078e9,2021-09-27_17h19.49.884,forced_choiceRT_color,2021.2.3,Linux x86_64,60.0132029,,,,,,,,1,Slow,short,j,0,2.1533,9,2,38,3,1,,,,,
1.35,,,,,,,,,j,red,5c276057336b1500015078e9,2021-09-27_17h19.49.884,forced_choiceRT_color,2021.2.3,Linux x86_64,60.0132029,,,,,,,,1,Slow,short,f,0,2.1989,9,3,39,2,1,,,,,
,,,,,,,,,,,5c276057336b1500015078e9,2021-09-27_17h19.49.884,forced_choiceRT_color,2021.2.3,Linux x86_64,60.0132029,,,,,,,,,,,,,,,,,,,0,0,0,0,1
0.79,,,,,,,,,k,purple,5c276057336b1500015078e9,2021-09-27_17h19.49.884,forced_choiceRT_color,2021.2.3,Linux x86_64,60.0132029,,,,,,,,2,Ontime,short,k,1,2.0685,0,0,0,3,1,,,,,
1.51,,,,,,,,,d,orange,5c276057336b1500015078e9,2021-09-27_17h19.49.884,forced_choiceRT_color,2021.2.3,Linux x86_64,60.0132029,,,,,,,,2,Slow,short,d,1,2.1042,0,1,1,0,1,,,,,
0.15,,,,,,,,,j,red,5c276057336b1500015078e9,2021-09-27_17h19.49.884,forced_choiceRT_color,2021.2.3,Linux x86_64,60.0132029,,,,,,,,2,Slow,short,f,0,2.1057,0,2,2,2,1,,,,,
1.03,,,,,,,,,k,purple,5c276057336b1500015078e9,2021-09-27_17h19.49.884,forced_choiceRT_color,2021.2.3,Linux x86_64,60.0132029,,,,,,,,2,Slow,short,k,1,2.2275,0,3,3,3,1,,,,,
0.31,,,,,,,,,j,red,5c276057336b1500015078e9,2021-09-27_17h19.49.884,forced_choiceRT_color,2021.2.3,Linux x86_64,60.0132029,,,,,,,,2,Fast,short,f,0,1.8646,1,0,4,2,1,,,,,
0.25,,,,,,,,,f,blue,5c276057336b1500015078e9,2021-09-27_17h19.49.884,forced_choiceRT_color,2021.2.3,Linux x86_64,60.0132029,,,,,,,,2,Ontime,short,f,1,1.9546,1,1,5,1,1,,,,,
0.06,,,,,,,,,j,red,5c276057336b1500015078e9,2021-09-27_17h19.49.884,forced_choiceRT_color,2021.2.3,Linux x86_64,60.0132029,,,,,,,,2,Ontime,short,j,1,2.0764,1,2,6,2,1,,,,,
0.52,,,,,,,,,f,blue,5c276057336b1500015078e9,2021-09-27_17h19.49.884,forced_choiceRT_color,2021.2.3,Linux x86_64,60.0132029,,,,,,,,2,Ontime,short,f,1,2.0755,1,3,7,1,1,,,,,
1.84,,,,,,,,,j,red,5c276057336b1500015078e9,2021-09-27_17h19.49.884,forced_choiceRT_color,2021.2.3,Linux x86_64,60.0132029,,,,,,,,2,Slow,short,j,1,2.2492,2,0,8,2,1,,,,,
0.46,,,,,,,,,k,purple,5c276057336b1500015078e9,2021-09-27_17h19.49.884,forced_choiceRT_color,2021.2.3,Linux x86_64,60.0132029,,,,,,,,2,Ontime,short,k,1,1.9351,2,1,9,3,1,,,,,
0.22,,,,,,,,,f,blue,5c276057336b1500015078e9,2021-09-27_17h19.49.884,forced_choiceRT_color,2021.2.3,Linux x86_64,60.0132029,,,,,,,,2,Fast,short,j,0,1.8879,2,2,10,1,1,,,,,
1.02,,,,,,,,,j,red,5c276057336b1500015078e9,2021-09-27_17h19.49.884,forced_choiceRT_color,2021.2.3,Linux x86_64,60.0132029,,,,,,,,2,Ontime,short,f,0,1.948,2,3,11,2,1,,,,,
0.22,,,,,,,,,f,blue,5c276057336b1500015078e9,2021-09-27_17h19.49.884,forced_choiceRT_color,2021.2.3,Linux x86_64,60.0132029,,,,,,,,2,Fast,short,j,0,1.8928,3,0,12,1,1,,,,,
0.3,,,,,,,,,d,orange,5c276057336b1500015078e9,2021-09-27_17h19.49.884,forced_choiceRT_color,2021.2.3,Linux x86_64,60.0132029,,,,,,,,2,Slow,short,d,1,2.1129,3,1,13,0,1,,,,,
1.77,,,,,,,,,f,blue,5c276057336b1500015078e9,2021-09-27_17h19.49.884,forced_choiceRT_color,2021.2.3,Linux x86_64,60.0132029,,,,,,,,2,Slow,short,j,0,2.5047,3,2,14,1,1,,,,,
1.03,,,,,,,,,j,red,5c276057336b1500015078e9,2021-09-27_17h19.49.884,forced_choiceRT_color,2021.2.3,Linux x86_64,60.0132029,,,,,,,,2,Ontime,short,f,0,1.9368,3,3,15,2,1,,,,,
1.69,,,,,,,,,d,orange,5c276057336b1500015078e9,2021-09-27_17h19.49.884,forced_choiceRT_color,2021.2.3,Linux x86_64,60.0132029,,,,,,,,2,Slow,short,d,1,2.2653,4,0,16,0,1,,,,,
0.03,,,,,,,,,k,purple,5c276057336b1500015078e9,2021-09-27_17h19.49.884,forced_choiceRT_color,2021.2.3,Linux x86_64,60.0132029,,,,,,,,2,Ontime,short,k,1,2.0563,4,1,17,3,1,,,,,
0.18,,,,,,,,,d,orange,5c276057336b1500015078e9,2021-09-27_17h19.49.884,forced_choiceRT_color,2021.2.3,Linux x86_64,60.0132029,,,,,,,,2,Ontime,short,d,1,2.0657,4,2,18,0,1,,,,,
0.08,,,,,,,,,k,purple,5c276057336b1500015078e9,2021-09-27_17h19.49.884,forced_choiceRT_color,2021.2.3,Linux x86_64,60.0132029,,,,,,,,2,Ontime,short,k,1,1.9682,4,3,19,3,1,,,,,
0.26,,,,,,,,,f,blue,5c276057336b1500015078e9,2021-09-27_17h19.49.884,forced_choiceRT_color,2021.2.3,Linux x86_64,60.0132029,,,,,,,,2,Fast,short,j,0,1.8483,5,0,20,1,1,,,,,
0.73,,,,,,,,,j,red,5c276057336b1500015078e9,2021-09-27_17h19.49.884,forced_choiceRT_color,2021.2.3,Linux x86_64,60.0132029,,,,,,,,2,Ontime,short,f,0,1.9504,5,1,21,2,1,,,,,
0.65,,,,,,,,,f,blue,5c276057336b1500015078e9,2021-09-27_17h19.49.884,forced_choiceRT_color,2021.2.3,Linux x86_64,60.0132029,,,,,,,,2,Ontime,short,j,0,1.9522,5,2,22,1,1,,,,,
0.96,,,,,,,,,j,red,5c276057336b1500015078e9,2021-09-27_17h19.49.884,forced_choiceRT_color,2021.2.3,Linux x86_64,60.0132029,,,,,,,,2,Ontime,short,f,0,1.9491,5,3,23,2,1,,,,,
0.59,,,,,,,,,d,orange,5c276057336b1500015078e9,2021-09-27_17h19.49.884,forced_choiceRT_color,2021.2.3,Linux x86_64,60.0132029,,,,,,,,2,Ontime,short,d,1,1.9437,6,0,24,0,1,,,,,
1.71,,,,,,,,,d,orange,5c276057336b1500015078e9,2021-09-27_17h19.49.884,forced_choiceRT_color,2021.2.3,Linux x86_64,60.0132029,,,,,,,,2,Slow,short,d,1,2.1105,6,1,25,0,1,,,,,
0.96,,,,,,,,,d,orange,5c276057336b1500015078e9,2021-09-27_17h19.49.884,forced_choiceRT_color,2021.2.3,Linux x86_64,60.0132029,,,,,,,,2,Fast,short,d,1,1.8575,6,2,26,0,1,,,,,
1.39,,,,,,,,,k,purple,5c276057336b1500015078e9,2021-09-27_17h19.49.884,forced_choiceRT_color,2021.2.3,Linux x86_64,60.0132029,,,,,,,,2,Fast,short,k,1,1.7935,6,3,27,3,1,,,,,
1.05,,,,,,,,,k,purple,5c276057336b1500015078e9,2021-09-27_17h19.49.884,forced_choiceRT_color,2021.2.3,Linux x86_64,60.0132029,,,,,,,,2,Fast,short,k,1,1.8585,7,0,28,3,1,,,,,
0.27,,,,,,,,,d,orange,5c276057336b1500015078e9,2021-09-27_17h19.49.884,forced_choiceRT_color,2021.2.3,Linux x86_64,60.0132029,,,,,,,,2,Ontime,short,d,1,2.0258,7,1,29,0,1,,,,,
0.48,,,,,,,,,k,purple,5c276057336b1500015078e9,2021-09-27_17h19.49.884,forced_choiceRT_color,2021.2.3,Linux x86_64,60.0132029,,,,,,,,2,Slow,short,k,1,2.1861,7,2,30,3,1,,,,,
0.88,,,,,,,,,k,purple,5c276057336b1500015078e9,2021-09-27_17h19.49.884,forced_choiceRT_color,2021.2.3,Linux x86_64,60.0132029,,,,,,,,2,Ontime,short,k,1,1.9691,7,3,31,3,1,,,,,
1.35,,,,,,,,,d,orange,5c276057336b1500015078e9,2021-09-27_17h19.49.884,forced_choiceRT_color,2021.2.3,Linux x86_64,60.0132029,,,,,,,,2,Slow,short,d,1,2.149,8,0,32,0,1,,,,,
0.83,,,,,,,,,f,blue,5c276057336b1500015078e9,2021-09-27_17h19.49.884,forced_choiceRT_color,2021.2.3,Linux x86_64,60.0132029,,,,,,,,2,Slow,short,f,1,2.1446,8,1,33,1,1,,,,,
1,,,,,,,,,k,purple,5c276057336b1500015078e9,2021-09-27_17h19.49.884,forced_choiceRT_color,2021.2.3,Linux x86_64,60.0132029,,,,,,,,2,Slow,short,k,1,2.1291,8,2,34,3,1,,,,,
1.47,,,,,,,,,f,blue,5c276057336b1500015078e9,2021-09-27_17h19.49.884,forced_choiceRT_color,2021.2.3,Linux x86_64,60.0132029,,,,,,,,2,Slow,short,d,0,2.1117,8,3,35,1,1,,,,,
0.87,,,,,,,,,j,red,5c276057336b1500015078e9,2021-09-27_17h19.49.884,forced_choiceRT_color,2021.2.3,Linux x86_64,60.0132029,,,,,,,,2,Ontime,short,j,1,2.0112,9,0,36,2,1,,,,,
0.13,,,,,,,,,d,orange,5c276057336b1500015078e9,2021-09-27_17h19.49.884,forced_choiceRT_color,2021.2.3,Linux x86_64,60.0132029,,,,,,,,2,Fast,short,d,1,1.8602,9,1,37,0,1,,,,,
0.32,,,,,,,,,j,red,5c276057336b1500015078e9,2021-09-27_17h19.49.884,forced_choiceRT_color,2021.2.3,Linux x86_64,60.0132029,,,,,,,,2,Ontime,short,f,0,1.9383,9,2,38,2,1,,,,,
1.11,,,,,,,,,f,blue,5c276057336b1500015078e9,2021-09-27_17h19.49.884,forced_choiceRT_color,2021.2.3,Linux x86_64,60.0132029,,,,,,,,2,Fast,short,j,0,1.7887,9,3,39,1,1,,,,,
,,,,,,,,,,,5c276057336b1500015078e9,2021-09-27_17h19.49.884,forced_choiceRT_color,2021.2.3,Linux x86_64,60.0132029,,,,,,,,,,,,,,,,,,,1,0,1,0,1
1.97,,,,,,,,,d,orange,5c276057336b1500015078e9,2021-09-27_17h19.49.884,forced_choiceRT_color,2021.2.3,Linux x86_64,60.0132029,,,,,,,,3,Slow,short,d,1,2.4828,0,0,0,0,1,,,,,
0.12,,,,,,,,,f,blue,5c276057336b1500015078e9,2021-09-27_17h19.49.884,forced_choiceRT_color,2021.2.3,Linux x86_64,60.0132029,,,,,,,,3,Ontime,short,f,1,1.9845,0,1,1,1,1,,,,,
1.65,,,,,,,,,j,red,5c276057336b1500015078e9,2021-09-27_17h19.49.884,forced_choiceRT_color,2021.2.3,Linux x86_64,60.0132029,,,,,,,,3,Ontime,short,j,1,2.0846,0,2,2,2,1,,,,,
0.08,,,,,,,,,k,purple,5c276057336b1500015078e9,2021-09-27_17h19.49.884,forced_choiceRT_color,2021.2.3,Linux x86_64,60.0132029,,,,,,,,3,Ontime,short,k,1,1.9366,0,3,3,3,1,,,,,
0.58,,,,,,,,,d,orange,5c276057336b1500015078e9,2021-09-27_17h19.49.884,forced_choiceRT_color,2021.2.3,Linux x86_64,60.0132029,,,,,,,,3,Fast,short,d,1,1.8536,1,0,4,0,1,,,,,
1.88,,,,,,,,,k,purple,5c276057336b1500015078e9,2021-09-27_17h19.49.884,forced_choiceRT_color,2021.2.3,Linux x86_64,60.0132029,,,,,,,,3,Slow,short,j,0,2.3394,1,1,5,3,1,,,,,
0.17,,,,,,,,,f,blue,5c276057336b1500015078e9,2021-09-27_17h19.49.884,forced_choiceRT_color,2021.2.3,Linux x86_64,60.0132029,,,,,,,,3,Ontime,short,f,1,2.0314,1,2,6,1,1,,,,,
0.78,,,,,,,,,k,purple,5c276057336b1500015078e9,2021-09-27_17h19.49.884,forced_choiceRT_color,2021.2.3,Linux x86_64,60.0132029,,,,,,,,3,Ontime,short,k,1,1.9653,1,3,7,3,1,,,,,
0.48,,,,,,,,,j,red,5c276057336b1500015078e9,2021-09-27_17h19.49.884,forced_choiceRT_color,2021.2.3,Linux x86_64,60.0132029,,,,,,,,3,Ontime,short,j,1,1.9851,2,0,8,2,1,,,,,
1.46,,,,,,,,,f,blue,5c276057336b1500015078e9,2021-09-27_17h19.49.884,forced_choiceRT_color,2021.2.3,Linux x86_64,60.0132029,,,,,,,,3,Ontime,short,j,0,2.0602,2,1,9,1,1,,,,,
1.87,,,,,,,,,k,purple,5c276057336b1500015078e9,2021-09-27_17h19.49.884,forced_choiceRT_color,2021.2.3,Linux x86_64,60.0132029,,,,,,,,3,Fast,short,f,0,0.0702,2,2,10,3,1,,,,,
1.93,,,,,,,,,j,red,5c276057336b1500015078e9,2021-09-27_17h19.49.884,forced_choiceRT_color,2021.2.3,Linux x86_64,60.0132029,,,,,,,,3,Slow,short,j,1,2.3368,2,3,11,2,1,,,,,
1,,,,,,,,,j,red,5c276057336b1500015078e9,2021-09-27_17h19.49.884,forced_choiceRT_color,2021.2.3,Linux x86_64,60.0132029,,,,,,,,3,Fast,short,j,1,1.8199,3,0,12,2,1,,,,,
0.88,,,,,,,,,d,orange,5c276057336b1500015078e9,2021-09-27_17h19.49.884,forced_choiceRT_color,2021.2.3,Linux x86_64,60.0132029,,,,,,,,3,Ontime,short,d,1,1.9758,3,1,13,0,1,,,,,
0.52,,,,,,,,,d,orange,5c276057336b1500015078e9,2021-09-27_17h19.49.884,forced_choiceRT_color,2021.2.3,Linux x86_64,60.0132029,,,,,,,,3,Ontime,short,d,1,1.9444,3,2,14,0,1,,,,,
0.33,,,,,,,,,f,blue,5c276057336b1500015078e9,2021-09-27_17h19.49.884,forced_choiceRT_color,2021.2.3,Linux x86_64,60.0132029,,,,,,,,3,Ontime,short,j,0,1.9143,3,3,15,1,1,,,,,
1.54,,,,,,,,,f,blue,5c276057336b1500015078e9,2021-09-27_17h19.49.884,forced_choiceRT_color,2021.2.3,Linux x86_64,60.0132029,,,,,,,,3,Fast,short,f,1,0.1107,4,0,16,1,1,,,,,
1.96,,,,,,,,,d,orange,5c276057336b1500015078e9,2021-09-27_17h19.49.884,forced_choiceRT_color,2021.2.3,Linux x86_64,60.0132029,,,,,,,,3,Slow,short,f,0,2.4577,4,1,17,0,1,,,,,
1.76,,,,,,,,,j,red,5c276057336b1500015078e9,2021-09-27_17h19.49.884,forced_choiceRT_color,2021.2.3,Linux x86_64,60.0132029,,,,,,,,3,Slow,short,k,0,2.2576,4,2,18,2,1,,,,,
1.61,,,,,,,,,j,red,5c276057336b1500015078e9,2021-09-27_17h19.49.884,forced_choiceRT_color,2021.2.3,Linux x86_64,60.0132029,,,,,,,,3,Ontime,short,j,1,1.9844,4,3,19,2,1,,,,,
1.23,,,,,,,,,k,purple,5c276057336b1500015078e9,2021-09-27_17h19.49.884,forced_choiceRT_color,2021.2.3,Linux x86_64,60.0132029,,,,,,,,3,Fast,short,k,1,1.8971,5,0,20,3,1,,,,,
1.26,,,,,,,,,f,blue,5c276057336b1500015078e9,2021-09-27_17h19.49.884,forced_choiceRT_color,2021.2.3,Linux x86_64,60.0132029,,,,,,,,3,Slow,short,f,1,2.1074,5,1,21,1,1,,,,,
0.02,,,,,,,,,d,orange,5c276057336b1500015078e9,2021-09-27_17h19.49.884,forced_choiceRT_color,2021.2.3,Linux x86_64,60.0132029,,,,,,,,3,Ontime,short,d,1,2.0127,5,2,22,0,1,,,,,
0.02,,,,,,,,,k,purple,5c276057336b1500015078e9,2021-09-27_17h19.49.884,forced_choiceRT_color,2021.2.3,Linux x86_64,60.0132029,,,,,,,,3,Fast,short,k,1,1.8653,5,3,23,3,1,,,,,
1.08,,,,,,,,,d,orange,5c276057336b1500015078e9,2021-09-27_17h19.49.884,forced_choiceRT_color,2021.2.3,Linux x86_64,60.0132029,,,,,,,,3,Ontime,short,d,1,1.9622,6,0,24,0,1,,,,,
0.8,,,,,,,,,k,purple,5c276057336b1500015078e9,2021-09-27_17h19.49.884,forced_choiceRT_color,2021.2.3,Linux x86_64,60.0132029,,,,,,,,3,Ontime,short,k,1,2.0093,6,1,25,3,1,,,,,
1.64,,,,,,,,,j,red,5c276057336b1500015078e9,2021-09-27_17h19.49.884,forced_choiceRT_color,2021.2.3,Linux x86_64,60.0132029,,,,,,,,3,Slow,short,f,0,2.3513,6,2,26,2,1,,,,,
0.41,,,,,,,,,d,orange,5c276057336b1500015078e9,2021-09-27_17h19.49.884,forced_choiceRT_color,2021.2.3,Linux x86_64,60.0132029,,,,,,,,3,Fast,short,d,1,1.8372,6,3,27,0,1,,,,,
1.38,,,,,,,,,j,red,5c276057336b1500015078e9,2021-09-27_17h19.49.884,forced_choiceRT_color,2021.2.3,Linux x86_64,60.0132029,,,,,,,,3,Ontime,short,j,1,1.9886,7,0,28,2,1,,,,,
1.28,,,,,,,,,d,orange,5c276057336b1500015078e9,2021-09-27_17h19.49.884,forced_choiceRT_color,2021.2.3,Linux x86_64,60.0132029,,,,,,,,3,Slow,short,d,1,2.1608,7,1,29,0,1,,,,,
0.11,,,,,,,,,f,blue,5c276057336b1500015078e9,2021-09-27_17h19.49.884,forced_choiceRT_color,2021.2.3,Linux x86_64,60.0132029,,,,,,,,3,Slow,short,f,1,2.1417,7,2,30,1,1,,,,,
1.75,,,,,,,,,j,red,5c276057336b1500015078e9,2021-09-27_17h19.49.884,forced_choiceRT_color,2021.2.3,Linux x86_64,60.0132029,,,,,,,,3,Ontime,short,j,1,2.0789,7,3,31,2,1,,,,,
0.91,,,,,,,,,d,orange,5c276057336b1500015078e9,2021-09-27_17h19.49.884,forced_choiceRT_color,2021.2.3,Linux x86_64,60.0132029,,,,,,,,3,Ontime,short,d,1,2.0623,8,0,32,0,1,,,,,
1.27,,,,,,,,,j,red,5c276057336b1500015078e9,2021-09-27_17h19.49.884,forced_choiceRT_color,2021.2.3,Linux x86_64,60.0132029,,,,,,,,3,Fast,short,j,1,1.8362,8,1,33,2,1,,,,,
0.83,,,,,,,,,f,blue,5c276057336b1500015078e9,2021-09-27_17h19.49.884,forced_choiceRT_color,2021.2.3,Linux x86_64,60.0132029,,,,,,,,3,Ontime,short,k,0,2.0473,8,2,34,1,1,,,,,
1.94,,,,,,,,,k,purple,5c276057336b1500015078e9,2021-09-27_17h19.49.884,forced_choiceRT_color,2021.2.3,Linux x86_64,60.0132029,,,,,,,,3,Slow,short,j,0,2.2219,8,3,35,3,1,,,,,
1.46,,,,,,,,,k,purple,5c276057336b1500015078e9,2021-09-27_17h19.49.884,forced_choiceRT_color,2021.2.3,Linux x86_64,60.0132029,,,,,,,,3,Ontime,short,k,1,1.9779,9,0,36,3,1,,,,,
1.78,,,,,,,,,f,blue,5c276057336b1500015078e9,2021-09-27_17h19.49.884,forced_choiceRT_color,2021.2.3,Linux x86_64,60.0132029,,,,,,,,3,Slow,short,j,0,2.2924,9,1,37,1,1,,,,,
0.14,,,,,,,,,f,blue,5c276057336b1500015078e9,2021-09-27_17h19.49.884,forced_choiceRT_color,2021.2.3,Linux x86_64,60.0132029,,,,,,,,3,Fast,short,f,1,1.8475,9,2,38,1,1,,,,,
1.56,,,,,,,,,k,purple,5c276057336b1500015078e9,2021-09-27_17h19.49.884,forced_choiceRT_color,2021.2.3,Linux x86_64,60.0132029,,,,,,,,3,Slow,short,k,1,2.1691,9,3,39,3,1,,,,,
,,,,,,,,,,,5c276057336b1500015078e9,2021-09-27_17h19.49.884,forced_choiceRT_color,2021.2.3,Linux x86_64,60.0132029,,,,,,,,,,,,,,,,,,,2,0,2,0,1
1.77,,,,,,,,,j,red,5c276057336b1500015078e9,2021-09-27_17h19.49.884,forced_choiceRT_color,2021.2.3,Linux x86_64,60.0132029,,,,,,,,4,Slow,short,f,0,2.2252,0,0,0,2,1,,,,,
1.84,,,,,,,,,k,purple,5c276057336b1500015078e9,2021-09-27_17h19.49.884,forced_choiceRT_color,2021.2.3,Linux x86_64,60.0132029,,,,,,,,4,Slow,short,k,1,2.3129,0,1,1,3,1,,,,,
0.11,,,,,,,,,d,orange,5c276057336b1500015078e9,2021-09-27_17h19.49.884,forced_choiceRT_color,2021.2.3,Linux x86_64,60.0132029,,,,,,,,4,Ontime,short,d,1,1.9486,0,2,2,0,1,,,,,
1.37,,,,,,,,,j,red,5c276057336b1500015078e9,2021-09-27_17h19.49.884,forced_choiceRT_color,2021.2.3,Linux x86_64,60.0132029,,,,,,,,4,Slow,short,f,0,2.1668,0,3,3,2,1,,,,,
0.79,,,,,,,,,d,orange,5c276057336b1500015078e9,2021-09-27_17h19.49.884,forced_choiceRT_color,2021.2.3,Linux x86_64,60.0132029,,,,,,,,4,Ontime,short,d,1,1.9822,1,0,4,0,1,,,,,
0.05,,,,,,,,,j,red,5c276057336b1500015078e9,2021-09-27_17h19.49.884,forced_choiceRT_color,2021.2.3,Linux x86_64,60.0132029,,,,,,,,4,Ontime,short,j,1,2.0507,1,1,5,2,1,,,,,
1.29,,,,,,,,,k,purple,5c276057336b1500015078e9,2021-09-27_17h19.49.884,forced_choiceRT_color,2021.2.3,Linux x86_64,60.0132029,,,,,,,,4,Ontime,short,k,1,2.0675,1,2,6,3,1,,,,,
0.98,,,,,,,,,k,purple,5c276057336b1500015078e9,2021-09-27_17h19.49.884,forced_choiceRT_color,2021.2.3,Linux x86_64,60.0132029,,,,,,,,4,Slow,short,k,1,2.1106,1,3,7,3,1,,,,,
1.86,,,,,,,,,f,blue,5c276057336b1500015078e9,2021-09-27_17h19.49.884,forced_choiceRT_color,2021.2.3,Linux x86_64,60.0132029,,,,,,,,4,Slow,short,j,0,2.3224,2,0,8,1,1,,,,,
1.14,,,,,,,,,d,orange,5c276057336b1500015078e9,2021-09-27_17h19.49.884,forced_choiceRT_color,2021.2.3,Linux x86_64,60.0132029,,,,,,,,4,Slow,short,d,1,2.1273,2,1,9,0,1,,,,,
0.11,,,,,,,,,j,red,5c276057336b1500015078e9,2021-09-27_17h19.49.884,forced_choiceRT_color,2021.2.3,Linux x86_64,60.0132029,,,,,,,,4,Fast,short,j,1,1.8806,2,2,10,2,1,,,,,
0.36,,,,,,,,,j,red,5c276057336b1500015078e9,2021-09-27_17h19.49.884,forced_choiceRT_color,2021.2.3,Linux x86_64,60.0132029,,,,,,,,4,Ontime,short,j,1,2.0707,2,3,11,2,1,,,,,
0.65,,,,,,,,,d,orange,5c276057336b1500015078e9,2021-09-27_17h19.49.884,forced_choiceRT_color,2021.2.3,Linux x86_64,60.0132029,,,,,,,,4,Ontime,short,d,1,2.0548,3,0,12,0,1,,,,,
1.43,,,,,,,,,k,purple,5c276057336b1500015078e9,2021-09-27_17h19.49.884,forced_choiceRT_color,2021.2.3,Linux x86_64,60.0132029,,,,,,,,4,Ontime,short,k,1,2.0868,3,1,13,3,1,,,,,
0.02,,,,,,,,,f,blue,5c276057336b1500015078e9,2021-09-27_17h19.49.884,forced_choiceRT_color,2021.2.3,Linux x86_64,60.0132029,,,,,,,,4,Fast,short,f,1,1.7995,3,2,14,1,1,,,,,
0.11,,,,,,,,,f,blue,5c276057336b1500015078e9,2021-09-27_17h19.49.884,forced_choiceRT_color,2021.2.3,Linux x86_64,60.0132029,,,,,,,,4,Ontime,short,f,1,1.9873,3,3,15,1,1,,,,,
0.6,,,,,,,,,f,blue,5c276057336b1500015078e9,2021-09-27_17h19.49.884,forced_choiceRT_color,2021.2.3,Linux x86_64,60.0132029,,,,,,,,4,Ontime,short,f,1,2.0512,4,0,16,1,1,,,,,
1.74,,,,,,,,,j,red,5c276057336b1500015078e9,2021-09-27_17h19.49.884,forced_choiceRT_color,2021.2.3,Linux x86_64,60.0132029,,,,,,,,4,Slow,short,k,0,2.2206,4,1,17,2,1,,,,,
0.47,,,,,,,,,d,orange,5c276057336b1500015078e9,2021-09-27_17h19.49.884,forced_choiceRT_color,2021.2.3,Linux x86_64,60.0132029,,,,,,,,4,Ontime,short,d,1,1.9933,4,2,18,0,1,,,,,
0.7,,,,,,,,,k,purple,5c276057336b1500015078e9,2021-09-27_17h19.49.884,forced_choiceRT_color,2021.2.3,Linux x86_64,60.0132029,,,,,,,,4,Slow,short,k,1,2.1436,4,3,19,3,1,,,,,
0.89,,,,,,,,,d,orange,5c276057336b1500015078e9,2021-09-27_17h19.49.884,forced_choiceRT_color,2021.2.3,Linux x86_64,60.0132029,,,,,,,,4,Fast,short,d,1,1.8294,5,0,20,0,1,,,,,
1.46,,,,,,,,,k,purple,5c276057336b1500015078e9,2021-09-27_17h19.49.884,forced_choiceRT_color,2021.2.3,Linux x86_64,60.0132029,,,,,,,,4,Slow,short,k,1,2.145,5,1,21,3,1,,,,,
1.24,,,,,,,,,f,blue,5c276057336b1500015078e9,2021-09-27_17h19.49.884,forced_choiceRT_color,2021.2.3,Linux x86_64,60.0132029,,,,,,,,4,Ontime,short,j,0,2.0397,5,2,22,1,1,,,,,
1.71,,,,,,,,,j,red,5c276057336b1500015078e9,2021-09-27_17h19.49.884,forced_choiceRT_color,2021.2.3,Linux x86_64,60.0132029,,,,,,,,4,Ontime,short,f,0,2.0294,5,3,23,2,1,,,,,
0.39,,,,,,,,,k,purple,5c276057336b1500015078e9,2021-09-27_17h19.49.884,forced_choiceRT_color,2021.2.3,Linux x86_64,60.0132029,,,,,,,,4,Fast,short,k,1,1.7958,6,0,24,3,1,,,,,
1.69,,,,,,,,,f,blue,5c276057336b1500015078e9,2021-09-27_17h19.49.884,forced_choiceRT_color,2021.2.3,Linux x86_64,60.0132029,,,,,,,,4,Slow,short,j,0,2.2667,6,1,25,1,1,,,,,
0.88,,,,,,,,,d,orange,5c276057336b1500015078e9,2021-09-27_17h19.49.884,forced_choiceRT_color,2021.2.3,Linux x86_64,60.0132029,,,,,,,,4,Ontime,short,d,1,1.949,6,2,26,0,1,,,,,
0.72,,,,,,,,,f,blue,5c276057336b1500015078e9,2021-09-27_17h19.49.884,forced_choiceRT_color,2021.2.3,Linux x86_64,60.0132029,,,,,,,,4,Fast,short,f,1,1.7639,6,3,27,1,1,,,,,
0.82,,,,,,,,,k,purple,5c276057336b1500015078e9,2021-09-27_17h19.49.884,forced_choiceRT_color,2021.2.3,Linux x86_64,60.0132029,,,,,,,,4,Ontime,short,k,1,1.9431,7,0,28,3,1,,,,,
1.63,,,,,,,,,k,purple,5c276057336b1500015078e9,2021-09-27_17h19.49.884,forced_choiceRT_color,2021.2.3,Linux x86_64,60.0132029,,,,,,,,4,Ontime,short,f,0,2.094,7,1,29,3,1,,,,,
1.48,,,,,,,,,j,red,5c276057336b1500015078e9,2021-09-27_17h19.49.884,forced_choiceRT_color,2021.2.3,Linux x86_64,60.0132029,,,,,,,,4,Fast,short,k,0,0.1826,7,2,30,2,1,,,,,
1.51,,,,,,,,,f,blue,5c276057336b1500015078e9,2021-09-27_17h19.49.884,forced_choiceRT_color,2021.2.3,Linux x86_64,60.0132029,,,,,,,,4,Slow,short,j,0,2.1393,7,3,31,1,1,,,,,
0.03,,,,,,,,,f,blue,5c276057336b1500015078e9,2021-09-27_17h19.49.884,forced_choiceRT_color,2021.2.3,Linux x86_64,60.0132029,,,,,,,,4,Fast,short,f,1,1.8447,8,0,32,1,1,,,,,
1.34,,,,,,,,,f,blue,5c276057336b1500015078e9,2021-09-27_17h19.49.884,forced_choiceRT_color,2021.2.3,Linux x86_64,60.0132029,,,,,,,,4,Ontime,short,f,1,2.0389,8,1,33,1,1,,,,,
1.34,,,,,,,,,j,red,5c276057336b1500015078e9,2021-09-27_17h19.49.884,forced_choiceRT_color,2021.2.3,Linux x86_64,60.0132029,,,,,,,,4,Slow,short,j,1,2.1175,8,2,34,2,1,,,,,
0.71,,,,,,,,,k,purple,5c276057336b1500015078e9,2021-09-27_17h19.49.884,forced_choiceRT_color,2021.2.3,Linux x86_64,60.0132029,,,,,,,,4,Ontime,short,k,1,2.0496,8,3,35,3,1,,,,,
0.43,,,,,,,,,d,orange,5c276057336b1500015078e9,2021-09-27_17h19.49.884,forced_choiceRT_color,2021.2.3,Linux x86_64,60.0132029,,,,,,,,4,Ontime,short,d,1,1.9867,9,0,36,0,1,,,,,
1.04,,,,,,,,,d,orange,5c276057336b1500015078e9,2021-09-27_17h19.49.884,forced_choiceRT_color,2021.2.3,Linux x86_64,60.0132029,,,,,,,,4,Ontime,short,d,1,1.9789,9,1,37,0,1,,,,,
0.02,,,,,,,,,d,orange,5c276057336b1500015078e9,2021-09-27_17h19.49.884,forced_choiceRT_color,2021.2.3,Linux x86_64,60.0132029,,,,,,,,4,Fast,short,d,1,1.8264,9,2,38,0,1,,,,,
0.27,,,,,,,,,j,red,5c276057336b1500015078e9,2021-09-27_17h19.49.884,forced_choiceRT_color,2021.2.3,Linux x86_64,60.0132029,,,,,,,,4,Ontime,short,j,1,2.0076,9,3,39,2,1,,,,,
,,,,,,,,,,,5c276057336b1500015078e9,2021-09-27_17h19.49.884,forced_choiceRT_color,2021.2.3,Linux x86_64,60.0132029,,,,,,,,,,,,,,,,,,,3,0,3,0,1
1.07,,,,,,,,,d,orange,5c276057336b1500015078e9,2021-09-27_17h19.49.884,forced_choiceRT_color,2021.2.3,Linux x86_64,60.0132029,,,,,,,,5,Slow,short,d,1,2.1056,0,0,0,0,1,,,,,
0.89,,,,,,,,,j,red,5c276057336b1500015078e9,2021-09-27_17h19.49.884,forced_choiceRT_color,2021.2.3,Linux x86_64,60.0132029,,,,,,,,5,Ontime,short,j,1,2.063,0,1,1,2,1,,,,,
1.77,,,,,,,,,j,red,5c276057336b1500015078e9,2021-09-27_17h19.49.884,forced_choiceRT_color,2021.2.3,Linux x86_64,60.0132029,,,,,,,,5,Slow,short,j,1,2.1663,0,2,2,2,1,,,,,
1.22,,,,,,,,,d,orange,5c276057336b1500015078e9,2021-09-27_17h19.49.884,forced_choiceRT_color,2021.2.3,Linux x86_64,60.0132029,,,,,,,,5,Ontime,short,d,1,1.9217,0,3,3,0,1,,,,,
1.75,,,,,,,,,k,purple,5c276057336b1500015078e9,2021-09-27_17h19.49.884,forced_choiceRT_color,2021.2.3,Linux x86_64,60.0132029,,,,,,,,5,Slow,short,k,1,2.2632,1,0,4,3,1,,,,,
1.43,,,,,,,,,k,purple,5c276057336b1500015078e9,2021-09-27_17h19.49.884,forced_choiceRT_color,2021.2.3,Linux x86_64,60.0132029,,,,,,,,5,Slow,short,k,1,2.1169,1,1,5,3,1,,,,,
0.48,,,,,,,,,k,purple,5c276057336b1500015078e9,2021-09-27_17h19.49.884,forced_choiceRT_color,2021.2.3,Linux x86_64,60.0132029,,,,,,,,5,Ontime,short,k,1,2.0049,1,2,6,3,1,,,,,
0.46,,,,,,,,,j,red,5c276057336b1500015078e9,2021-09-27_17h19.49.884,forced_choiceRT_color,2021.2.3,Linux x86_64,60.0132029,,,,,,,,5,Slow,short,j,1,2.1521,1,3,7,2,1,,,,,
1.87,,,,,,,,,k,purple,5c276057336b1500015078e9,2021-09-27_17h19.49.884,forced_choiceRT_color,2021.2.3,Linux x86_64,60.0132029,,,,,,,,5,Ontime,short,f,0,2.0511,2,0,8,3,1,,,,,
0.48,,,,,,,,,k,purple,5c276057336b1500015078e9,2021-09-27_17h19.49.884,forced_choiceRT_color,2021.2.3,Linux x86_64,60.0132029,,,,,,,,5,Fast,short,k,1,1.8645,2,1,9,3,1,,,,,
0.27,,,,,,,,,j,red,5c276057336b1500015078e9,2021-09-27_17h19.49.884,forced_choiceRT_color,2021.2.3,Linux x86_64,60.0132029,,,,,,,,5,Ontime,short,j,1,1.9288,2,2,10,2,1,,,,,
1.25,,,,,,,,,d,orange,5c276057336b1500015078e9,2021-09-27_17h19.49.884,forced_choiceRT_color,2021.2.3,Linux x86_64,60.0132029,,,,,,,,5,Ontime,short,d,1,2.0382,2,3,11,0,1,,,,,
0.22,,,,,,,,,d,orange,5c276057336b1500015078e9,2021-09-27_17h19.49.884,forced_choiceRT_color,2021.2.3,Linux x86_64,60.0132029,,,,,,,,5,Ontime,short,d,1,1.9573,3,0,12,0,1,,,,,
0.03,,,,,,,,,f,blue,5c276057336b1500015078e9,2021-09-27_17h19.49.884,forced_choiceRT_color,2021.2.3,Linux x86_64,60.0132029,,,,,,,,5,Ontime,short,f,1,1.9636,3,1,13,1,1,,,,,
0.08,,,,,,,,,j,red,5c276057336b1500015078e9,2021-09-27_17h19.49.884,forced_choiceRT_color,2021.2.3,Linux x86_64,60.0132029,,,,,,,,5,Ontime,short,j,1,1.9468,3,2,14,2,1,,,,,
1.73,,,,,,,,,f,blue,5c276057336b1500015078e9,2021-09-27_17h19.49.884,forced_choiceRT_color,2021.2.3,Linux x86_64,60.0132029,,,,,,,,5,Slow,short,d,0,2.1297,3,3,15,1,1,,,,,
0.6,,,,,,,,,j,red,5c276057336b1500015078e9,2021-09-27_17h19.49.884,forced_choiceRT_color,2021.2.3,Linux x86_64,60.0132029,,,,,,,,5,Ontime,short,f,0,2.0366,4,0,16,2,1,,,,,
1.55,,,,,,,,,k,purple,5c276057336b1500015078e9,2021-09-27_17h19.49.884,forced_choiceRT_color,2021.2.3,Linux x86_64,60.0132029,,,,,,,,5,Slow,short,k,1,2.2597,4,1,17,3,1,,,,,
0.26,,,,,,,,,d,orange,5c276057336b1500015078e9,2021-09-27_17h19.49.884,forced_choiceRT_color,2021.2.3,Linux x86_64,60.0132029,,,,,,,,5,Fast,short,d,1,1.8577,4,2,18,0,1,,,,,
0.71,,,,,,,,,d,orange,5c276057336b1500015078e9,2021-09-27_17h19.49.884,forced_choiceRT_color,2021.2.3,Linux x86_64,60.0132029,,,,,,,,5,Ontime,short,d,1,1.9984,4,3,19,0,1,,,,,
0.67,,,,,,,,,f,blue,5c276057336b1500015078e9,2021-09-27_17h19.49.884,forced_choiceRT_color,2021.2.3,Linux x86_64,60.0132029,,,,,,,,5,Ontime,short,f,1,2.0984,5,0,20,1,1,,,,,
1.24,,,,,,,,,k,purple,5c276057336b1500015078e9,2021-09-27_17h19.49.884,forced_choiceRT_color,2021.2.3,Linux x86_64,60.0132029,,,,,,,,5,Ontime,short,j,0,2.0811,5,1,21,3,1,,,,,
0,,,,,,,,,f,blue,5c276057336b1500015078e9,2021-09-27_17h19.49.884,forced_choiceRT_color,2021.2.3,Linux x86_64,60.0132029,,,,,,,,5,Ontime,short,f,1,1.9438,5,2,22,1,1,,,,,
1.82,,,,,,,,,j,red,5c276057336b1500015078e9,2021-09-27_17h19.49.884,forced_choiceRT_color,2021.2.3,Linux x86_64,60.0132029,,,,,,,,5,Ontime,short,j,1,2.0882,5,3,23,2,1,,,,,
0.65,,,,,,,,,d,orange,5c276057336b1500015078e9,2021-09-27_17h19.49.884,forced_choiceRT_color,2021.2.3,Linux x86_64,60.0132029,,,,,,,,5,Ontime,short,d,1,1.966,6,0,24,0,1,,,,,
0.79,,,,,,,,,k,purple,5c276057336b1500015078e9,2021-09-27_17h19.49.884,forced_choiceRT_color,2021.2.3,Linux x86_64,60.0132029,,,,,,,,5,Fast,short,k,1,1.8074,6,1,25,3,1,,,,,
1.5,,,,,,,,,j,red,5c276057336b1500015078e9,2021-09-27_17h19.49.884,forced_choiceRT_color,2021.2.3,Linux x86_64,60.0132029,,,,,,,,5,Slow,short,f,0,2.1022,6,2,26,2,1,,,,,
1.67,,,,,,,,,d,orange,5c276057336b1500015078e9,2021-09-27_17h19.49.884,forced_choiceRT_color,2021.2.3,Linux x86_64,60.0132029,,,,,,,,5,Ontime,short,f,0,2.0881,6,3,27,0,1,,,,,
0.08,,,,,,,,,f,blue,5c276057336b1500015078e9,2021-09-27_17h19.49.884,forced_choiceRT_color,2021.2.3,Linux x86_64,60.0132029,,,,,,,,5,Fast,short,d,0,0.1025,7,0,28,1,1,,,,,
0.84,,,,,,,,,f,blue,5c276057336b1500015078e9,2021-09-27_17h19.49.884,forced_choiceRT_color,2021.2.3,Linux x86_64,60.0132029,,,,,,,,5,Slow,short,f,1,2.1512,7,1,29,1,1,,,,,
0.14,,,,,,,,,d,orange,5c276057336b1500015078e9,2021-09-27_17h19.49.884,forced_choiceRT_color,2021.2.3,Linux x86_64,60.0132029,,,,,,,,5,Ontime,short,d,1,1.9736,7,2,30,0,1,,,,,
1.71,,,,,,,,,d,orange,5c276057336b1500015078e9,2021-09-27_17h19.49.884,forced_choiceRT_color,2021.2.3,Linux x86_64,60.0132029,,,,,,,,5,Slow,short,d,1,2.1166,7,3,31,0,1,,,,,
0.02,,,,,,,,,k,purple,5c276057336b1500015078e9,2021-09-27_17h19.49.884,forced_choiceRT_color,2021.2.3,Linux x86_64,60.0132029,,,,,,,,5,Ontime,short,k,1,1.9665,8,0,32,3,1,,,,,
1.07,,,,,,,,,j,red,5c276057336b1500015078e9,2021-09-27_17h19.49.884,forced_choiceRT_color,2021.2.3,Linux x86_64,60.0132029,,,,,,,,5,Ontime,short,j,1,1.9824,8,1,33,2,1,,,,,
0.59,,,,,,,,,f,blue,5c276057336b1500015078e9,2021-09-27_17h19.49.884,forced_choiceRT_color,2021.2.3,Linux x86_64,60.0132029,,,,,,,,5,Ontime,short,f,1,1.9204,8,2,34,1,1,,,,,
0.44,,,,,,,,,f,blue,5c276057336b1500015078e9,2021-09-27_17h19.49.884,forced_choiceRT_color,2021.2.3,Linux x86_64,60.0132029,,,,,,,,5,Fast,short,f,1,1.8692,8,3,35,1,1,,,,,
0.23,,,,,,,,,k,purple,5c276057336b1500015078e9,2021-09-27_17h19.49.884,forced_choiceRT_color,2021.2.3,Linux x86_64,60.0132029,,,,,,,,5,Slow,short,k,1,2.1872,9,0,36,3,1,,,,,
0.46,,,,,,,,,j,red,5c276057336b1500015078e9,2021-09-27_17h19.49.884,forced_choiceRT_color,2021.2.3,Linux x86_64,60.0132029,,,,,,,,5,Ontime,short,j,1,2.028,9,1,37,2,1,,,,,
0.34,,,,,,,,,f,blue,5c276057336b1500015078e9,2021-09-27_17h19.49.884,forced_choiceRT_color,2021.2.3,Linux x86_64,60.0132029,,,,,,,,5,Ontime,short,f,1,2.021,9,2,38,1,1,,,,,
0.44,,,,,,,,,f,blue,5c276057336b1500015078e9,2021-09-27_17h19.49.884,forced_choiceRT_color,2021.2.3,Linux x86_64,60.0132029,,,,,,,,5,Fast,short,f,1,1.7537,9,3,39,1,1,,,,,
,,,,,,,,,,,5c276057336b1500015078e9,2021-09-27_17h19.49.884,forced_choiceRT_color,2021.2.3,Linux x86_64,60.0132029,,,,,,,,,,,,,,,,,,,4,0,4,0,1
1.85,,,,,,,,,d,orange,5c276057336b1500015078e9,2021-09-27_17h19.49.884,forced_choiceRT_color,2021.2.3,Linux x86_64,60.0132029,,,,,,,,6,Slow,short,f,0,2.2256,0,0,0,0,1,,,,,
1.84,,,,,,,,,k,purple,5c276057336b1500015078e9,2021-09-27_17h19.49.884,forced_choiceRT_color,2021.2.3,Linux x86_64,60.0132029,,,,,,,,6,Slow,short,k,1,2.1962,0,1,1,3,1,,,,,
1.23,,,,,,,,,d,orange,5c276057336b1500015078e9,2021-09-27_17h19.49.884,forced_choiceRT_color,2021.2.3,Linux x86_64,60.0132029,,,,,,,,6,Ontime,short,d,1,2.077,0,2,2,0,1,,,,,
1.65,,,,,,,,,f,blue,5c276057336b1500015078e9,2021-09-27_17h19.49.884,forced_choiceRT_color,2021.2.3,Linux x86_64,60.0132029,,,,,,,,6,Slow,short,j,0,2.2648,0,3,3,1,1,,,,,
1.82,,,,,,,,,k,purple,5c276057336b1500015078e9,2021-09-27_17h19.49.884,forced_choiceRT_color,2021.2.3,Linux x86_64,60.0132029,,,,,,,,6,Slow,short,k,1,2.1177,1,0,4,3,1,,,,,
0.87,,,,,,,,,d,orange,5c276057336b1500015078e9,2021-09-27_17h19.49.884,forced_choiceRT_color,2021.2.3,Linux x86_64,60.0132029,,,,,,,,6,Fast,short,d,1,1.8435,1,1,5,0,1,,,,,
0.08,,,,,,,,,d,orange,5c276057336b1500015078e9,2021-09-27_17h19.49.884,forced_choiceRT_color,2021.2.3,Linux x86_64,60.0132029,,,,,,,,6,Slow,short,d,1,2.1015,1,2,6,0,1,,,,,
1.17,,,,,,,,,d,orange,5c276057336b1500015078e9,2021-09-27_17h19.49.884,forced_choiceRT_color,2021.2.3,Linux x86_64,60.0132029,,,,,,,,6,Ontime,short,d,1,2.0493,1,3,7,0,1,,,,,
0.66,,,,,,,,,j,red,5c276057336b1500015078e9,2021-09-27_17h19.49.884,forced_choiceRT_color,2021.2.3,Linux x86_64,60.0132029,,,,,,,,6,Ontime,short,j,1,1.9947,2,0,8,2,1,,,,,
1.95,,,,,,,,,k,purple,5c276057336b1500015078e9,2021-09-27_17h19.49.884,forced_choiceRT_color,2021.2.3,Linux x86_64,60.0132029,,,,,,,,6,Slow,short,f,0,2.2013,2,1,9,3,1,,,,,
0.55,,,,,,,,,d,orange,5c276057336b1500015078e9,2021-09-27_17h19.49.884,forced_choiceRT_color,2021.2.3,Linux x86_64,60.0132029,,,,,,,,6,Ontime,short,d,1,2.0102,2,2,10,0,1,,,,,
1.97,,,,,,,,,j,red,5c276057336b1500015078e9,2021-09-27_17h19.49.884,forced_choiceRT_color,2021.2.3,Linux x86_64,60.0132029,,,,,,,,6,Slow,short,d,0,2.1351,2,3,11,2,1,,,,,
1.15,,,,,,,,,d,orange,5c276057336b1500015078e9,2021-09-27_17h19.49.884,forced_choiceRT_color,2021.2.3,Linux x86_64,60.0132029,,,,,,,,6,Fast,short,d,1,1.8805,3,0,12,0,1,,,,,
1.18,,,,,,,,,f,blue,5c276057336b1500015078e9,2021-09-27_17h19.49.884,forced_choiceRT_color,2021.2.3,Linux x86_64,60.0132029,,,,,,,,6,Fast,short,f,1,1.8435,3,1,13,1,1,,,,,
0.92,,,,,,,,,f,blue,5c276057336b1500015078e9,2021-09-27_17h19.49.884,forced_choiceRT_color,2021.2.3,Linux x86_64,60.0132029,,,,,,,,6,Ontime,short,f,1,1.9629,3,2,14,1,1,,,,,
0.72,,,,,,,,,j,red,5c276057336b1500015078e9,2021-09-27_17h19.49.884,forced_choiceRT_color,2021.2.3,Linux x86_64,60.0132029,,,,,,,,6,Ontime,short,j,1,2.0943,3,3,15,2,1,,,,,
1.7,,,,,,,,,f,blue,5c276057336b1500015078e9,2021-09-27_17h19.49.884,forced_choiceRT_color,2021.2.3,Linux x86_64,60.0132029,,,,,,,,6,Ontime,short,k,0,1.9597,4,0,16,1,1,,,,,
1.54,,,,,,,,,j,red,5c276057336b1500015078e9,2021-09-27_17h19.49.884,forced_choiceRT_color,2021.2.3,Linux x86_64,60.0132029,,,,,,,,6,Ontime,short,k,0,2.0206,4,1,17,2,1,,,,,
1.13,,,,,,,,,j,red,5c276057336b1500015078e9,2021-09-27_17h19.49.884,forced_choiceRT_color,2021.2.3,Linux x86_64,60.0132029,,,,,,,,6,Slow,short,j,1,2.1887,4,2,18,2,1,,,,,
1.72,,,,,,,,,f,blue,5c276057336b1500015078e9,2021-09-27_17h19.49.884,forced_choiceRT_color,2021.2.3,Linux x86_64,60.0132029,,,,,,,,6,Ontime,short,f,1,1.9875,4,3,19,1,1,,,,,
1.19,,,,,,,,,j,red,5c276057336b1500015078e9,2021-09-27_17h19.49.884,forced_choiceRT_color,2021.2.3,Linux x86_64,60.0132029,,,,,,,,6,Ontime,short,j,1,1.9047,5,0,20,2,1,,,,,
1.84,,,,,,,,,k,purple,5c276057336b1500015078e9,2021-09-27_17h19.49.884,forced_choiceRT_color,2021.2.3,Linux x86_64,60.0132029,,,,,,,,6,Ontime,short,f,0,2.0334,5,1,21,3,1,,,,,
1.48,,,,,,,,,d,orange,5c276057336b1500015078e9,2021-09-27_17h19.49.884,forced_choiceRT_color,2021.2.3,Linux x86_64,60.0132029,,,,,,,,6,Slow,short,d,1,2.2027,5,2,22,0,1,,,,,
1.88,,,,,,,,,j,red,5c276057336b1500015078e9,2021-09-27_17h19.49.884,forced_choiceRT_color,2021.2.3,Linux x86_64,60.0132029,,,,,,,,6,Slow,short,k,0,2.1009,5,3,23,2,1,,,,,
0.05,,,,,,,,,j,red,5c276057336b1500015078e9,2021-09-27_17h19.49.884,forced_choiceRT_color,2021.2.3,Linux x86_64,60.0132029,,,,,,,,6,Ontime,short,j,1,1.9633,6,0,24,2,1,,,,,
0.31,,,,,,,,,j,red,5c276057336b1500015078e9,2021-09-27_17h19.49.884,forced_choiceRT_color,2021.2.3,Linux x86_64,60.0132029,,,,,,,,6,Fast,short,j,1,1.8772,6,1,25,2,1,,,,,
0.64,,,,,,,,,f,blue,5c276057336b1500015078e9,2021-09-27_17h19.49.884,forced_choiceRT_color,2021.2.3,Linux x86_64,60.0132029,,,,,,,,6,Ontime,short,f,1,1.9934,6,2,26,1,1,,,,,
0.34,,,,,,,,,f,blue,5c276057336b1500015078e9,2021-09-27_17h19.49.884,forced_choiceRT_color,2021.2.3,Linux x86_64,60.0132029,,,,,,,,6,Ontime,short,f,1,1.9274,6,3,27,1,1,,,,,
1.57,,,,,,,,,f,blue,5c276057336b1500015078e9,2021-09-27_17h19.49.884,forced_choiceRT_color,2021.2.3,Linux x86_64,60.0132029,,,,,,,,6,Ontime,short,f,1,2.0857,7,0,28,1,1,,,,,
0.76,,,,,,,,,k,purple,5c276057336b1500015078e9,2021-09-27_17h19.49.884,forced_choiceRT_color,2021.2.3,Linux x86_64,60.0132029,,,,,,,,6,Ontime,short,k,1,2.0012,7,1,29,3,1,,,,,
1.76,,,,,,,,,d,orange,5c276057336b1500015078e9,2021-09-27_17h19.49.884,forced_choiceRT_color,2021.2.3,Linux x86_64,60.0132029,,,,,,,,6,Ontime,short,j,0,2.0373,7,2,30,0,1,,,,,
0.3,,,,,,,,,j,red,5c276057336b1500015078e9,2021-09-27_17h19.49.884,forced_choiceRT_color,2021.2.3,Linux x86_64,60.0132029,,,,,,,,6,Fast,short,j,1,1.7828,7,3,31,2,1,,,,,
1.62,,,,,,,,,k,purple,5c276057336b1500015078e9,2021-09-27_17h19.49.884,forced_choiceRT_color,2021.2.3,Linux x86_64,60.0132029,,,,,,,,6,Ontime,short,k,1,2.0518,8,0,32,3,1,,,,,
1.21,,,,,,,,,k,purple,5c276057336b1500015078e9,2021-09-27_17h19.49.884,forced_choiceRT_color,2021.2.3,Linux x86_64,60.0132029,,,,,,,,6,Ontime,short,k,1,2.0348,8,1,33,3,1,,,,,
1.43,,,,,,,,,k,purple,5c276057336b1500015078e9,2021-09-27_17h19.49.884,forced_choiceRT_color,2021.2.3,Linux x86_64,60.0132029,,,,,,,,6,Ontime,short,k,1,1.9517,8,2,34,3,1,,,,,
0.59,,,,,,,,,k,purple,5c276057336b1500015078e9,2021-09-27_17h19.49.884,forced_choiceRT_color,2021.2.3,Linux x86_64,60.0132029,,,,,,,,6,Fast,short,k,1,1.7704,8,3,35,3,1,,,,,
0.78,,,,,,,,,d,orange,5c276057336b1500015078e9,2021-09-27_17h19.49.884,forced_choiceRT_color,2021.2.3,Linux x86_64,60.0132029,,,,,,,,6,Ontime,short,d,1,2.026,9,0,36,0,1,,,,,
0.21,,,,,,,,,f,blue,5c276057336b1500015078e9,2021-09-27_17h19.49.884,forced_choiceRT_color,2021.2.3,Linux x86_64,60.0132029,,,,,,,,6,Ontime,short,f,1,2.0296,9,1,37,1,1,,,,,
1.75,,,,,,,,,k,purple,5c276057336b1500015078e9,2021-09-27_17h19.49.884,forced_choiceRT_color,2021.2.3,Linux x86_64,60.0132029,,,,,,,,6,Slow,short,j,0,2.153,9,2,38,3,1,,,,,
1.78,,,,,,,,,f,blue,5c276057336b1500015078e9,2021-09-27_17h19.49.884,forced_choiceRT_color,2021.2.3,Linux x86_64,60.0132029,,,,,,,,6,Slow,short,k,0,2.1129,9,3,39,1,1,,,,,
,,,,,,,,,,,5c276057336b1500015078e9,2021-09-27_17h19.49.884,forced_choiceRT_color,2021.2.3,Linux x86_64,60.0132029,,,,,,,,,,,,,,,,,,,5,0,5,0,1
0.56,,,,,,,,,f,blue,5c276057336b1500015078e9,2021-09-27_17h19.49.884,forced_choiceRT_color,2021.2.3,Linux x86_64,60.0132029,,,,,,,,7,Ontime,short,f,1,2.0146,0,0,0,1,1,,,,,
1.96,,,,,,,,,d,orange,5c276057336b1500015078e9,2021-09-27_17h19.49.884,forced_choiceRT_color,2021.2.3,Linux x86_64,60.0132029,,,,,,,,7,Slow,short,j,0,2.1052,0,1,1,0,1,,,,,
0.34,,,,,,,,,k,purple,5c276057336b1500015078e9,2021-09-27_17h19.49.884,forced_choiceRT_color,2021.2.3,Linux x86_64,60.0132029,,,,,,,,7,Ontime,short,k,1,1.9854,0,2,2,3,1,,,,,
1.05,,,,,,,,,d,orange,5c276057336b1500015078e9,2021-09-27_17h19.49.884,forced_choiceRT_color,2021.2.3,Linux x86_64,60.0132029,,,,,,,,7,Slow,short,d,1,2.1468,0,3,3,0,1,,,,,
0.45,,,,,,,,,j,red,5c276057336b1500015078e9,2021-09-27_17h19.49.884,forced_choiceRT_color,2021.2.3,Linux x86_64,60.0132029,,,,,,,,7,Ontime,short,j,1,2.0377,1,0,4,2,1,,,,,
1.39,,,,,,,,,d,orange,5c276057336b1500015078e9,2021-09-27_17h19.49.884,forced_choiceRT_color,2021.2.3,Linux x86_64,60.0132029,,,,,,,,7,Slow,short,d,1,2.2129,1,1,5,0,1,,,,,
1.62,,,,,,,,,d,orange,5c276057336b1500015078e9,2021-09-27_17h19.49.884,forced_choiceRT_color,2021.2.3,Linux x86_64,60.0132029,,,,,,,,7,Ontime,short,d,1,2.0374,1,2,6,0,1,,,,,
1.49,,,,,,,,,d,orange,5c276057336b1500015078e9,2021-09-27_17h19.49.884,forced_choiceRT_color,2021.2.3,Linux x86_64,60.0132029,,,,,,,,7,Slow,short,d,1,2.144,1,3,7,0,1,,,,,
1.48,,,,,,,,,k,purple,5c276057336b1500015078e9,2021-09-27_17h19.49.884,forced_choiceRT_color,2021.2.3,Linux x86_64,60.0132029,,,,,,,,7,Slow,short,k,1,2.1023,2,0,8,3,1,,,,,
1.55,,,,,,,,,d,orange,5c276057336b1500015078e9,2021-09-27_17h19.49.884,forced_choiceRT_color,2021.2.3,Linux x86_64,60.0132029,,,,,,,,7,Slow,short,d,1,2.1629,2,1,9,0,1,,,,,
1.1,,,,,,,,,f,blue,5c276057336b1500015078e9,2021-09-27_17h19.49.884,forced_choiceRT_color,2021.2.3,Linux x86_64,60.0132029,,,,,,,,7,Slow,short,j,0,2.1529,2,2,10,1,1,,,,,
0.19,,,,,,,,,j,red,5c276057336b1500015078e9,2021-09-27_17h19.49.884,forced_choiceRT_color,2021.2.3,Linux x86_64,60.0132029,,,,,,,,7,Ontime,short,j,1,1.9783,2,3,11,2,1,,,,,
1.02,,,,,,,,,k,purple,5c276057336b1500015078e9,2021-09-27_17h19.49.884,forced_choiceRT_color,2021.2.3,Linux x86_64,60.0132029,,,,,,,,7,Ontime,short,k,1,1.9409,3,0,12,3,1,,,,,
1.2,,,,,,,,,j,red,5c276057336b1500015078e9,2021-09-27_17h19.49.884,forced_choiceRT_color,2021.2.3,Linux x86_64,60.0132029,,,,,,,,7,Fast,short,d,0,1.8312,3,1,13,2,1,,,,,
1.43,,,,,,,,,f,blue,5c276057336b1500015078e9,2021-09-27_17h19.49.884,forced_choiceRT_color,2021.2.3,Linux x86_64,60.0132029,,,,,,,,7,Ontime,short,f,1,2.072,3,2,14,1,1,,,,,
0.95,,,,,,,,,k,purple,5c276057336b1500015078e9,2021-09-27_17h19.49.884,forced_choiceRT_color,2021.2.3,Linux x86_64,60.0132029,,,,,,,,7,Slow,short,k,1,2.1347,3,3,15,3,1,,,,,
1.38,,,,,,,,,d,orange,5c276057336b1500015078e9,2021-09-27_17h19.49.884,forced_choiceRT_color,2021.2.3,Linux x86_64,60.0132029,,,,,,,,7,Ontime,short,d,1,1.9396,4,0,16,0,1,,,,,
1.71,,,,,,,,,j,red,5c276057336b1500015078e9,2021-09-27_17h19.49.884,forced_choiceRT_color,2021.2.3,Linux x86_64,60.0132029,,,,,,,,7,Ontime,short,j,1,2.07,4,1,17,2,1,,,,,
1.66,,,,,,,,,d,orange,5c276057336b1500015078e9,2021-09-27_17h19.49.884,forced_choiceRT_color,2021.2.3,Linux x86_64,60.0132029,,,,,,,,7,Slow,short,d,1,2.1996,4,2,18,0,1,,,,,
0.1,,,,,,,,,k,purple,5c276057336b1500015078e9,2021-09-27_17h19.49.884,forced_choiceRT_color,2021.2.3,Linux x86_64,60.0132029,,,,,,,,7,Ontime,short,k,1,1.972,4,3,19,3,1,,,,,
1.41,,,,,,,,,j,red,5c276057336b1500015078e9,2021-09-27_17h19.49.884,forced_choiceRT_color,2021.2.3,Linux x86_64,60.0132029,,,,,,,,7,Ontime,short,f,0,1.9471,5,0,20,2,1,,,,,
0.05,,,,,,,,,f,blue,5c276057336b1500015078e9,2021-09-27_17h19.49.884,forced_choiceRT_color,2021.2.3,Linux x86_64,60.0132029,,,,,,,,7,Fast,short,f,1,1.7768,5,1,21,1,1,,,,,
0.99,,,,,,,,,j,red,5c276057336b1500015078e9,2021-09-27_17h19.49.884,forced_choiceRT_color,2021.2.3,Linux x86_64,60.0132029,,,,,,,,7,Ontime,short,j,1,2.0619,5,2,22,2,1,,,,,
0.56,,,,,,,,,f,blue,5c276057336b1500015078e9,2021-09-27_17h19.49.884,forced_choiceRT_color,2021.2.3,Linux x86_64,60.0132029,,,,,,,,7,Ontime,short,f,1,1.9352,5,3,23,1,1,,,,,
1.2,,,,,,,,,f,blue,5c276057336b1500015078e9,2021-09-27_17h19.49.884,forced_choiceRT_color,2021.2.3,Linux x86_64,60.0132029,,,,,,,,7,Ontime,short,f,1,1.9184,6,0,24,1,1,,,,,
1.33,,,,,,,,,k,purple,5c276057336b1500015078e9,2021-09-27_17h19.49.884,forced_choiceRT_color,2021.2.3,Linux x86_64,60.0132029,,,,,,,,7,Fast,short,j,0,1.8729,6,1,25,3,1,,,,,
0.21,,,,,,,,,d,orange,5c276057336b1500015078e9,2021-09-27_17h19.49.884,forced_choiceRT_color,2021.2.3,Linux x86_64,60.0132029,,,,,,,,7,Ontime,short,d,1,1.9885,6,2,26,0,1,,,,,
0.91,,,,,,,,,f,blue,5c276057336b1500015078e9,2021-09-27_17h19.49.884,forced_choiceRT_color,2021.2.3,Linux x86_64,60.0132029,,,,,,,,7,Ontime,short,f,1,2.0839,6,3,27,1,1,,,,,
1.04,,,,,,,,,j,red,5c276057336b1500015078e9,2021-09-27_17h19.49.884,forced_choiceRT_color,2021.2.3,Linux x86_64,60.0132029,,,,,,,,7,Slow,short,j,1,2.1854,7,0,28,2,1,,,,,
0.56,,,,,,,,,k,purple,5c276057336b1500015078e9,2021-09-27_17h19.49.884,forced_choiceRT_color,2021.2.3,Linux x86_64,60.0132029,,,,,,,,7,Ontime,short,k,1,1.9223,7,1,29,3,1,,,,,
0.23,,,,,,,,,f,blue,5c276057336b1500015078e9,2021-09-27_17h19.49.884,forced_choiceRT_color,2021.2.3,Linux x86_64,60.0132029,,,,,,,,7,Fast,short,f,1,1.8845,7,2,30,1,1,,,,,
1.08,,,,,,,,,j,red,5c276057336b1500015078e9,2021-09-27_17h19.49.884,forced_choiceRT_color,2021.2.3,Linux x86_64,60.0132029,,,,,,,,7,Ontime,short,j,1,1.9496,7,3,31,2,1,,,,,
0.06,,,,,,,,,f,blue,5c276057336b1500015078e9,2021-09-27_17h19.49.884,forced_choiceRT_color,2021.2.3,Linux x86_64,60.0132029,,,,,,,,7,Slow,short,f,1,2.133,8,0,32,1,1,,,,,
1.01,,,,,,,,,f,blue,5c276057336b1500015078e9,2021-09-27_17h19.49.884,forced_choiceRT_color,2021.2.3,Linux x86_64,60.0132029,,,,,,,,7,Ontime,short,f,1,2.0172,8,1,33,1,1,,,,,
1.49,,,,,,,,,j,red,5c276057336b1500015078e9,2021-09-27_17h19.49.884,forced_choiceRT_color,2021.2.3,Linux x86_64,60.0132029,,,,,,,,7,Slow,short,j,1,2.1845,8,2,34,2,1,,,,,
0.16,,,,,,,,,k,purple,5c276057336b1500015078e9,2021-09-27_17h19.49.884,forced_choiceRT_color,2021.2.3,Linux x86_64,60.0132029,,,,,,,,7,Ontime,short,k,1,2.0667,8,3,35,3,1,,,,,
1.02,,,,,,,,,k,purple,5c276057336b1500015078e9,2021-09-27_17h19.49.884,forced_choiceRT_color,2021.2.3,Linux x86_64,60.0132029,,,,,,,,7,Slow,short,k,1,2.1343,9,0,36,3,1,,,,,
0.82,,,,,,,,,j,red,5c276057336b1500015078e9,2021-09-27_17h19.49.884,forced_choiceRT_color,2021.2.3,Linux x86_64,60.0132029,,,,,,,,7,Fast,short,j,1,1.8538,9,1,37,2,1,,,,,
1.87,,,,,,,,,d,orange,5c276057336b1500015078e9,2021-09-27_17h19.49.884,forced_choiceRT_color,2021.2.3,Linux x86_64,60.0132029,,,,,,,,7,Ontime,short,j,0,2.0798,9,2,38,0,1,,,,,
1.58,,,,,,,,,k,purple,5c276057336b1500015078e9,2021-09-27_17h19.49.884,forced_choiceRT_color,2021.2.3,Linux x86_64,60.0132029,,,,,,,,7,Slow,short,k,1,2.141,9,3,39,3,1,,,,,
,,,,,,,,,,,5c276057336b1500015078e9,2021-09-27_17h19.49.884,forced_choiceRT_color,2021.2.3,Linux x86_64,60.0132029,,,,,,,,,,,,,,,,,,,6,0,6,0,1
0,,,,,,,,,d,orange,5c276057336b1500015078e9,2021-09-27_17h19.49.884,forced_choiceRT_color,2021.2.3,Linux x86_64,60.0132029,,,,,,,,8,Ontime,short,d,1,1.9016,0,0,0,0,1,,,,,
1.8,,,,,,,,,f,blue,5c276057336b1500015078e9,2021-09-27_17h19.49.884,forced_choiceRT_color,2021.2.3,Linux x86_64,60.0132029,,,,,,,,8,Ontime,short,j,0,2.0355,0,1,1,1,1,,,,,
1.52,,,,,,,,,k,purple,5c276057336b1500015078e9,2021-09-27_17h19.49.884,forced_choiceRT_color,2021.2.3,Linux x86_64,60.0132029,,,,,,,,8,Ontime,short,j,0,1.9537,0,2,2,3,1,,,,,
0.62,,,,,,,,,f,blue,5c276057336b1500015078e9,2021-09-27_17h19.49.884,forced_choiceRT_color,2021.2.3,Linux x86_64,60.0132029,,,,,,,,8,Fast,short,k,0,0.0436,0,3,3,1,1,,,,,
1.24,,,,,,,,,k,purple,5c276057336b1500015078e9,2021-09-27_17h19.49.884,forced_choiceRT_color,2021.2.3,Linux x86_64,60.0132029,,,,,,,,8,Fast,short,k,1,1.8853,1,0,4,3,1,,,,,
0.21,,,,,,,,,d,orange,5c276057336b1500015078e9,2021-09-27_17h19.49.884,forced_choiceRT_color,2021.2.3,Linux x86_64,60.0132029,,,,,,,,8,Ontime,short,d,1,2.0081,1,1,5,0,1,,,,,
1.2,,,,,,,,,j,red,5c276057336b1500015078e9,2021-09-27_17h19.49.884,forced_choiceRT_color,2021.2.3,Linux x86_64,60.0132029,,,,,,,,8,Fast,short,j,1,1.8954,1,2,6,2,1,,,,,
0.94,,,,,,,,,d,orange,5c276057336b1500015078e9,2021-09-27_17h19.49.884,forced_choiceRT_color,2021.2.3,Linux x86_64,60.0132029,,,,,,,,8,Ontime,short,d,1,2.0189,1,3,7,0,1,,,,,
0.36,,,,,,,,,j,red,5c276057336b1500015078e9,2021-09-27_17h19.49.884,forced_choiceRT_color,2021.2.3,Linux x86_64,60.0132029,,,,,,,,8,Fast,short,j,1,1.8826,2,0,8,2,1,,,,,
1.95,,,,,,,,,d,orange,5c276057336b1500015078e9,2021-09-27_17h19.49.884,forced_choiceRT_color,2021.2.3,Linux x86_64,60.0132029,,,,,,,,8,Slow,short,k,0,2.1197,2,1,9,0,1,,,,,
0.05,,,,,,,,,d,orange,5c276057336b1500015078e9,2021-09-27_17h19.49.884,forced_choiceRT_color,2021.2.3,Linux x86_64,60.0132029,,,,,,,,8,Ontime,short,d,1,2.0281,2,2,10,0,1,,,,,
1.46,,,,,,,,,k,purple,5c276057336b1500015078e9,2021-09-27_17h19.49.884,forced_choiceRT_color,2021.2.3,Linux x86_64,60.0132029,,,,,,,,8,Slow,short,k,1,2.2455,2,3,11,3,1,,,,,
0.58,,,,,,,,,j,red,5c276057336b1500015078e9,2021-09-27_17h19.49.884,forced_choiceRT_color,2021.2.3,Linux x86_64,60.0132029,,,,,,,,8,Ontime,short,j,1,1.9326,3,0,12,2,1,,,,,
0.22,,,,,,,,,k,purple,5c276057336b1500015078e9,2021-09-27_17h19.49.884,forced_choiceRT_color,2021.2.3,Linux x86_64,60.0132029,,,,,,,,8,Fast,short,k,1,1.8498,3,1,13,3,1,,,,,
1.75,,,,,,,,,f,blue,5c276057336b1500015078e9,2021-09-27_17h19.49.884,forced_choiceRT_color,2021.2.3,Linux x86_64,60.0132029,,,,,,,,8,Slow,short,k,0,2.1251,3,2,14,1,1,,,,,
0.87,,,,,,,,,j,red,5c276057336b1500015078e9,2021-09-27_17h19.49.884,forced_choiceRT_color,2021.2.3,Linux x86_64,60.0132029,,,,,,,,8,Ontime,short,f,0,2.0712,3,3,15,2,1,,,,,
0.36,,,,,,,,,d,orange,5c276057336b1500015078e9,2021-09-27_17h19.49.884,forced_choiceRT_color,2021.2.3,Linux x86_64,60.0132029,,,,,,,,8,Ontime,short,d,1,1.9186,4,0,16,0,1,,,,,
1.89,,,,,,,,,k,purple,5c276057336b1500015078e9,2021-09-27_17h19.49.884,forced_choiceRT_color,2021.2.3,Linux x86_64,60.0132029,,,,,,,,8,Slow,short,k,1,2.42,4,1,17,3,1,,,,,
1.11,,,,,,,,,f,blue,5c276057336b1500015078e9,2021-09-27_17h19.49.884,forced_choiceRT_color,2021.2.3,Linux x86_64,60.0132029,,,,,,,,8,Ontime,short,j,0,2.0613,4,2,18,1,1,,,,,
0.4,,,,,,,,,d,orange,5c276057336b1500015078e9,2021-09-27_17h19.49.884,forced_choiceRT_color,2021.2.3,Linux x86_64,60.0132029,,,,,,,,8,Fast,short,d,1,1.8524,4,3,19,0,1,,,,,
0.06,,,,,,,,,j,red,5c276057336b1500015078e9,2021-09-27_17h19.49.884,forced_choiceRT_color,2021.2.3,Linux x86_64,60.0132029,,,,,,,,8,Ontime,short,j,1,1.9561,5,0,20,2,1,,,,,
1.33,,,,,,,,,j,red,5c276057336b1500015078e9,2021-09-27_17h19.49.884,forced_choiceRT_color,2021.2.3,Linux x86_64,60.0132029,,,,,,,,8,Ontime,short,j,1,2.0021,5,1,21,2,1,,,,,
1.38,,,,,,,,,d,orange,5c276057336b1500015078e9,2021-09-27_17h19.49.884,forced_choiceRT_color,2021.2.3,Linux x86_64,60.0132029,,,,,,,,8,Slow,short,d,1,2.1347,5,2,22,0,1,,,,,
0.37,,,,,,,,,f,blue,5c276057336b1500015078e9,2021-09-27_17h19.49.884,forced_choiceRT_color,2021.2.3,Linux x86_64,60.0132029,,,,,,,,8,Ontime,short,f,1,1.9403,5,3,23,1,1,,,,,
1.75,,,,,,,,,k,purple,5c276057336b1500015078e9,2021-09-27_17h19.49.884,forced_choiceRT_color,2021.2.3,Linux x86_64,60.0132029,,,,,,,,8,Slow,short,j,0,2.1251,6,0,24,3,1,,,,,
1.91,,,,,,,,,f,blue,5c276057336b1500015078e9,2021-09-27_17h19.49.884,forced_choiceRT_color,2021.2.3,Linux x86_64,60.0132029,,,,,,,,8,Slow,short,k,0,2.1159,6,1,25,1,1,,,,,
1.19,,,,,,,,,k,purple,5c276057336b1500015078e9,2021-09-27_17h19.49.884,forced_choiceRT_color,2021.2.3,Linux x86_64,60.0132029,,,,,,,,8,Ontime,short,k,1,2.0024,6,2,26,3,1,,,,,
1.02,,,,,,,,,j,red,5c276057336b1500015078e9,2021-09-27_17h19.49.884,forced_choiceRT_color,2021.2.3,Linux x86_64,60.0132029,,,,,,,,8,Ontime,short,j,1,2.0443,6,3,27,2,1,,,,,
0.27,,,,,,,,,j,red,5c276057336b1500015078e9,2021-09-27_17h19.49.884,forced_choiceRT_color,2021.2.3,Linux x86_64,60.0132029,,,,,,,,8,Fast,short,j,1,1.8847,7,0,28,2,1,,,,,
1.74,,,,,,,,,k,purple,5c276057336b1500015078e9,2021-09-27_17h19.49.884,forced_choiceRT_color,2021.2.3,Linux x86_64,60.0132029,,,,,,,,8,Ontime,short,f,0,2.0374,7,1,29,3,1,,,,,
0.76,,,,,,,,,d,orange,5c276057336b1500015078e9,2021-09-27_17h19.49.884,forced_choiceRT_color,2021.2.3,Linux x86_64,60.0132029,,,,,,,,8,Ontime,short,d,1,1.9206,7,2,30,0,1,,,,,
1.72,,,,,,,,,k,purple,5c276057336b1500015078e9,2021-09-27_17h19.49.884,forced_choiceRT_color,2021.2.3,Linux x86_64,60.0132029,,,,,,,,8,Ontime,short,k,1,1.9848,7,3,31,3,1,,,,,
0.41,,,,,,,,,f,blue,5c276057336b1500015078e9,2021-09-27_17h19.49.884,forced_choiceRT_color,2021.2.3,Linux x86_64,60.0132029,,,,,,,,8,Fast,short,f,1,1.7574,8,0,32,1,1,,,,,
1.68,,,,,,,,,d,orange,5c276057336b1500015078e9,2021-09-27_17h19.49.884,forced_choiceRT_color,2021.2.3,Linux x86_64,60.0132029,,,,,,,,8,Slow,short,d,1,2.1708,8,1,33,0,1,,,,,
1.5,,,,,,,,,k,purple,5c276057336b1500015078e9,2021-09-27_17h19.49.884,forced_choiceRT_color,2021.2.3,Linux x86_64,60.0132029,,,,,,,,8,Fast,short,j,0,1.8257,8,2,34,3,1,,,,,
1.15,,,,,,,,,j,red,5c276057336b1500015078e9,2021-09-27_17h19.49.884,forced_choiceRT_color,2021.2.3,Linux x86_64,60.0132029,,,,,,,,8,Ontime,short,j,1,1.9341,8,3,35,2,1,,,,,
0.72,,,,,,,,,j,red,5c276057336b1500015078e9,2021-09-27_17h19.49.884,forced_choiceRT_color,2021.2.3,Linux x86_64,60.0132029,,,,,,,,8,Ontime,short,j,1,1.9527,9,0,36,2,1,,,,,
1.22,,,,,,,,,f,blue,5c276057336b1500015078e9,2021-09-27_17h19.49.884,forced_choiceRT_color,2021.2.3,Linux x86_64,60.0132029,,,,,,,,8,Fast,short,f,1,1.8738,9,1,37,1,1,,,,,
1.46,,,,,,,,,f,blue,5c276057336b1500015078e9,2021-09-27_17h19.49.884,forced_choiceRT_color,2021.2.3,Linux x86_64,60.0132029,,,,,,,,8,Ontime,short,f,1,2.0658,9,2,38,1,1,,,,,
1.62,,,,,,,,,f,blue,5c276057336b1500015078e9,2021-09-27_17h19.49.884,forced_choiceRT_color,2021.2.3,Linux x86_64,60.0132029,,,,,,,,8,Ontime,short,f,1,1.9875,9,3,39,1,1,,,,,
,,,,,,,,,,,5c276057336b1500015078e9,2021-09-27_17h19.49.884,forced_choiceRT_color,2021.2.3,Linux x86_64,60.0132029,,,,,,,,,,,,,,,,,,,7,0,7,0,1
1.7,,,,,,,,,d,orange,5c276057336b1500015078e9,2021-09-27_17h19.49.884,forced_choiceRT_color,2021.2.3,Linux x86_64,60.0132029,,,,,,,,9,Ontime,short,j,0,2.0072,0,0,0,0,1,,,,,
1.81,,,,,,,,,k,purple,5c276057336b1500015078e9,2021-09-27_17h19.49.884,forced_choiceRT_color,2021.2.3,Linux x86_64,60.0132029,,,,,,,,9,Slow,short,k,1,2.2184,0,1,1,3,1,,,,,
1.79,,,,,,,,,j,red,5c276057336b1500015078e9,2021-09-27_17h19.49.884,forced_choiceRT_color,2021.2.3,Linux x86_64,60.0132029,,,,,,,,9,Ontime,short,j,1,2.0953,0,2,2,2,1,,,,,
1.05,,,,,,,,,f,blue,5c276057336b1500015078e9,2021-09-27_17h19.49.884,forced_choiceRT_color,2021.2.3,Linux x86_64,60.0132029,,,,,,,,9,Fast,short,f,1,1.8773,0,3,3,1,1,,,,,
0.15,,,,,,,,,j,red,5c276057336b1500015078e9,2021-09-27_17h19.49.884,forced_choiceRT_color,2021.2.3,Linux x86_64,60.0132029,,,,,,,,9,Ontime,short,j,1,2.0107,1,0,4,2,1,,,,,
0.78,,,,,,,,,f,blue,5c276057336b1500015078e9,2021-09-27_17h19.49.884,forced_choiceRT_color,2021.2.3,Linux x86_64,60.0132029,,,,,,,,9,Slow,short,f,1,2.1231,1,1,5,1,1,,,,,
1.94,,,,,,,,,k,purple,5c276057336b1500015078e9,2021-09-27_17h19.49.884,forced_choiceRT_color,2021.2.3,Linux x86_64,60.0132029,,,,,,,,9,Ontime,short,k,1,2.0347,1,2,6,3,1,,,,,
1.09,,,,,,,,,k,purple,5c276057336b1500015078e9,2021-09-27_17h19.49.884,forced_choiceRT_color,2021.2.3,Linux x86_64,60.0132029,,,,,,,,9,Ontime,short,k,1,2.0102,1,3,7,3,1,,,,,
1.74,,,,,,,,,k,purple,5c276057336b1500015078e9,2021-09-27_17h19.49.884,forced_choiceRT_color,2021.2.3,Linux x86_64,60.0132029,,,,,,,,9,Ontime,short,d,0,2.0156,2,0,8,3,1,,,,,
0.73,,,,,,,,,k,purple,5c276057336b1500015078e9,2021-09-27_17h19.49.884,forced_choiceRT_color,2021.2.3,Linux x86_64,60.0132029,,,,,,,,9,Fast,short,k,1,1.7637,2,1,9,3,1,,,,,
1,,,,,,,,,d,orange,5c276057336b1500015078e9,2021-09-27_17h19.49.884,forced_choiceRT_color,2021.2.3,Linux x86_64,60.0132029,,,,,,,,9,Ontime,short,d,1,1.9128,2,2,10,0,1,,,,,
0.89,,,,,,,,,f,blue,5c276057336b1500015078e9,2021-09-27_17h19.49.884,forced_choiceRT_color,2021.2.3,Linux x86_64,60.0132029,,,,,,,,9,Ontime,short,f,1,2.0443,2,3,11,1,1,,,,,
1.9,,,,,,,,,d,orange,5c276057336b1500015078e9,2021-09-27_17h19.49.884,forced_choiceRT_color,2021.2.3,Linux x86_64,60.0132029,,,,,,,,9,Slow,short,j,0,2.1296,3,0,12,0,1,,,,,
0.08,,,,,,,,,d,orange,5c276057336b1500015078e9,2021-09-27_17h19.49.884,forced_choiceRT_color,2021.2.3,Linux x86_64,60.0132029,,,,,,,,9,Ontime,short,d,1,1.966,3,1,13,0,1,,,,,
1.15,,,,,,,,,d,orange,5c276057336b1500015078e9,2021-09-27_17h19.49.884,forced_choiceRT_color,2021.2.3,Linux x86_64,60.0132029,,,,,,,,9,Ontime,short,d,1,1.911,3,2,14,0,1,,,,,
1.01,,,,,,,,,f,blue,5c276057336b1500015078e9,2021-09-27_17h19.49.884,forced_choiceRT_color,2021.2.3,Linux x86_64,60.0132029,,,,,,,,9,Ontime,short,f,1,2.035,3,3,15,1,1,,,,,
1.36,,,,,,,,,d,orange,5c276057336b1500015078e9,2021-09-27_17h19.49.884,forced_choiceRT_color,2021.2.3,Linux x86_64,60.0132029,,,,,,,,9,Fast,short,f,0,1.8175,4,0,16,0,1,,,,,
0.4,,,,,,,,,j,red,5c276057336b1500015078e9,2021-09-27_17h19.49.884,forced_choiceRT_color,2021.2.3,Linux x86_64,60.0132029,,,,,,,,9,Ontime,short,j,1,1.9829,4,1,17,2,1,,,,,
1.95,,,,,,,,,f,blue,5c276057336b1500015078e9,2021-09-27_17h19.49.884,forced_choiceRT_color,2021.2.3,Linux x86_64,60.0132029,,,,,,,,9,Slow,short,j,0,2.164,4,2,18,1,1,,,,,
1.59,,,,,,,,,f,blue,5c276057336b1500015078e9,2021-09-27_17h19.49.884,forced_choiceRT_color,2021.2.3,Linux x86_64,60.0132029,,,,,,,,9,Ontime,short,f,1,2.0887,4,3,19,1,1,,,,,
1.5,,,,,,,,,f,blue,5c276057336b1500015078e9,2021-09-27_17h19.49.884,forced_choiceRT_color,2021.2.3,Linux x86_64,60.0132029,,,,,,,,9,Ontime,short,f,1,1.9777,5,0,20,1,1,,,,,
0.62,,,,,,,,,j,red,5c276057336b1500015078e9,2021-09-27_17h19.49.884,forced_choiceRT_color,2021.2.3,Linux x86_64,60.0132029,,,,,,,,9,Fast,short,j,1,1.7897,5,1,21,2,1,,,,,
1.02,,,,,,,,,d,orange,5c276057336b1500015078e9,2021-09-27_17h19.49.884,forced_choiceRT_color,2021.2.3,Linux x86_64,60.0132029,,,,,,,,9,Fast,short,d,1,1.8506,5,2,22,0,1,,,,,
1.92,,,,,,,,,k,purple,5c276057336b1500015078e9,2021-09-27_17h19.49.884,forced_choiceRT_color,2021.2.3,Linux x86_64,60.0132029,,,,,,,,9,Ontime,short,k,1,2.0344,5,3,23,3,1,,,,,
0.54,,,,,,,,,k,purple,5c276057336b1500015078e9,2021-09-27_17h19.49.884,forced_choiceRT_color,2021.2.3,Linux x86_64,60.0132029,,,,,,,,9,Ontime,short,k,1,1.983,6,0,24,3,1,,,,,
0.91,,,,,,,,,d,orange,5c276057336b1500015078e9,2021-09-27_17h19.49.884,forced_choiceRT_color,2021.2.3,Linux x86_64,60.0132029,,,,,,,,9,Ontime,short,d,1,1.9991,6,1,25,0,1,,,,,
0.31,,,,,,,,,k,purple,5c276057336b1500015078e9,2021-09-27_17h19.49.884,forced_choiceRT_color,2021.2.3,Linux x86_64,60.0132029,,,,,,,,9,Ontime,short,k,1,1.9126,6,2,26,3,1,,,,,
1.86,,,,,,,,,j,red,5c276057336b1500015078e9,2021-09-27_17h19.49.884,forced_choiceRT_color,2021.2.3,Linux x86_64,60.0132029,,,,,,,,9,Ontime,short,j,1,2.0358,6,3,27,2,1,,,,,
0.31,,,,,,,,,j,red,5c276057336b1500015078e9,2021-09-27_17h19.49.884,forced_choiceRT_color,2021.2.3,Linux x86_64,60.0132029,,,,,,,,9,Fast,short,j,1,1.8532,7,0,28,2,1,,,,,
0.04,,,,,,,,,d,orange,5c276057336b1500015078e9,2021-09-27_17h19.49.884,forced_choiceRT_color,2021.2.3,Linux x86_64,60.0132029,,,,,,,,9,Ontime,short,d,1,2.007,7,1,29,0,1,,,,,
1.91,,,,,,,,,j,red,5c276057336b1500015078e9,2021-09-27_17h19.49.884,forced_choiceRT_color,2021.2.3,Linux x86_64,60.0132029,,,,,,,,9,Slow,short,f,0,2.1001,7,2,30,2,1,,,,,
1.62,,,,,,,,,j,red,5c276057336b1500015078e9,2021-09-27_17h19.49.884,forced_choiceRT_color,2021.2.3,Linux x86_64,60.0132029,,,,,,,,9,Ontime,short,j,1,1.9387,7,3,31,2,1,,,,,
1.38,,,,,,,,,f,blue,5c276057336b1500015078e9,2021-09-27_17h19.49.884,forced_choiceRT_color,2021.2.3,Linux x86_64,60.0132029,,,,,,,,9,Ontime,short,d,0,2.0954,8,0,32,1,1,,,,,
1.71,,,,,,,,,k,purple,5c276057336b1500015078e9,2021-09-27_17h19.49.884,forced_choiceRT_color,2021.2.3,Linux x86_64,60.0132029,,,,,,,,9,Ontime,short,k,1,2.0359,8,1,33,3,1,,,,,
1.11,,,,,,,,,f,blue,5c276057336b1500015078e9,2021-09-27_17h19.49.884,forced_choiceRT_color,2021.2.3,Linux x86_64,60.0132029,,,,,,,,9,Fast,short,j,0,1.8658,8,2,34,1,1,,,,,
1.21,,,,,,,,,j,red,5c276057336b1500015078e9,2021-09-27_17h19.49.884,forced_choiceRT_color,2021.2.3,Linux x86_64,60.0132029,,,,,,,,9,Ontime,short,j,1,2.0117,8,3,35,2,1,,,,,
0.84,,,,,,,,,j,red,5c276057336b1500015078e9,2021-09-27_17h19.49.884,forced_choiceRT_color,2021.2.3,Linux x86_64,60.0132029,,,,,,,,9,Ontime,short,j,1,2.0186,9,0,36,2,1,,,,,
0.76,,,,,,,,,k,purple,5c276057336b1500015078e9,2021-09-27_17h19.49.884,forced_choiceRT_color,2021.2.3,Linux x86_64,60.0132029,,,,,,,,9,Ontime,short,k,1,2.0445,9,1,37,3,1,,,,,
0.17,,,,,,,,,f,blue,5c276057336b1500015078e9,2021-09-27_17h19.49.884,forced_choiceRT_color,2021.2.3,Linux x86_64,60.0132029,,,,,,,,9,Ontime,short,f,1,2.0423,9,2,38,1,1,,,,,
1.87,,,,,,,,,d,orange,5c276057336b1500015078e9,2021-09-27_17h19.49.884,forced_choiceRT_color,2021.2.3,Linux x86_64,60.0132029,,,,,,,,9,Ontime,short,j,0,2.034,9,3,39,0,1,,,,,
,,,,,,,,,,,5c276057336b1500015078e9,2021-09-27_17h19.49.884,forced_choiceRT_color,2021.2.3,Linux x86_64,60.0132029,,,,,,,,,,,,,,,,,,,8,0,8,0,1
0.52,,,,,,,,,k,purple,5c276057336b1500015078e9,2021-09-27_17h19.49.884,forced_choiceRT_color,2021.2.3,Linux x86_64,60.0132029,,,,,,,,10,Ontime,short,k,1,1.9551,0,0,0,3,1,,,,,
0.48,,,,,,,,,j,red,5c276057336b1500015078e9,2021-09-27_17h19.49.884,forced_choiceRT_color,2021.2.3,Linux x86_64,60.0132029,,,,,,,,10,Ontime,short,j,1,1.9511,0,1,1,2,1,,,,,
0.04,,,,,,,,,d,orange,5c276057336b1500015078e9,2021-09-27_17h19.49.884,forced_choiceRT_color,2021.2.3,Linux x86_64,60.0132029,,,,,,,,10,Ontime,short,d,1,1.9445,0,2,2,0,1,,,,,
1.85,,,,,,,,,j,red,5c276057336b1500015078e9,2021-09-27_17h19.49.884,forced_choiceRT_color,2021.2.3,Linux x86_64,60.0132029,,,,,,,,10,Ontime,short,f,0,1.9659,0,3,3,2,1,,,,,
1.2,,,,,,,,,j,red,5c276057336b1500015078e9,2021-09-27_17h19.49.884,forced_choiceRT_color,2021.2.3,Linux x86_64,60.0132029,,,,,,,,10,Fast,short,j,1,1.8517,1,0,4,2,1,,,,,
0.8,,,,,,,,,f,blue,5c276057336b1500015078e9,2021-09-27_17h19.49.884,forced_choiceRT_color,2021.2.3,Linux x86_64,60.0132029,,,,,,,,10,Ontime,short,f,1,2.0371,1,1,5,1,1,,,,,
1.99,,,,,,,,,k,purple,5c276057336b1500015078e9,2021-09-27_17h19.49.884,forced_choiceRT_color,2021.2.3,Linux x86_64,60.0132029,,,,,,,,10,Ontime,short,j,0,2.0863,1,2,6,3,1,,,,,
0.72,,,,,,,,,d,orange,5c276057336b1500015078e9,2021-09-27_17h19.49.884,forced_choiceRT_color,2021.2.3,Linux x86_64,60.0132029,,,,,,,,10,Ontime,short,d,1,2.0464,1,3,7,0,1,,,,,
0.35,,,,,,,,,d,orange,5c276057336b1500015078e9,2021-09-27_17h19.49.884,forced_choiceRT_color,2021.2.3,Linux x86_64,60.0132029,,,,,,,,10,Ontime,short,d,1,1.9858,2,0,8,0,1,,,,,
0.61,,,,,,,,,f,blue,5c276057336b1500015078e9,2021-09-27_17h19.49.884,forced_choiceRT_color,2021.2.3,Linux x86_64,60.0132029,,,,,,,,10,Ontime,short,f,1,1.9274,2,1,9,1,1,,,,,
0.42,,,,,,,,,d,orange,5c276057336b1500015078e9,2021-09-27_17h19.49.884,forced_choiceRT_color,2021.2.3,Linux x86_64,60.0132029,,,,,,,,10,Ontime,short,d,1,1.982,2,2,10,0,1,,,,,
0.46,,,,,,,,,k,purple,5c276057336b1500015078e9,2021-09-27_17h19.49.884,forced_choiceRT_color,2021.2.3,Linux x86_64,60.0132029,,,,,,,,10,Ontime,short,k,1,1.9856,2,3,11,3,1,,,,,
1.57,,,,,,,,,f,blue,5c276057336b1500015078e9,2021-09-27_17h19.49.884,forced_choiceRT_color,2021.2.3,Linux x86_64,60.0132029,,,,,,,,10,Ontime,short,j,0,2.0687,3,0,12,1,1,,,,,
1.81,,,,,,,,,j,red,5c276057336b1500015078e9,2021-09-27_17h19.49.884,forced_choiceRT_color,2021.2.3,Linux x86_64,60.0132029,,,,,,,,10,Ontime,short,f,0,2.0698,3,1,13,2,1,,,,,
0.37,,,,,,,,,d,orange,5c276057336b1500015078e9,2021-09-27_17h19.49.884,forced_choiceRT_color,2021.2.3,Linux x86_64,60.0132029,,,,,,,,10,Ontime,short,d,1,2.0307,3,2,14,0,1,,,,,
1.91,,,,,,,,,d,orange,5c276057336b1500015078e9,2021-09-27_17h19.49.884,forced_choiceRT_color,2021.2.3,Linux x86_64,60.0132029,,,,,,,,10,Ontime,short,f,0,2.0129,3,3,15,0,1,,,,,
1.92,,,,,,,,,f,blue,5c276057336b1500015078e9,2021-09-27_17h19.49.884,forced_choiceRT_color,2021.2.3,Linux x86_64,60.0132029,,,,,,,,10,Slow,short,d,0,2.2003,4,0,16,1,1,,,,,
0.6,,,,,,,,,k,purple,5c276057336b1500015078e9,2021-09-27_17h19.49.884,forced_choiceRT_color,2021.2.3,Linux x86_64,60.0132029,,,,,,,,10,Ontime,short,k,1,1.9145,4,1,17,3,1,,,,,
1.07,,,,,,,,,k,purple,5c276057336b1500015078e9,2021-09-27_17h19.49.884,forced_choiceRT_color,2021.2.3,Linux x86_64,60.0132029,,,,,,,,10,Ontime,short,k,1,1.9629,4,2,18,3,1,,,,,
1.98,,,,,,,,,k,purple,5c276057336b1500015078e9,2021-09-27_17h19.49.884,forced_choiceRT_color,2021.2.3,Linux x86_64,60.0132029,,,,,,,,10,Ontime,short,j,0,1.9256,4,3,19,3,1,,,,,
0.93,,,,,,,,,j,red,5c276057336b1500015078e9,2021-09-27_17h19.49.884,forced_choiceRT_color,2021.2.3,Linux x86_64,60.0132029,,,,,,,,10,Fast,short,j,1,1.8765,5,0,20,2,1,,,,,
0.39,,,,,,,,,j,red,5c276057336b1500015078e9,2021-09-27_17h19.49.884,forced_choiceRT_color,2021.2.3,Linux x86_64,60.0132029,,,,,,,,10,Fast,short,j,1,1.6997,5,1,21,2,1,,,,,
0.09,,,,,,,,,f,blue,5c276057336b1500015078e9,2021-09-27_17h19.49.884,forced_choiceRT_color,2021.2.3,Linux x86_64,60.0132029,,,,,,,,10,Ontime,short,f,1,2.028,5,2,22,1,1,,,,,
1.25,,,,,,,,,f,blue,5c276057336b1500015078e9,2021-09-27_17h19.49.884,forced_choiceRT_color,2021.2.3,Linux x86_64,60.0132029,,,,,,,,10,Ontime,short,f,1,1.9601,5,3,23,1,1,,,,,
1.92,,,,,,,,,k,purple,5c276057336b1500015078e9,2021-09-27_17h19.49.884,forced_choiceRT_color,2021.2.3,Linux x86_64,60.0132029,,,,,,,,10,Ontime,short,j,0,2.0999,6,0,24,3,1,,,,,
0.25,,,,,,,,,j,red,5c276057336b1500015078e9,2021-09-27_17h19.49.884,forced_choiceRT_color,2021.2.3,Linux x86_64,60.0132029,,,,,,,,10,Fast,short,j,1,1.8704,6,1,25,2,1,,,,,
1.49,,,,,,,,,d,orange,5c276057336b1500015078e9,2021-09-27_17h19.49.884,forced_choiceRT_color,2021.2.3,Linux x86_64,60.0132029,,,,,,,,10,Ontime,short,d,1,2.0918,6,2,26,0,1,,,,,
1.41,,,,,,,,,f,blue,5c276057336b1500015078e9,2021-09-27_17h19.49.884,forced_choiceRT_color,2021.2.3,Linux x86_64,60.0132029,,,,,,,,10,Ontime,short,j,0,1.9801,6,3,27,1,1,,,,,
0.45,,,,,,,,,j,red,5c276057336b1500015078e9,2021-09-27_17h19.49.884,forced_choiceRT_color,2021.2.3,Linux x86_64,60.0132029,,,,,,,,10,Fast,short,j,1,1.7585,7,0,28,2,1,,,,,
0.12,,,,,,,,,j,red,5c276057336b1500015078e9,2021-09-27_17h19.49.884,forced_choiceRT_color,2021.2.3,Linux x86_64,60.0132029,,,,,,,,10,Slow,short,j,1,2.1278,7,1,29,2,1,,,,,
1.91,,,,,,,,,k,purple,5c276057336b1500015078e9,2021-09-27_17h19.49.884,forced_choiceRT_color,2021.2.3,Linux x86_64,60.0132029,,,,,,,,10,Slow,short,k,1,2.1498,7,2,30,3,1,,,,,
0.34,,,,,,,,,j,red,5c276057336b1500015078e9,2021-09-27_17h19.49.884,forced_choiceRT_color,2021.2.3,Linux x86_64,60.0132029,,,,,,,,10,Ontime,short,f,0,2.0401,7,3,31,2,1,,,,,
0,,,,,,,,,d,orange,5c276057336b1500015078e9,2021-09-27_17h19.49.884,forced_choiceRT_color,2021.2.3,Linux x86_64,60.0132029,,,,,,,,10,Ontime,short,d,1,1.9848,8,0,32,0,1,,,,,
1.97,,,,,,,,,k,purple,5c276057336b1500015078e9,2021-09-27_17h19.49.884,forced_choiceRT_color,2021.2.3,Linux x86_64,60.0132029,,,,,,,,10,Ontime,short,j,0,2.0244,8,1,33,3,1,,,,,
0.51,,,,,,,,,f,blue,5c276057336b1500015078e9,2021-09-27_17h19.49.884,forced_choiceRT_color,2021.2.3,Linux x86_64,60.0132029,,,,,,,,10,Ontime,short,f,1,1.9494,8,2,34,1,1,,,,,
0.5,,,,,,,,,k,purple,5c276057336b1500015078e9,2021-09-27_17h19.49.884,forced_choiceRT_color,2021.2.3,Linux x86_64,60.0132029,,,,,,,,10,Fast,short,k,1,1.8093,8,3,35,3,1,,,,,
0.57,,,,,,,,,d,orange,5c276057336b1500015078e9,2021-09-27_17h19.49.884,forced_choiceRT_color,2021.2.3,Linux x86_64,60.0132029,,,,,,,,10,Ontime,short,d,1,2.0352,9,0,36,0,1,,,,,
0.23,,,,,,,,,d,orange,5c276057336b1500015078e9,2021-09-27_17h19.49.884,forced_choiceRT_color,2021.2.3,Linux x86_64,60.0132029,,,,,,,,10,Ontime,short,d,1,1.9726,9,1,37,0,1,,,,,
1.41,,,,,,,,,f,blue,5c276057336b1500015078e9,2021-09-27_17h19.49.884,forced_choiceRT_color,2021.2.3,Linux x86_64,60.0132029,,,,,,,,10,Ontime,short,j,0,2.011,9,2,38,1,1,,,,,
1.2,,,,,,,,,f,blue,5c276057336b1500015078e9,2021-09-27_17h19.49.884,forced_choiceRT_color,2021.2.3,Linux x86_64,60.0132029,,,,,,,,10,Fast,short,f,1,0.0875,9,3,39,1,1,,,,,
,,,,,,,,,,,5c276057336b1500015078e9,2021-09-27_17h19.49.884,forced_choiceRT_color,2021.2.3,Linux x86_64,60.0132029,,,,,,,,,,,,,,,,,,,9,0,9,0,1
