IP_Addresss,target_onset,trial_resp_sp.keys,trial_resp_sp.corr,trial_resp_sp.rt,trials_train_loop.thisRepN,trials_train_loop.thisTrialN,trials_train_loop.thisN,trials_train_loop.thisIndex,trials_train_loop.ran,correct_key,color,participant,date,expName,psychopyVersion,OS,frameRate,trial_resp_timing.keys,trial_resp_timing.rt,trials_train_timing.thisRepN,trials_train_timing.thisTrialN,trials_train_timing.thisN,trials_train_timing.thisIndex,trials_train_timing.ran,block_id,ontime,feedback_cond,forcedRT_resp.keys,forcedRT_resp.corr,forcedRT_resp.rt,trials.thisRepN,trials.thisTrialN,trials.thisN,trials.thisIndex,trials.ran,blocks.thisRepN,blocks.thisTrialN,blocks.thisN,blocks.thisIndex,blocks.ran
174.92.127.87,0,k,1,2.3134,0,0,0,3,1,k,purple,5c5a5234819b0c0001704f23,2021-09-27_12h17.45.561,forced_choiceRT_color,2021.2.3,MacIntel,59.95203837,,,,,,,,,,,,,,,,,,,,,,,
,0,f,1,3.3508,0,1,1,1,1,f,blue,5c5a5234819b0c0001704f23,2021-09-27_12h17.45.561,forced_choiceRT_color,2021.2.3,MacIntel,59.95203837,,,,,,,,,,,,,,,,,,,,,,,
,0,d,1,1.9333,0,2,2,0,1,d,orange,5c5a5234819b0c0001704f23,2021-09-27_12h17.45.561,forced_choiceRT_color,2021.2.3,MacIntel,59.95203837,,,,,,,,,,,,,,,,,,,,,,,
,0,f,1,6.3247,0,3,3,1,1,f,blue,5c5a5234819b0c0001704f23,2021-09-27_12h17.45.561,forced_choiceRT_color,2021.2.3,MacIntel,59.95203837,,,,,,,,,,,,,,,,,,,,,,,
,0,d,1,1.1897,1,0,4,0,1,d,orange,5c5a5234819b0c0001704f23,2021-09-27_12h17.45.561,forced_choiceRT_color,2021.2.3,MacIntel,59.95203837,,,,,,,,,,,,,,,,,,,,,,,
,0,f,1,1.1526,1,1,5,1,1,f,blue,5c5a5234819b0c0001704f23,2021-09-27_12h17.45.561,forced_choiceRT_color,2021.2.3,MacIntel,59.95203837,,,,,,,,,,,,,,,,,,,,,,,
,0,j,1,1.2396,1,2,6,2,1,j,red,5c5a5234819b0c0001704f23,2021-09-27_12h17.45.561,forced_choiceRT_color,2021.2.3,MacIntel,59.95203837,,,,,,,,,,,,,,,,,,,,,,,
,0,j,1,1.0438,1,3,7,2,1,j,red,5c5a5234819b0c0001704f23,2021-09-27_12h17.45.561,forced_choiceRT_color,2021.2.3,MacIntel,59.95203837,,,,,,,,,,,,,,,,,,,,,,,
,0,k,1,0.7561,2,0,8,3,1,k,purple,5c5a5234819b0c0001704f23,2021-09-27_12h17.45.561,forced_choiceRT_color,2021.2.3,MacIntel,59.95203837,,,,,,,,,,,,,,,,,,,,,,,
,0,j,1,0.6082,2,1,9,2,1,j,red,5c5a5234819b0c0001704f23,2021-09-27_12h17.45.561,forced_choiceRT_color,2021.2.3,MacIntel,59.95203837,,,,,,,,,,,,,,,,,,,,,,,
,0,f,1,0.999,2,2,10,1,1,f,blue,5c5a5234819b0c0001704f23,2021-09-27_12h17.45.561,forced_choiceRT_color,2021.2.3,MacIntel,59.95203837,,,,,,,,,,,,,,,,,,,,,,,
,0,f,1,1.1234,2,3,11,1,1,f,blue,5c5a5234819b0c0001704f23,2021-09-27_12h17.45.561,forced_choiceRT_color,2021.2.3,MacIntel,59.95203837,,,,,,,,,,,,,,,,,,,,,,,
,0,j,1,1.1808,3,0,12,2,1,j,red,5c5a5234819b0c0001704f23,2021-09-27_12h17.45.561,forced_choiceRT_color,2021.2.3,MacIntel,59.95203837,,,,,,,,,,,,,,,,,,,,,,,
,0,f,1,1.067,3,1,13,1,1,f,blue,5c5a5234819b0c0001704f23,2021-09-27_12h17.45.561,forced_choiceRT_color,2021.2.3,MacIntel,59.95203837,,,,,,,,,,,,,,,,,,,,,,,
,0,d,1,1.1031,3,2,14,0,1,d,orange,5c5a5234819b0c0001704f23,2021-09-27_12h17.45.561,forced_choiceRT_color,2021.2.3,MacIntel,59.95203837,,,,,,,,,,,,,,,,,,,,,,,
,0,f,1,0.9914,3,3,15,1,1,f,blue,5c5a5234819b0c0001704f23,2021-09-27_12h17.45.561,forced_choiceRT_color,2021.2.3,MacIntel,59.95203837,,,,,,,,,,,,,,,,,,,,,,,
,0,d,1,0.5907,4,0,16,0,1,d,orange,5c5a5234819b0c0001704f23,2021-09-27_12h17.45.561,forced_choiceRT_color,2021.2.3,MacIntel,59.95203837,,,,,,,,,,,,,,,,,,,,,,,
,0,k,1,0.9564,4,1,17,3,1,k,purple,5c5a5234819b0c0001704f23,2021-09-27_12h17.45.561,forced_choiceRT_color,2021.2.3,MacIntel,59.95203837,,,,,,,,,,,,,,,,,,,,,,,
,0,k,1,0.7271,4,2,18,3,1,k,purple,5c5a5234819b0c0001704f23,2021-09-27_12h17.45.561,forced_choiceRT_color,2021.2.3,MacIntel,59.95203837,,,,,,,,,,,,,,,,,,,,,,,
,0,j,1,1.0679,4,3,19,2,1,j,red,5c5a5234819b0c0001704f23,2021-09-27_12h17.45.561,forced_choiceRT_color,2021.2.3,MacIntel,59.95203837,,,,,,,,,,,,,,,,,,,,,,,
,0,j,1,0.7633,5,0,20,2,1,j,red,5c5a5234819b0c0001704f23,2021-09-27_12h17.45.561,forced_choiceRT_color,2021.2.3,MacIntel,59.95203837,,,,,,,,,,,,,,,,,,,,,,,
,0,j,1,0.4221,5,1,21,2,1,j,red,5c5a5234819b0c0001704f23,2021-09-27_12h17.45.561,forced_choiceRT_color,2021.2.3,MacIntel,59.95203837,,,,,,,,,,,,,,,,,,,,,,,
,0,j,1,0.4065,5,2,22,2,1,j,red,5c5a5234819b0c0001704f23,2021-09-27_12h17.45.561,forced_choiceRT_color,2021.2.3,MacIntel,59.95203837,,,,,,,,,,,,,,,,,,,,,,,
,0,k,1,0.7515,5,3,23,3,1,k,purple,5c5a5234819b0c0001704f23,2021-09-27_12h17.45.561,forced_choiceRT_color,2021.2.3,MacIntel,59.95203837,,,,,,,,,,,,,,,,,,,,,,,
,0,j,1,0.6732,6,0,24,2,1,j,red,5c5a5234819b0c0001704f23,2021-09-27_12h17.45.561,forced_choiceRT_color,2021.2.3,MacIntel,59.95203837,,,,,,,,,,,,,,,,,,,,,,,
,0,d,1,1.1571,6,1,25,0,1,d,orange,5c5a5234819b0c0001704f23,2021-09-27_12h17.45.561,forced_choiceRT_color,2021.2.3,MacIntel,59.95203837,,,,,,,,,,,,,,,,,,,,,,,
,0,f,1,0.5911,6,2,26,1,1,f,blue,5c5a5234819b0c0001704f23,2021-09-27_12h17.45.561,forced_choiceRT_color,2021.2.3,MacIntel,59.95203837,,,,,,,,,,,,,,,,,,,,,,,
,0,f,1,0.6189,6,3,27,1,1,f,blue,5c5a5234819b0c0001704f23,2021-09-27_12h17.45.561,forced_choiceRT_color,2021.2.3,MacIntel,59.95203837,,,,,,,,,,,,,,,,,,,,,,,
,0,j,1,1.0753,7,0,28,2,1,j,red,5c5a5234819b0c0001704f23,2021-09-27_12h17.45.561,forced_choiceRT_color,2021.2.3,MacIntel,59.95203837,,,,,,,,,,,,,,,,,,,,,,,
,0,f,1,1.7234,7,1,29,1,1,f,blue,5c5a5234819b0c0001704f23,2021-09-27_12h17.45.561,forced_choiceRT_color,2021.2.3,MacIntel,59.95203837,,,,,,,,,,,,,,,,,,,,,,,
,0,k,1,1.1718,7,2,30,3,1,k,purple,5c5a5234819b0c0001704f23,2021-09-27_12h17.45.561,forced_choiceRT_color,2021.2.3,MacIntel,59.95203837,,,,,,,,,,,,,,,,,,,,,,,
,0,f,1,1.1556,7,3,31,1,1,f,blue,5c5a5234819b0c0001704f23,2021-09-27_12h17.45.561,forced_choiceRT_color,2021.2.3,MacIntel,59.95203837,,,,,,,,,,,,,,,,,,,,,,,
,0,d,1,1.7372,8,0,32,0,1,d,orange,5c5a5234819b0c0001704f23,2021-09-27_12h17.45.561,forced_choiceRT_color,2021.2.3,MacIntel,59.95203837,,,,,,,,,,,,,,,,,,,,,,,
,0,d,1,0.6557,8,1,33,0,1,d,orange,5c5a5234819b0c0001704f23,2021-09-27_12h17.45.561,forced_choiceRT_color,2021.2.3,MacIntel,59.95203837,,,,,,,,,,,,,,,,,,,,,,,
,0,d,1,0.6102,8,2,34,0,1,d,orange,5c5a5234819b0c0001704f23,2021-09-27_12h17.45.561,forced_choiceRT_color,2021.2.3,MacIntel,59.95203837,,,,,,,,,,,,,,,,,,,,,,,
,0,d,1,0.5279,8,3,35,0,1,d,orange,5c5a5234819b0c0001704f23,2021-09-27_12h17.45.561,forced_choiceRT_color,2021.2.3,MacIntel,59.95203837,,,,,,,,,,,,,,,,,,,,,,,
,0,k,1,1.2711,9,0,36,3,1,k,purple,5c5a5234819b0c0001704f23,2021-09-27_12h17.45.561,forced_choiceRT_color,2021.2.3,MacIntel,59.95203837,,,,,,,,,,,,,,,,,,,,,,,
,0,f,1,2.0283,9,1,37,1,1,f,blue,5c5a5234819b0c0001704f23,2021-09-27_12h17.45.561,forced_choiceRT_color,2021.2.3,MacIntel,59.95203837,,,,,,,,,,,,,,,,,,,,,,,
,0,f,1,1.1132,9,2,38,1,1,f,blue,5c5a5234819b0c0001704f23,2021-09-27_12h17.45.561,forced_choiceRT_color,2021.2.3,MacIntel,59.95203837,,,,,,,,,,,,,,,,,,,,,,,
,0,d,1,1.2529,9,3,39,0,1,d,orange,5c5a5234819b0c0001704f23,2021-09-27_12h17.45.561,forced_choiceRT_color,2021.2.3,MacIntel,59.95203837,,,,,,,,,,,,,,,,,,,,,,,
,0,d,1,0.7879,10,0,40,0,1,d,orange,5c5a5234819b0c0001704f23,2021-09-27_12h17.45.561,forced_choiceRT_color,2021.2.3,MacIntel,59.95203837,,,,,,,,,,,,,,,,,,,,,,,
,0,k,1,1.1033,10,1,41,3,1,k,purple,5c5a5234819b0c0001704f23,2021-09-27_12h17.45.561,forced_choiceRT_color,2021.2.3,MacIntel,59.95203837,,,,,,,,,,,,,,,,,,,,,,,
,0,j,1,0.9258,10,2,42,2,1,j,red,5c5a5234819b0c0001704f23,2021-09-27_12h17.45.561,forced_choiceRT_color,2021.2.3,MacIntel,59.95203837,,,,,,,,,,,,,,,,,,,,,,,
,0,d,1,1.4524,10,3,43,0,1,d,orange,5c5a5234819b0c0001704f23,2021-09-27_12h17.45.561,forced_choiceRT_color,2021.2.3,MacIntel,59.95203837,,,,,,,,,,,,,,,,,,,,,,,
,0,d,1,1.7107,11,0,44,0,1,d,orange,5c5a5234819b0c0001704f23,2021-09-27_12h17.45.561,forced_choiceRT_color,2021.2.3,MacIntel,59.95203837,,,,,,,,,,,,,,,,,,,,,,,
,0,d,1,0.4594,11,1,45,0,1,d,orange,5c5a5234819b0c0001704f23,2021-09-27_12h17.45.561,forced_choiceRT_color,2021.2.3,MacIntel,59.95203837,,,,,,,,,,,,,,,,,,,,,,,
,0,k,1,1.2027,11,2,46,3,1,k,purple,5c5a5234819b0c0001704f23,2021-09-27_12h17.45.561,forced_choiceRT_color,2021.2.3,MacIntel,59.95203837,,,,,,,,,,,,,,,,,,,,,,,
,0,k,1,0.9221,11,3,47,3,1,k,purple,5c5a5234819b0c0001704f23,2021-09-27_12h17.45.561,forced_choiceRT_color,2021.2.3,MacIntel,59.95203837,,,,,,,,,,,,,,,,,,,,,,,
,0,k,1,0.4799,12,0,48,3,1,k,purple,5c5a5234819b0c0001704f23,2021-09-27_12h17.45.561,forced_choiceRT_color,2021.2.3,MacIntel,59.95203837,,,,,,,,,,,,,,,,,,,,,,,
,0,f,1,1.3172,12,1,49,1,1,f,blue,5c5a5234819b0c0001704f23,2021-09-27_12h17.45.561,forced_choiceRT_color,2021.2.3,MacIntel,59.95203837,,,,,,,,,,,,,,,,,,,,,,,
,0,j,1,1.0551,12,2,50,2,1,j,red,5c5a5234819b0c0001704f23,2021-09-27_12h17.45.561,forced_choiceRT_color,2021.2.3,MacIntel,59.95203837,,,,,,,,,,,,,,,,,,,,,,,
,0,k,1,0.905,12,3,51,3,1,k,purple,5c5a5234819b0c0001704f23,2021-09-27_12h17.45.561,forced_choiceRT_color,2021.2.3,MacIntel,59.95203837,,,,,,,,,,,,,,,,,,,,,,,
,0,k,1,0.7285,13,0,52,3,1,k,purple,5c5a5234819b0c0001704f23,2021-09-27_12h17.45.561,forced_choiceRT_color,2021.2.3,MacIntel,59.95203837,,,,,,,,,,,,,,,,,,,,,,,
,0,f,1,3.2525,13,1,53,1,1,f,blue,5c5a5234819b0c0001704f23,2021-09-27_12h17.45.561,forced_choiceRT_color,2021.2.3,MacIntel,59.95203837,,,,,,,,,,,,,,,,,,,,,,,
,0,k,1,1.0768,13,2,54,3,1,k,purple,5c5a5234819b0c0001704f23,2021-09-27_12h17.45.561,forced_choiceRT_color,2021.2.3,MacIntel,59.95203837,,,,,,,,,,,,,,,,,,,,,,,
,0,j,1,0.8426,13,3,55,2,1,j,red,5c5a5234819b0c0001704f23,2021-09-27_12h17.45.561,forced_choiceRT_color,2021.2.3,MacIntel,59.95203837,,,,,,,,,,,,,,,,,,,,,,,
,0,d,1,1.5187,14,0,56,0,1,d,orange,5c5a5234819b0c0001704f23,2021-09-27_12h17.45.561,forced_choiceRT_color,2021.2.3,MacIntel,59.95203837,,,,,,,,,,,,,,,,,,,,,,,
,0,j,1,1.1227,14,1,57,2,1,j,red,5c5a5234819b0c0001704f23,2021-09-27_12h17.45.561,forced_choiceRT_color,2021.2.3,MacIntel,59.95203837,,,,,,,,,,,,,,,,,,,,,,,
,0,j,1,0.7278,14,2,58,2,1,j,red,5c5a5234819b0c0001704f23,2021-09-27_12h17.45.561,forced_choiceRT_color,2021.2.3,MacIntel,59.95203837,,,,,,,,,,,,,,,,,,,,,,,
,0,k,1,0.596,14,3,59,3,1,k,purple,5c5a5234819b0c0001704f23,2021-09-27_12h17.45.561,forced_choiceRT_color,2021.2.3,MacIntel,59.95203837,,,,,,,,,,,,,,,,,,,,,,,
,,,,,,,,,,,,5c5a5234819b0c0001704f23,2021-09-27_12h17.45.561,forced_choiceRT_color,2021.2.3,MacIntel,59.95203837,d,2.2906,0,0,0,0,1,,,,,,,,,,,,,,,,
,,,,,,,,,,,,5c5a5234819b0c0001704f23,2021-09-27_12h17.45.561,forced_choiceRT_color,2021.2.3,MacIntel,59.95203837,d,1.7025,1,0,1,0,1,,,,,,,,,,,,,,,,
,,,,,,,,,,,,5c5a5234819b0c0001704f23,2021-09-27_12h17.45.561,forced_choiceRT_color,2021.2.3,MacIntel,59.95203837,d,2.075,2,0,2,0,1,,,,,,,,,,,,,,,,
,,,,,,,,,,,,5c5a5234819b0c0001704f23,2021-09-27_12h17.45.561,forced_choiceRT_color,2021.2.3,MacIntel,59.95203837,d,2.2287,3,0,3,0,1,,,,,,,,,,,,,,,,
,,,,,,,,,,,,5c5a5234819b0c0001704f23,2021-09-27_12h17.45.561,forced_choiceRT_color,2021.2.3,MacIntel,59.95203837,d,1.7995,4,0,4,0,1,,,,,,,,,,,,,,,,
,,,,,,,,,,,,5c5a5234819b0c0001704f23,2021-09-27_12h17.45.561,forced_choiceRT_color,2021.2.3,MacIntel,59.95203837,d,2.1926,5,0,5,0,1,,,,,,,,,,,,,,,,
,,,,,,,,,,,,5c5a5234819b0c0001704f23,2021-09-27_12h17.45.561,forced_choiceRT_color,2021.2.3,MacIntel,59.95203837,d,1.9852,6,0,6,0,1,,,,,,,,,,,,,,,,
,,,,,,,,,,,,5c5a5234819b0c0001704f23,2021-09-27_12h17.45.561,forced_choiceRT_color,2021.2.3,MacIntel,59.95203837,d,2.0062,7,0,7,0,1,,,,,,,,,,,,,,,,
,,,,,,,,,,,,5c5a5234819b0c0001704f23,2021-09-27_12h17.45.561,forced_choiceRT_color,2021.2.3,MacIntel,59.95203837,d,2.018,8,0,8,0,1,,,,,,,,,,,,,,,,
,,,,,,,,,,,,5c5a5234819b0c0001704f23,2021-09-27_12h17.45.561,forced_choiceRT_color,2021.2.3,MacIntel,59.95203837,d,2.0136,9,0,9,0,1,,,,,,,,,,,,,,,,
,,,,,,,,,,,,5c5a5234819b0c0001704f23,2021-09-27_12h17.45.561,forced_choiceRT_color,2021.2.3,MacIntel,59.95203837,d,1.9896,10,0,10,0,1,,,,,,,,,,,,,,,,
,,,,,,,,,,,,5c5a5234819b0c0001704f23,2021-09-27_12h17.45.561,forced_choiceRT_color,2021.2.3,MacIntel,59.95203837,d,1.8538,11,0,11,0,1,,,,,,,,,,,,,,,,
,,,,,,,,,,,,5c5a5234819b0c0001704f23,2021-09-27_12h17.45.561,forced_choiceRT_color,2021.2.3,MacIntel,59.95203837,d,1.9723,12,0,12,0,1,,,,,,,,,,,,,,,,
,,,,,,,,,,,,5c5a5234819b0c0001704f23,2021-09-27_12h17.45.561,forced_choiceRT_color,2021.2.3,MacIntel,59.95203837,d,1.9344,13,0,13,0,1,,,,,,,,,,,,,,,,
,,,,,,,,,,,,5c5a5234819b0c0001704f23,2021-09-27_12h17.45.561,forced_choiceRT_color,2021.2.3,MacIntel,59.95203837,d,1.9078,14,0,14,0,1,,,,,,,,,,,,,,,,
,,,,,,,,,,,,5c5a5234819b0c0001704f23,2021-09-27_12h17.45.561,forced_choiceRT_color,2021.2.3,MacIntel,59.95203837,d,1.9893,15,0,15,0,1,,,,,,,,,,,,,,,,
,,,,,,,,,,,,5c5a5234819b0c0001704f23,2021-09-27_12h17.45.561,forced_choiceRT_color,2021.2.3,MacIntel,59.95203837,d,1.9052,16,0,16,0,1,,,,,,,,,,,,,,,,
,,,,,,,,,,,,5c5a5234819b0c0001704f23,2021-09-27_12h17.45.561,forced_choiceRT_color,2021.2.3,MacIntel,59.95203837,d,2.0729,17,0,17,0,1,,,,,,,,,,,,,,,,
,,,,,,,,,,,,5c5a5234819b0c0001704f23,2021-09-27_12h17.45.561,forced_choiceRT_color,2021.2.3,MacIntel,59.95203837,f,1.9855,18,0,18,0,1,,,,,,,,,,,,,,,,
,,,,,,,,,,,,5c5a5234819b0c0001704f23,2021-09-27_12h17.45.561,forced_choiceRT_color,2021.2.3,MacIntel,59.95203837,f,2.0244,19,0,19,0,1,,,,,,,,,,,,,,,,
,1.62,,,,,,,,,j,red,5c5a5234819b0c0001704f23,2021-09-27_12h17.45.561,forced_choiceRT_color,2021.2.3,MacIntel,59.95203837,,,,,,,,1,Ontime,short,d,0,2.0747,0,0,0,2,1,,,,,
,1.38,,,,,,,,,d,orange,5c5a5234819b0c0001704f23,2021-09-27_12h17.45.561,forced_choiceRT_color,2021.2.3,MacIntel,59.95203837,,,,,,,,1,Ontime,short,f,0,1.974,0,1,1,0,1,,,,,
,0.43,,,,,,,,,d,orange,5c5a5234819b0c0001704f23,2021-09-27_12h17.45.561,forced_choiceRT_color,2021.2.3,MacIntel,59.95203837,,,,,,,,1,Ontime,short,d,1,1.9857,0,2,2,0,1,,,,,
,1.85,,,,,,,,,k,purple,5c5a5234819b0c0001704f23,2021-09-27_12h17.45.561,forced_choiceRT_color,2021.2.3,MacIntel,59.95203837,,,,,,,,1,Ontime,short,d,0,1.9403,0,3,3,3,1,,,,,
,0.73,,,,,,,,,f,blue,5c5a5234819b0c0001704f23,2021-09-27_12h17.45.561,forced_choiceRT_color,2021.2.3,MacIntel,59.95203837,,,,,,,,1,Slow,short,f,1,2.1284,1,0,4,1,1,,,,,
,1.84,,,,,,,,,j,red,5c5a5234819b0c0001704f23,2021-09-27_12h17.45.561,forced_choiceRT_color,2021.2.3,MacIntel,59.95203837,,,,,,,,1,Ontime,short,f,0,1.9253,1,1,5,2,1,,,,,
,1.2,,,,,,,,,j,red,5c5a5234819b0c0001704f23,2021-09-27_12h17.45.561,forced_choiceRT_color,2021.2.3,MacIntel,59.95203837,,,,,,,,1,Ontime,short,f,0,1.9254,1,2,6,2,1,,,,,
,0.71,,,,,,,,,k,purple,5c5a5234819b0c0001704f23,2021-09-27_12h17.45.561,forced_choiceRT_color,2021.2.3,MacIntel,59.95203837,,,,,,,,1,Ontime,short,f,0,1.9533,1,3,7,3,1,,,,,
,1.13,,,,,,,,,j,red,5c5a5234819b0c0001704f23,2021-09-27_12h17.45.561,forced_choiceRT_color,2021.2.3,MacIntel,59.95203837,,,,,,,,1,Ontime,short,j,1,1.9366,2,0,8,2,1,,,,,
,0.77,,,,,,,,,k,purple,5c5a5234819b0c0001704f23,2021-09-27_12h17.45.561,forced_choiceRT_color,2021.2.3,MacIntel,59.95203837,,,,,,,,1,Ontime,short,k,1,1.9251,2,1,9,3,1,,,,,
,1.46,,,,,,,,,d,orange,5c5a5234819b0c0001704f23,2021-09-27_12h17.45.561,forced_choiceRT_color,2021.2.3,MacIntel,59.95203837,,,,,,,,1,Ontime,short,d,1,1.9225,2,2,10,0,1,,,,,
,0.4,,,,,,,,,k,purple,5c5a5234819b0c0001704f23,2021-09-27_12h17.45.561,forced_choiceRT_color,2021.2.3,MacIntel,59.95203837,,,,,,,,1,Fast,short,k,1,1.8763,2,3,11,3,1,,,,,
,0.34,,,,,,,,,j,red,5c5a5234819b0c0001704f23,2021-09-27_12h17.45.561,forced_choiceRT_color,2021.2.3,MacIntel,59.95203837,,,,,,,,1,Ontime,short,j,1,1.9031,3,0,12,2,1,,,,,
,1.53,,,,,,,,,k,purple,5c5a5234819b0c0001704f23,2021-09-27_12h17.45.561,forced_choiceRT_color,2021.2.3,MacIntel,59.95203837,,,,,,,,1,Ontime,short,f,0,1.9575,3,1,13,3,1,,,,,
,1.3,,,,,,,,,k,purple,5c5a5234819b0c0001704f23,2021-09-27_12h17.45.561,forced_choiceRT_color,2021.2.3,MacIntel,59.95203837,,,,,,,,1,Ontime,short,f,0,1.9539,3,2,14,3,1,,,,,
,0.59,,,,,,,,,d,orange,5c5a5234819b0c0001704f23,2021-09-27_12h17.45.561,forced_choiceRT_color,2021.2.3,MacIntel,59.95203837,,,,,,,,1,Fast,short,d,1,1.8734,3,3,15,0,1,,,,,
,0.67,,,,,,,,,d,orange,5c5a5234819b0c0001704f23,2021-09-27_12h17.45.561,forced_choiceRT_color,2021.2.3,MacIntel,59.95203837,,,,,,,,1,Fast,short,d,1,1.7405,4,0,16,0,1,,,,,
,1.3,,,,,,,,,d,orange,5c5a5234819b0c0001704f23,2021-09-27_12h17.45.561,forced_choiceRT_color,2021.2.3,MacIntel,59.95203837,,,,,,,,1,Ontime,short,d,1,2.0092,4,1,17,0,1,,,,,
,1.82,,,,,,,,,f,blue,5c5a5234819b0c0001704f23,2021-09-27_12h17.45.561,forced_choiceRT_color,2021.2.3,MacIntel,59.95203837,,,,,,,,1,Slow,short,f,1,2.2243,4,2,18,1,1,,,,,
,1.34,,,,,,,,,f,blue,5c5a5234819b0c0001704f23,2021-09-27_12h17.45.561,forced_choiceRT_color,2021.2.3,MacIntel,59.95203837,,,,,,,,1,Slow,short,f,1,2.1637,4,3,19,1,1,,,,,
,1.64,,,,,,,,,d,orange,5c5a5234819b0c0001704f23,2021-09-27_12h17.45.561,forced_choiceRT_color,2021.2.3,MacIntel,59.95203837,,,,,,,,1,Ontime,short,f,0,1.957,5,0,20,0,1,,,,,
,1.58,,,,,,,,,k,purple,5c5a5234819b0c0001704f23,2021-09-27_12h17.45.561,forced_choiceRT_color,2021.2.3,MacIntel,59.95203837,,,,,,,,1,Fast,short,d,0,1.851,5,1,21,3,1,,,,,
,0.49,,,,,,,,,d,orange,5c5a5234819b0c0001704f23,2021-09-27_12h17.45.561,forced_choiceRT_color,2021.2.3,MacIntel,59.95203837,,,,,,,,1,Fast,short,d,1,1.8905,5,2,22,0,1,,,,,
,1.69,,,,,,,,,f,blue,5c5a5234819b0c0001704f23,2021-09-27_12h17.45.561,forced_choiceRT_color,2021.2.3,MacIntel,59.95203837,,,,,,,,1,Ontime,short,d,0,1.9911,5,3,23,1,1,,,,,
,0.35,,,,,,,,,f,blue,5c5a5234819b0c0001704f23,2021-09-27_12h17.45.561,forced_choiceRT_color,2021.2.3,MacIntel,59.95203837,,,,,,,,1,Ontime,short,f,1,1.9915,6,0,24,1,1,,,,,
,1.23,,,,,,,,,k,purple,5c5a5234819b0c0001704f23,2021-09-27_12h17.45.561,forced_choiceRT_color,2021.2.3,MacIntel,59.95203837,,,,,,,,1,Ontime,short,j,0,1.9928,6,1,25,3,1,,,,,
,1.7,,,,,,,,,d,orange,5c5a5234819b0c0001704f23,2021-09-27_12h17.45.561,forced_choiceRT_color,2021.2.3,MacIntel,59.95203837,,,,,,,,1,Ontime,short,j,0,2.06,6,2,26,0,1,,,,,
,1.4,,,,,,,,,j,red,5c5a5234819b0c0001704f23,2021-09-27_12h17.45.561,forced_choiceRT_color,2021.2.3,MacIntel,59.95203837,,,,,,,,1,Fast,short,d,0,1.8869,6,3,27,2,1,,,,,
,0.3,,,,,,,,,j,red,5c5a5234819b0c0001704f23,2021-09-27_12h17.45.561,forced_choiceRT_color,2021.2.3,MacIntel,59.95203837,,,,,,,,1,Slow,short,j,1,2.1584,7,0,28,2,1,,,,,
,1.38,,,,,,,,,d,orange,5c5a5234819b0c0001704f23,2021-09-27_12h17.45.561,forced_choiceRT_color,2021.2.3,MacIntel,59.95203837,,,,,,,,1,Ontime,short,d,1,1.9582,7,1,29,0,1,,,,,
,1.96,,,,,,,,,j,red,5c5a5234819b0c0001704f23,2021-09-27_12h17.45.561,forced_choiceRT_color,2021.2.3,MacIntel,59.95203837,,,,,,,,1,Ontime,short,d,0,2.0732,7,2,30,2,1,,,,,
,1,,,,,,,,,j,red,5c5a5234819b0c0001704f23,2021-09-27_12h17.45.561,forced_choiceRT_color,2021.2.3,MacIntel,59.95203837,,,,,,,,1,Ontime,short,j,1,2.0562,7,3,31,2,1,,,,,
,1.6,,,,,,,,,f,blue,5c5a5234819b0c0001704f23,2021-09-27_12h17.45.561,forced_choiceRT_color,2021.2.3,MacIntel,59.95203837,,,,,,,,1,Ontime,short,f,1,1.9474,8,0,32,1,1,,,,,
,0.44,,,,,,,,,f,blue,5c5a5234819b0c0001704f23,2021-09-27_12h17.45.561,forced_choiceRT_color,2021.2.3,MacIntel,59.95203837,,,,,,,,1,Ontime,short,f,1,1.93,8,1,33,1,1,,,,,
,0.63,,,,,,,,,k,purple,5c5a5234819b0c0001704f23,2021-09-27_12h17.45.561,forced_choiceRT_color,2021.2.3,MacIntel,59.95203837,,,,,,,,1,Ontime,short,j,0,1.9546,8,2,34,3,1,,,,,
,1.1,,,,,,,,,f,blue,5c5a5234819b0c0001704f23,2021-09-27_12h17.45.561,forced_choiceRT_color,2021.2.3,MacIntel,59.95203837,,,,,,,,1,Ontime,short,f,1,2.0058,8,3,35,1,1,,,,,
,1.31,,,,,,,,,f,blue,5c5a5234819b0c0001704f23,2021-09-27_12h17.45.561,forced_choiceRT_color,2021.2.3,MacIntel,59.95203837,,,,,,,,1,Ontime,short,f,1,1.9476,9,0,36,1,1,,,,,
,1.05,,,,,,,,,f,blue,5c5a5234819b0c0001704f23,2021-09-27_12h17.45.561,forced_choiceRT_color,2021.2.3,MacIntel,59.95203837,,,,,,,,1,Ontime,short,f,1,1.9063,9,1,37,1,1,,,,,
,1.17,,,,,,,,,j,red,5c5a5234819b0c0001704f23,2021-09-27_12h17.45.561,forced_choiceRT_color,2021.2.3,MacIntel,59.95203837,,,,,,,,1,Ontime,short,j,1,1.976,9,2,38,2,1,,,,,
,0.53,,,,,,,,,k,purple,5c5a5234819b0c0001704f23,2021-09-27_12h17.45.561,forced_choiceRT_color,2021.2.3,MacIntel,59.95203837,,,,,,,,1,Ontime,short,d,0,1.9418,9,3,39,3,1,,,,,
,,,,,,,,,,,,5c5a5234819b0c0001704f23,2021-09-27_12h17.45.561,forced_choiceRT_color,2021.2.3,MacIntel,59.95203837,,,,,,,,,,,,,,,,,,,0,0,0,0,1
,1.7,,,,,,,,,j,red,5c5a5234819b0c0001704f23,2021-09-27_12h17.45.561,forced_choiceRT_color,2021.2.3,MacIntel,59.95203837,,,,,,,,2,Fast,short,d,0,1.887,0,0,0,2,1,,,,,
,1.68,,,,,,,,,k,purple,5c5a5234819b0c0001704f23,2021-09-27_12h17.45.561,forced_choiceRT_color,2021.2.3,MacIntel,59.95203837,,,,,,,,2,Fast,short,d,0,1.8907,0,1,1,3,1,,,,,
,1.42,,,,,,,,,f,blue,5c5a5234819b0c0001704f23,2021-09-27_12h17.45.561,forced_choiceRT_color,2021.2.3,MacIntel,59.95203837,,,,,,,,2,Ontime,short,d,0,1.9296,0,2,2,1,1,,,,,
,0.63,,,,,,,,,d,orange,5c5a5234819b0c0001704f23,2021-09-27_12h17.45.561,forced_choiceRT_color,2021.2.3,MacIntel,59.95203837,,,,,,,,2,Ontime,short,d,1,1.9924,0,3,3,0,1,,,,,
,0.39,,,,,,,,,d,orange,5c5a5234819b0c0001704f23,2021-09-27_12h17.45.561,forced_choiceRT_color,2021.2.3,MacIntel,59.95203837,,,,,,,,2,Ontime,short,d,1,1.9541,1,0,4,0,1,,,,,
,0.89,,,,,,,,,d,orange,5c5a5234819b0c0001704f23,2021-09-27_12h17.45.561,forced_choiceRT_color,2021.2.3,MacIntel,59.95203837,,,,,,,,2,Ontime,short,d,1,1.9873,1,1,5,0,1,,,,,
,1.86,,,,,,,,,k,purple,5c5a5234819b0c0001704f23,2021-09-27_12h17.45.561,forced_choiceRT_color,2021.2.3,MacIntel,59.95203837,,,,,,,,2,Slow,short,d,0,2.1018,1,2,6,3,1,,,,,
,1.63,,,,,,,,,d,orange,5c5a5234819b0c0001704f23,2021-09-27_12h17.45.561,forced_choiceRT_color,2021.2.3,MacIntel,59.95203837,,,,,,,,2,Ontime,short,j,0,1.9059,1,3,7,0,1,,,,,
,1.82,,,,,,,,,j,red,5c5a5234819b0c0001704f23,2021-09-27_12h17.45.561,forced_choiceRT_color,2021.2.3,MacIntel,59.95203837,,,,,,,,2,Fast,short,d,0,1.8904,2,0,8,2,1,,,,,
,0.47,,,,,,,,,k,purple,5c5a5234819b0c0001704f23,2021-09-27_12h17.45.561,forced_choiceRT_color,2021.2.3,MacIntel,59.95203837,,,,,,,,2,Ontime,short,k,1,1.9432,2,1,9,3,1,,,,,
,0.57,,,,,,,,,k,purple,5c5a5234819b0c0001704f23,2021-09-27_12h17.45.561,forced_choiceRT_color,2021.2.3,MacIntel,59.95203837,,,,,,,,2,Ontime,short,k,1,1.9722,2,2,10,3,1,,,,,
,1.69,,,,,,,,,f,blue,5c5a5234819b0c0001704f23,2021-09-27_12h17.45.561,forced_choiceRT_color,2021.2.3,MacIntel,59.95203837,,,,,,,,2,Ontime,short,k,0,2.013,2,3,11,1,1,,,,,
,0.17,,,,,,,,,k,purple,5c5a5234819b0c0001704f23,2021-09-27_12h17.45.561,forced_choiceRT_color,2021.2.3,MacIntel,59.95203837,,,,,,,,2,Ontime,short,k,1,1.9726,3,0,12,3,1,,,,,
,0.04,,,,,,,,,k,purple,5c5a5234819b0c0001704f23,2021-09-27_12h17.45.561,forced_choiceRT_color,2021.2.3,MacIntel,59.95203837,,,,,,,,2,Ontime,short,k,1,2.0389,3,1,13,3,1,,,,,
,0.86,,,,,,,,,f,blue,5c5a5234819b0c0001704f23,2021-09-27_12h17.45.561,forced_choiceRT_color,2021.2.3,MacIntel,59.95203837,,,,,,,,2,Ontime,short,f,1,1.9201,3,2,14,1,1,,,,,
,0.01,,,,,,,,,j,red,5c5a5234819b0c0001704f23,2021-09-27_12h17.45.561,forced_choiceRT_color,2021.2.3,MacIntel,59.95203837,,,,,,,,2,Ontime,short,j,1,2.0777,3,3,15,2,1,,,,,
,1.1,,,,,,,,,k,purple,5c5a5234819b0c0001704f23,2021-09-27_12h17.45.561,forced_choiceRT_color,2021.2.3,MacIntel,59.95203837,,,,,,,,2,Slow,short,k,1,2.128,4,0,16,3,1,,,,,
,1.21,,,,,,,,,d,orange,5c5a5234819b0c0001704f23,2021-09-27_12h17.45.561,forced_choiceRT_color,2021.2.3,MacIntel,59.95203837,,,,,,,,2,Ontime,short,d,1,1.9901,4,1,17,0,1,,,,,
,0.99,,,,,,,,,j,red,5c5a5234819b0c0001704f23,2021-09-27_12h17.45.561,forced_choiceRT_color,2021.2.3,MacIntel,59.95203837,,,,,,,,2,Ontime,short,j,1,2.0853,4,2,18,2,1,,,,,
,1.87,,,,,,,,,k,purple,5c5a5234819b0c0001704f23,2021-09-27_12h17.45.561,forced_choiceRT_color,2021.2.3,MacIntel,59.95203837,,,,,,,,2,Ontime,short,d,0,2.0062,4,3,19,3,1,,,,,
,0.11,,,,,,,,,j,red,5c5a5234819b0c0001704f23,2021-09-27_12h17.45.561,forced_choiceRT_color,2021.2.3,MacIntel,59.95203837,,,,,,,,2,Ontime,short,j,1,1.9899,5,0,20,2,1,,,,,
,1.56,,,,,,,,,j,red,5c5a5234819b0c0001704f23,2021-09-27_12h17.45.561,forced_choiceRT_color,2021.2.3,MacIntel,59.95203837,,,,,,,,2,Slow,short,j,1,2.1534,5,1,21,2,1,,,,,
,0.66,,,,,,,,,f,blue,5c5a5234819b0c0001704f23,2021-09-27_12h17.45.561,forced_choiceRT_color,2021.2.3,MacIntel,59.95203837,,,,,,,,2,Ontime,short,f,1,2.0276,5,2,22,1,1,,,,,
,1.7,,,,,,,,,j,red,5c5a5234819b0c0001704f23,2021-09-27_12h17.45.561,forced_choiceRT_color,2021.2.3,MacIntel,59.95203837,,,,,,,,2,Ontime,short,f,0,2.0401,5,3,23,2,1,,,,,
,0,,,,,,,,,j,red,5c5a5234819b0c0001704f23,2021-09-27_12h17.45.561,forced_choiceRT_color,2021.2.3,MacIntel,59.95203837,,,,,,,,2,Ontime,short,j,1,1.9228,6,0,24,2,1,,,,,
,1.42,,,,,,,,,d,orange,5c5a5234819b0c0001704f23,2021-09-27_12h17.45.561,forced_choiceRT_color,2021.2.3,MacIntel,59.95203837,,,,,,,,2,Ontime,short,d,1,2.0374,6,1,25,0,1,,,,,
,1.96,,,,,,,,,d,orange,5c5a5234819b0c0001704f23,2021-09-27_12h17.45.561,forced_choiceRT_color,2021.2.3,MacIntel,59.95203837,,,,,,,,2,Ontime,short,f,0,1.9876,6,2,26,0,1,,,,,
,1.24,,,,,,,,,d,orange,5c5a5234819b0c0001704f23,2021-09-27_12h17.45.561,forced_choiceRT_color,2021.2.3,MacIntel,59.95203837,,,,,,,,2,Ontime,short,d,1,2.0579,6,3,27,0,1,,,,,
,1.57,,,,,,,,,f,blue,5c5a5234819b0c0001704f23,2021-09-27_12h17.45.561,forced_choiceRT_color,2021.2.3,MacIntel,59.95203837,,,,,,,,2,Ontime,short,f,1,2.077,7,0,28,1,1,,,,,
,0.44,,,,,,,,,f,blue,5c5a5234819b0c0001704f23,2021-09-27_12h17.45.561,forced_choiceRT_color,2021.2.3,MacIntel,59.95203837,,,,,,,,2,Ontime,short,f,1,1.9081,7,1,29,1,1,,,,,
,0.29,,,,,,,,,k,purple,5c5a5234819b0c0001704f23,2021-09-27_12h17.45.561,forced_choiceRT_color,2021.2.3,MacIntel,59.95203837,,,,,,,,2,Ontime,short,k,1,1.9429,7,2,30,3,1,,,,,
,0.54,,,,,,,,,j,red,5c5a5234819b0c0001704f23,2021-09-27_12h17.45.561,forced_choiceRT_color,2021.2.3,MacIntel,59.95203837,,,,,,,,2,Ontime,short,j,1,2.0228,7,3,31,2,1,,,,,
,0.17,,,,,,,,,f,blue,5c5a5234819b0c0001704f23,2021-09-27_12h17.45.561,forced_choiceRT_color,2021.2.3,MacIntel,59.95203837,,,,,,,,2,Ontime,short,f,1,1.9403,8,0,32,1,1,,,,,
,1.81,,,,,,,,,f,blue,5c5a5234819b0c0001704f23,2021-09-27_12h17.45.561,forced_choiceRT_color,2021.2.3,MacIntel,59.95203837,,,,,,,,2,Ontime,short,d,0,1.9704,8,1,33,1,1,,,,,
,0.92,,,,,,,,,f,blue,5c5a5234819b0c0001704f23,2021-09-27_12h17.45.561,forced_choiceRT_color,2021.2.3,MacIntel,59.95203837,,,,,,,,2,Ontime,short,f,1,2.0775,8,2,34,1,1,,,,,
,0.98,,,,,,,,,d,orange,5c5a5234819b0c0001704f23,2021-09-27_12h17.45.561,forced_choiceRT_color,2021.2.3,MacIntel,59.95203837,,,,,,,,2,Ontime,short,d,1,1.9754,8,3,35,0,1,,,,,
,1.28,,,,,,,,,f,blue,5c5a5234819b0c0001704f23,2021-09-27_12h17.45.561,forced_choiceRT_color,2021.2.3,MacIntel,59.95203837,,,,,,,,2,Fast,short,f,1,1.8581,9,0,36,1,1,,,,,
,0.92,,,,,,,,,k,purple,5c5a5234819b0c0001704f23,2021-09-27_12h17.45.561,forced_choiceRT_color,2021.2.3,MacIntel,59.95203837,,,,,,,,2,Slow,short,j,0,2.148,9,1,37,3,1,,,,,
,0.62,,,,,,,,,j,red,5c5a5234819b0c0001704f23,2021-09-27_12h17.45.561,forced_choiceRT_color,2021.2.3,MacIntel,59.95203837,,,,,,,,2,Ontime,short,j,1,1.9739,9,2,38,2,1,,,,,
,1.3,,,,,,,,,d,orange,5c5a5234819b0c0001704f23,2021-09-27_12h17.45.561,forced_choiceRT_color,2021.2.3,MacIntel,59.95203837,,,,,,,,2,Ontime,short,d,1,1.9936,9,3,39,0,1,,,,,
,,,,,,,,,,,,5c5a5234819b0c0001704f23,2021-09-27_12h17.45.561,forced_choiceRT_color,2021.2.3,MacIntel,59.95203837,,,,,,,,,,,,,,,,,,,1,0,1,0,1
,1.03,,,,,,,,,k,purple,5c5a5234819b0c0001704f23,2021-09-27_12h17.45.561,forced_choiceRT_color,2021.2.3,MacIntel,59.95203837,,,,,,,,3,Ontime,short,j,0,1.9871,0,0,0,3,1,,,,,
,0.34,,,,,,,,,d,orange,5c5a5234819b0c0001704f23,2021-09-27_12h17.45.561,forced_choiceRT_color,2021.2.3,MacIntel,59.95203837,,,,,,,,3,Fast,short,d,1,1.8558,0,1,1,0,1,,,,,
,0.38,,,,,,,,,j,red,5c5a5234819b0c0001704f23,2021-09-27_12h17.45.561,forced_choiceRT_color,2021.2.3,MacIntel,59.95203837,,,,,,,,3,Ontime,short,j,1,1.9858,0,2,2,2,1,,,,,
,1.01,,,,,,,,,d,orange,5c5a5234819b0c0001704f23,2021-09-27_12h17.45.561,forced_choiceRT_color,2021.2.3,MacIntel,59.95203837,,,,,,,,3,Ontime,short,d,1,1.9631,0,3,3,0,1,,,,,
,0.02,,,,,,,,,d,orange,5c5a5234819b0c0001704f23,2021-09-27_12h17.45.561,forced_choiceRT_color,2021.2.3,MacIntel,59.95203837,,,,,,,,3,Ontime,short,d,1,2.0043,1,0,4,0,1,,,,,
,0.74,,,,,,,,,j,red,5c5a5234819b0c0001704f23,2021-09-27_12h17.45.561,forced_choiceRT_color,2021.2.3,MacIntel,59.95203837,,,,,,,,3,Ontime,short,j,1,2.0969,1,1,5,2,1,,,,,
,1.59,,,,,,,,,j,red,5c5a5234819b0c0001704f23,2021-09-27_12h17.45.561,forced_choiceRT_color,2021.2.3,MacIntel,59.95203837,,,,,,,,3,Ontime,short,j,1,2.063,1,2,6,2,1,,,,,
,0.97,,,,,,,,,k,purple,5c5a5234819b0c0001704f23,2021-09-27_12h17.45.561,forced_choiceRT_color,2021.2.3,MacIntel,59.95203837,,,,,,,,3,Slow,short,k,1,2.111,1,3,7,3,1,,,,,
,1.99,,,,,,,,,j,red,5c5a5234819b0c0001704f23,2021-09-27_12h17.45.561,forced_choiceRT_color,2021.2.3,MacIntel,59.95203837,,,,,,,,3,Ontime,short,j,1,2.041,2,0,8,2,1,,,,,
,0.92,,,,,,,,,f,blue,5c5a5234819b0c0001704f23,2021-09-27_12h17.45.561,forced_choiceRT_color,2021.2.3,MacIntel,59.95203837,,,,,,,,3,Ontime,short,f,1,2.0153,2,1,9,1,1,,,,,
,1.47,,,,,,,,,k,purple,5c5a5234819b0c0001704f23,2021-09-27_12h17.45.561,forced_choiceRT_color,2021.2.3,MacIntel,59.95203837,,,,,,,,3,Ontime,short,k,1,1.9536,2,2,10,3,1,,,,,
,0.26,,,,,,,,,d,orange,5c5a5234819b0c0001704f23,2021-09-27_12h17.45.561,forced_choiceRT_color,2021.2.3,MacIntel,59.95203837,,,,,,,,3,Ontime,short,d,1,1.964,2,3,11,0,1,,,,,
,0.71,,,,,,,,,d,orange,5c5a5234819b0c0001704f23,2021-09-27_12h17.45.561,forced_choiceRT_color,2021.2.3,MacIntel,59.95203837,,,,,,,,3,Slow,short,d,1,2.1078,3,0,12,0,1,,,,,
,0.72,,,,,,,,,k,purple,5c5a5234819b0c0001704f23,2021-09-27_12h17.45.561,forced_choiceRT_color,2021.2.3,MacIntel,59.95203837,,,,,,,,3,Ontime,short,k,1,2.0111,3,1,13,3,1,,,,,
,0.05,,,,,,,,,d,orange,5c5a5234819b0c0001704f23,2021-09-27_12h17.45.561,forced_choiceRT_color,2021.2.3,MacIntel,59.95203837,,,,,,,,3,Ontime,short,d,1,1.9974,3,2,14,0,1,,,,,
,0,,,,,,,,,d,orange,5c5a5234819b0c0001704f23,2021-09-27_12h17.45.561,forced_choiceRT_color,2021.2.3,MacIntel,59.95203837,,,,,,,,3,Ontime,short,d,1,1.9713,3,3,15,0,1,,,,,
,1.62,,,,,,,,,k,purple,5c5a5234819b0c0001704f23,2021-09-27_12h17.45.561,forced_choiceRT_color,2021.2.3,MacIntel,59.95203837,,,,,,,,3,Ontime,short,d,0,1.9451,4,0,16,3,1,,,,,
,1.48,,,,,,,,,f,blue,5c5a5234819b0c0001704f23,2021-09-27_12h17.45.561,forced_choiceRT_color,2021.2.3,MacIntel,59.95203837,,,,,,,,3,Ontime,short,k,0,1.9521,4,1,17,1,1,,,,,
,1.23,,,,,,,,,f,blue,5c5a5234819b0c0001704f23,2021-09-27_12h17.45.561,forced_choiceRT_color,2021.2.3,MacIntel,59.95203837,,,,,,,,3,Fast,short,f,1,1.8942,4,2,18,1,1,,,,,
,0.65,,,,,,,,,k,purple,5c5a5234819b0c0001704f23,2021-09-27_12h17.45.561,forced_choiceRT_color,2021.2.3,MacIntel,59.95203837,,,,,,,,3,Ontime,short,k,1,2.0465,4,3,19,3,1,,,,,
,0.9,,,,,,,,,d,orange,5c5a5234819b0c0001704f23,2021-09-27_12h17.45.561,forced_choiceRT_color,2021.2.3,MacIntel,59.95203837,,,,,,,,3,Ontime,short,d,1,1.907,5,0,20,0,1,,,,,
,0.59,,,,,,,,,j,red,5c5a5234819b0c0001704f23,2021-09-27_12h17.45.561,forced_choiceRT_color,2021.2.3,MacIntel,59.95203837,,,,,,,,3,Ontime,short,j,1,2.0097,5,1,21,2,1,,,,,
,1.87,,,,,,,,,k,purple,5c5a5234819b0c0001704f23,2021-09-27_12h17.45.561,forced_choiceRT_color,2021.2.3,MacIntel,59.95203837,,,,,,,,3,Ontime,short,d,0,1.9943,5,2,22,3,1,,,,,
,1.94,,,,,,,,,k,purple,5c5a5234819b0c0001704f23,2021-09-27_12h17.45.561,forced_choiceRT_color,2021.2.3,MacIntel,59.95203837,,,,,,,,3,Ontime,short,d,0,1.9972,5,3,23,3,1,,,,,
,0.27,,,,,,,,,j,red,5c5a5234819b0c0001704f23,2021-09-27_12h17.45.561,forced_choiceRT_color,2021.2.3,MacIntel,59.95203837,,,,,,,,3,Ontime,short,j,1,2.0207,6,0,24,2,1,,,,,
,1.45,,,,,,,,,j,red,5c5a5234819b0c0001704f23,2021-09-27_12h17.45.561,forced_choiceRT_color,2021.2.3,MacIntel,59.95203837,,,,,,,,3,Ontime,short,j,1,1.9879,6,1,25,2,1,,,,,
,1.36,,,,,,,,,f,blue,5c5a5234819b0c0001704f23,2021-09-27_12h17.45.561,forced_choiceRT_color,2021.2.3,MacIntel,59.95203837,,,,,,,,3,Ontime,short,f,1,1.9642,6,2,26,1,1,,,,,
,0.02,,,,,,,,,f,blue,5c5a5234819b0c0001704f23,2021-09-27_12h17.45.561,forced_choiceRT_color,2021.2.3,MacIntel,59.95203837,,,,,,,,3,Fast,short,f,1,1.8906,6,3,27,1,1,,,,,
,0.2,,,,,,,,,j,red,5c5a5234819b0c0001704f23,2021-09-27_12h17.45.561,forced_choiceRT_color,2021.2.3,MacIntel,59.95203837,,,,,,,,3,Ontime,short,k,0,1.9393,7,0,28,2,1,,,,,
,0.68,,,,,,,,,j,red,5c5a5234819b0c0001704f23,2021-09-27_12h17.45.561,forced_choiceRT_color,2021.2.3,MacIntel,59.95203837,,,,,,,,3,Ontime,short,j,1,2.0093,7,1,29,2,1,,,,,
,1.29,,,,,,,,,k,purple,5c5a5234819b0c0001704f23,2021-09-27_12h17.45.561,forced_choiceRT_color,2021.2.3,MacIntel,59.95203837,,,,,,,,3,Slow,short,k,1,2.2659,7,2,30,3,1,,,,,
,1.11,,,,,,,,,f,blue,5c5a5234819b0c0001704f23,2021-09-27_12h17.45.561,forced_choiceRT_color,2021.2.3,MacIntel,59.95203837,,,,,,,,3,Ontime,short,f,1,2.0976,7,3,31,1,1,,,,,
,1.43,,,,,,,,,f,blue,5c5a5234819b0c0001704f23,2021-09-27_12h17.45.561,forced_choiceRT_color,2021.2.3,MacIntel,59.95203837,,,,,,,,3,Ontime,short,f,1,1.9529,8,0,32,1,1,,,,,
,0.77,,,,,,,,,d,orange,5c5a5234819b0c0001704f23,2021-09-27_12h17.45.561,forced_choiceRT_color,2021.2.3,MacIntel,59.95203837,,,,,,,,3,Ontime,short,d,1,1.9873,8,1,33,0,1,,,,,
,0.64,,,,,,,,,f,blue,5c5a5234819b0c0001704f23,2021-09-27_12h17.45.561,forced_choiceRT_color,2021.2.3,MacIntel,59.95203837,,,,,,,,3,Ontime,short,f,1,2.0521,8,2,34,1,1,,,,,
,0.4,,,,,,,,,j,red,5c5a5234819b0c0001704f23,2021-09-27_12h17.45.561,forced_choiceRT_color,2021.2.3,MacIntel,59.95203837,,,,,,,,3,Ontime,short,j,1,2.0354,8,3,35,2,1,,,,,
,0.47,,,,,,,,,d,orange,5c5a5234819b0c0001704f23,2021-09-27_12h17.45.561,forced_choiceRT_color,2021.2.3,MacIntel,59.95203837,,,,,,,,3,Fast,short,d,1,1.8703,9,0,36,0,1,,,,,
,1.85,,,,,,,,,f,blue,5c5a5234819b0c0001704f23,2021-09-27_12h17.45.561,forced_choiceRT_color,2021.2.3,MacIntel,59.95203837,,,,,,,,3,Slow,short,d,0,2.2138,9,1,37,1,1,,,,,
,1.61,,,,,,,,,f,blue,5c5a5234819b0c0001704f23,2021-09-27_12h17.45.561,forced_choiceRT_color,2021.2.3,MacIntel,59.95203837,,,,,,,,3,Ontime,short,k,0,1.9227,9,2,38,1,1,,,,,
,1.46,,,,,,,,,k,purple,5c5a5234819b0c0001704f23,2021-09-27_12h17.45.561,forced_choiceRT_color,2021.2.3,MacIntel,59.95203837,,,,,,,,3,Slow,short,f,0,2.1084,9,3,39,3,1,,,,,
,,,,,,,,,,,,5c5a5234819b0c0001704f23,2021-09-27_12h17.45.561,forced_choiceRT_color,2021.2.3,MacIntel,59.95203837,,,,,,,,,,,,,,,,,,,2,0,2,0,1
,1.06,,,,,,,,,d,orange,5c5a5234819b0c0001704f23,2021-09-27_12h17.45.561,forced_choiceRT_color,2021.2.3,MacIntel,59.95203837,,,,,,,,4,Fast,short,d,1,1.7781,0,0,0,0,1,,,,,
,1.5,,,,,,,,,f,blue,5c5a5234819b0c0001704f23,2021-09-27_12h17.45.561,forced_choiceRT_color,2021.2.3,MacIntel,59.95203837,,,,,,,,4,Fast,short,d,0,1.7338,0,1,1,1,1,,,,,
,0.39,,,,,,,,,j,red,5c5a5234819b0c0001704f23,2021-09-27_12h17.45.561,forced_choiceRT_color,2021.2.3,MacIntel,59.95203837,,,,,,,,4,Ontime,short,j,1,1.9583,0,2,2,2,1,,,,,
,1.18,,,,,,,,,j,red,5c5a5234819b0c0001704f23,2021-09-27_12h17.45.561,forced_choiceRT_color,2021.2.3,MacIntel,59.95203837,,,,,,,,4,Ontime,short,j,1,1.9713,0,3,3,2,1,,,,,
,0.26,,,,,,,,,d,orange,5c5a5234819b0c0001704f23,2021-09-27_12h17.45.561,forced_choiceRT_color,2021.2.3,MacIntel,59.95203837,,,,,,,,4,Ontime,short,d,1,1.9053,1,0,4,0,1,,,,,
,0.98,,,,,,,,,k,purple,5c5a5234819b0c0001704f23,2021-09-27_12h17.45.561,forced_choiceRT_color,2021.2.3,MacIntel,59.95203837,,,,,,,,4,Ontime,short,k,1,1.9584,1,1,5,3,1,,,,,
,1.62,,,,,,,,,j,red,5c5a5234819b0c0001704f23,2021-09-27_12h17.45.561,forced_choiceRT_color,2021.2.3,MacIntel,59.95203837,,,,,,,,4,Ontime,short,k,0,1.9767,1,2,6,2,1,,,,,
,0.13,,,,,,,,,d,orange,5c5a5234819b0c0001704f23,2021-09-27_12h17.45.561,forced_choiceRT_color,2021.2.3,MacIntel,59.95203837,,,,,,,,4,Ontime,short,d,1,1.9231,1,3,7,0,1,,,,,
,1.61,,,,,,,,,f,blue,5c5a5234819b0c0001704f23,2021-09-27_12h17.45.561,forced_choiceRT_color,2021.2.3,MacIntel,59.95203837,,,,,,,,4,Ontime,short,j,0,1.904,2,0,8,1,1,,,,,
,0.28,,,,,,,,,k,purple,5c5a5234819b0c0001704f23,2021-09-27_12h17.45.561,forced_choiceRT_color,2021.2.3,MacIntel,59.95203837,,,,,,,,4,Fast,short,k,1,1.8744,2,1,9,3,1,,,,,
,1.75,,,,,,,,,k,purple,5c5a5234819b0c0001704f23,2021-09-27_12h17.45.561,forced_choiceRT_color,2021.2.3,MacIntel,59.95203837,,,,,,,,4,Slow,short,k,1,2.1418,2,2,10,3,1,,,,,
,0.12,,,,,,,,,f,blue,5c5a5234819b0c0001704f23,2021-09-27_12h17.45.561,forced_choiceRT_color,2021.2.3,MacIntel,59.95203837,,,,,,,,4,Fast,short,f,1,1.876,2,3,11,1,1,,,,,
,0.56,,,,,,,,,d,orange,5c5a5234819b0c0001704f23,2021-09-27_12h17.45.561,forced_choiceRT_color,2021.2.3,MacIntel,59.95203837,,,,,,,,4,Ontime,short,d,1,1.9419,3,0,12,0,1,,,,,
,0.59,,,,,,,,,j,red,5c5a5234819b0c0001704f23,2021-09-27_12h17.45.561,forced_choiceRT_color,2021.2.3,MacIntel,59.95203837,,,,,,,,4,Ontime,short,j,1,1.9256,3,1,13,2,1,,,,,
,1.12,,,,,,,,,k,purple,5c5a5234819b0c0001704f23,2021-09-27_12h17.45.561,forced_choiceRT_color,2021.2.3,MacIntel,59.95203837,,,,,,,,4,Ontime,short,j,0,2.0407,3,2,14,3,1,,,,,
,0.01,,,,,,,,,j,red,5c5a5234819b0c0001704f23,2021-09-27_12h17.45.561,forced_choiceRT_color,2021.2.3,MacIntel,59.95203837,,,,,,,,4,Ontime,short,j,1,1.9044,3,3,15,2,1,,,,,
,0.8,,,,,,,,,f,blue,5c5a5234819b0c0001704f23,2021-09-27_12h17.45.561,forced_choiceRT_color,2021.2.3,MacIntel,59.95203837,,,,,,,,4,Fast,short,f,1,1.8701,4,0,16,1,1,,,,,
,0.42,,,,,,,,,k,purple,5c5a5234819b0c0001704f23,2021-09-27_12h17.45.561,forced_choiceRT_color,2021.2.3,MacIntel,59.95203837,,,,,,,,4,Ontime,short,j,0,1.9374,4,1,17,3,1,,,,,
,0.54,,,,,,,,,j,red,5c5a5234819b0c0001704f23,2021-09-27_12h17.45.561,forced_choiceRT_color,2021.2.3,MacIntel,59.95203837,,,,,,,,4,Ontime,short,f,0,1.9421,4,2,18,2,1,,,,,
,1.96,,,,,,,,,k,purple,5c5a5234819b0c0001704f23,2021-09-27_12h17.45.561,forced_choiceRT_color,2021.2.3,MacIntel,59.95203837,,,,,,,,4,Ontime,short,f,0,1.9294,4,3,19,3,1,,,,,
,1.99,,,,,,,,,d,orange,5c5a5234819b0c0001704f23,2021-09-27_12h17.45.561,forced_choiceRT_color,2021.2.3,MacIntel,59.95203837,,,,,,,,4,Ontime,short,f,0,1.9543,5,0,20,0,1,,,,,
,0.11,,,,,,,,,d,orange,5c5a5234819b0c0001704f23,2021-09-27_12h17.45.561,forced_choiceRT_color,2021.2.3,MacIntel,59.95203837,,,,,,,,4,Ontime,short,d,1,1.9399,5,1,21,0,1,,,,,
,1.36,,,,,,,,,f,blue,5c5a5234819b0c0001704f23,2021-09-27_12h17.45.561,forced_choiceRT_color,2021.2.3,MacIntel,59.95203837,,,,,,,,4,Ontime,short,d,0,1.9697,5,2,22,1,1,,,,,
,0.92,,,,,,,,,k,purple,5c5a5234819b0c0001704f23,2021-09-27_12h17.45.561,forced_choiceRT_color,2021.2.3,MacIntel,59.95203837,,,,,,,,4,Ontime,short,k,1,1.9869,5,3,23,3,1,,,,,
,0.92,,,,,,,,,k,purple,5c5a5234819b0c0001704f23,2021-09-27_12h17.45.561,forced_choiceRT_color,2021.2.3,MacIntel,59.95203837,,,,,,,,4,Ontime,short,k,1,1.9389,6,0,24,3,1,,,,,
,0.01,,,,,,,,,f,blue,5c5a5234819b0c0001704f23,2021-09-27_12h17.45.561,forced_choiceRT_color,2021.2.3,MacIntel,59.95203837,,,,,,,,4,Ontime,short,f,1,1.9473,6,1,25,1,1,,,,,
,1.82,,,,,,,,,d,orange,5c5a5234819b0c0001704f23,2021-09-27_12h17.45.561,forced_choiceRT_color,2021.2.3,MacIntel,59.95203837,,,,,,,,4,Ontime,short,f,0,1.9752,6,2,26,0,1,,,,,
,0.99,,,,,,,,,j,red,5c5a5234819b0c0001704f23,2021-09-27_12h17.45.561,forced_choiceRT_color,2021.2.3,MacIntel,59.95203837,,,,,,,,4,Fast,short,d,0,1.8804,6,3,27,2,1,,,,,
,0.27,,,,,,,,,j,red,5c5a5234819b0c0001704f23,2021-09-27_12h17.45.561,forced_choiceRT_color,2021.2.3,MacIntel,59.95203837,,,,,,,,4,Ontime,short,j,1,1.9472,7,0,28,2,1,,,,,
,0.38,,,,,,,,,k,purple,5c5a5234819b0c0001704f23,2021-09-27_12h17.45.561,forced_choiceRT_color,2021.2.3,MacIntel,59.95203837,,,,,,,,4,Ontime,short,j,0,2.002,7,1,29,3,1,,,,,
,0.73,,,,,,,,,f,blue,5c5a5234819b0c0001704f23,2021-09-27_12h17.45.561,forced_choiceRT_color,2021.2.3,MacIntel,59.95203837,,,,,,,,4,Ontime,short,f,1,1.9395,7,2,30,1,1,,,,,
,1.32,,,,,,,,,d,orange,5c5a5234819b0c0001704f23,2021-09-27_12h17.45.561,forced_choiceRT_color,2021.2.3,MacIntel,59.95203837,,,,,,,,4,Ontime,short,d,1,1.9049,7,3,31,0,1,,,,,
,1.44,,,,,,,,,k,purple,5c5a5234819b0c0001704f23,2021-09-27_12h17.45.561,forced_choiceRT_color,2021.2.3,MacIntel,59.95203837,,,,,,,,4,Ontime,short,j,0,2.0043,8,0,32,3,1,,,,,
,1.13,,,,,,,,,d,orange,5c5a5234819b0c0001704f23,2021-09-27_12h17.45.561,forced_choiceRT_color,2021.2.3,MacIntel,59.95203837,,,,,,,,4,Slow,short,d,1,2.1224,8,1,33,0,1,,,,,
,1.49,,,,,,,,,f,blue,5c5a5234819b0c0001704f23,2021-09-27_12h17.45.561,forced_choiceRT_color,2021.2.3,MacIntel,59.95203837,,,,,,,,4,Ontime,short,j,0,2.0897,8,2,34,1,1,,,,,
,1.68,,,,,,,,,d,orange,5c5a5234819b0c0001704f23,2021-09-27_12h17.45.561,forced_choiceRT_color,2021.2.3,MacIntel,59.95203837,,,,,,,,4,Ontime,short,j,0,2.0077,8,3,35,0,1,,,,,
,1.88,,,,,,,,,f,blue,5c5a5234819b0c0001704f23,2021-09-27_12h17.45.561,forced_choiceRT_color,2021.2.3,MacIntel,59.95203837,,,,,,,,4,Slow,short,j,0,2.1043,9,0,36,1,1,,,,,
,0.92,,,,,,,,,f,blue,5c5a5234819b0c0001704f23,2021-09-27_12h17.45.561,forced_choiceRT_color,2021.2.3,MacIntel,59.95203837,,,,,,,,4,Ontime,short,f,1,1.9406,9,1,37,1,1,,,,,
,1.4,,,,,,,,,j,red,5c5a5234819b0c0001704f23,2021-09-27_12h17.45.561,forced_choiceRT_color,2021.2.3,MacIntel,59.95203837,,,,,,,,4,Ontime,short,d,0,1.941,9,2,38,2,1,,,,,
,0.96,,,,,,,,,j,red,5c5a5234819b0c0001704f23,2021-09-27_12h17.45.561,forced_choiceRT_color,2021.2.3,MacIntel,59.95203837,,,,,,,,4,Ontime,short,j,1,2.0393,9,3,39,2,1,,,,,
,,,,,,,,,,,,5c5a5234819b0c0001704f23,2021-09-27_12h17.45.561,forced_choiceRT_color,2021.2.3,MacIntel,59.95203837,,,,,,,,,,,,,,,,,,,3,0,3,0,1
,1.58,,,,,,,,,f,blue,5c5a5234819b0c0001704f23,2021-09-27_12h17.45.561,forced_choiceRT_color,2021.2.3,MacIntel,59.95203837,,,,,,,,5,Ontime,short,f,1,2.0971,0,0,0,1,1,,,,,
,1.19,,,,,,,,,d,orange,5c5a5234819b0c0001704f23,2021-09-27_12h17.45.561,forced_choiceRT_color,2021.2.3,MacIntel,59.95203837,,,,,,,,5,Ontime,short,d,1,1.9266,0,1,1,0,1,,,,,
,0.86,,,,,,,,,f,blue,5c5a5234819b0c0001704f23,2021-09-27_12h17.45.561,forced_choiceRT_color,2021.2.3,MacIntel,59.95203837,,,,,,,,5,Ontime,short,f,1,1.9754,0,2,2,1,1,,,,,
,1.23,,,,,,,,,j,red,5c5a5234819b0c0001704f23,2021-09-27_12h17.45.561,forced_choiceRT_color,2021.2.3,MacIntel,59.95203837,,,,,,,,5,Ontime,short,j,1,2.0365,0,3,3,2,1,,,,,
,1.37,,,,,,,,,k,purple,5c5a5234819b0c0001704f23,2021-09-27_12h17.45.561,forced_choiceRT_color,2021.2.3,MacIntel,59.95203837,,,,,,,,5,Ontime,short,k,1,2.0307,1,0,4,3,1,,,,,
,1.3,,,,,,,,,f,blue,5c5a5234819b0c0001704f23,2021-09-27_12h17.45.561,forced_choiceRT_color,2021.2.3,MacIntel,59.95203837,,,,,,,,5,Ontime,short,f,1,1.9735,1,1,5,1,1,,,,,
,0.43,,,,,,,,,j,red,5c5a5234819b0c0001704f23,2021-09-27_12h17.45.561,forced_choiceRT_color,2021.2.3,MacIntel,59.95203837,,,,,,,,5,Ontime,short,j,1,2.0435,1,2,6,2,1,,,,,
,1.7,,,,,,,,,d,orange,5c5a5234819b0c0001704f23,2021-09-27_12h17.45.561,forced_choiceRT_color,2021.2.3,MacIntel,59.95203837,,,,,,,,5,Ontime,short,f,0,1.9912,1,3,7,0,1,,,,,
,0.42,,,,,,,,,j,red,5c5a5234819b0c0001704f23,2021-09-27_12h17.45.561,forced_choiceRT_color,2021.2.3,MacIntel,59.95203837,,,,,,,,5,Ontime,short,j,1,2.0121,2,0,8,2,1,,,,,
,1.67,,,,,,,,,k,purple,5c5a5234819b0c0001704f23,2021-09-27_12h17.45.561,forced_choiceRT_color,2021.2.3,MacIntel,59.95203837,,,,,,,,5,Ontime,short,j,0,1.9543,2,1,9,3,1,,,,,
,1.85,,,,,,,,,d,orange,5c5a5234819b0c0001704f23,2021-09-27_12h17.45.561,forced_choiceRT_color,2021.2.3,MacIntel,59.95203837,,,,,,,,5,Ontime,short,d,1,1.9863,2,2,10,0,1,,,,,
,0.37,,,,,,,,,j,red,5c5a5234819b0c0001704f23,2021-09-27_12h17.45.561,forced_choiceRT_color,2021.2.3,MacIntel,59.95203837,,,,,,,,5,Ontime,short,j,1,1.9392,2,3,11,2,1,,,,,
,0.03,,,,,,,,,k,purple,5c5a5234819b0c0001704f23,2021-09-27_12h17.45.561,forced_choiceRT_color,2021.2.3,MacIntel,59.95203837,,,,,,,,5,Ontime,short,k,1,1.9249,3,0,12,3,1,,,,,
,1.37,,,,,,,,,j,red,5c5a5234819b0c0001704f23,2021-09-27_12h17.45.561,forced_choiceRT_color,2021.2.3,MacIntel,59.95203837,,,,,,,,5,Fast,short,f,0,1.8116,3,1,13,2,1,,,,,
,0.32,,,,,,,,,k,purple,5c5a5234819b0c0001704f23,2021-09-27_12h17.45.561,forced_choiceRT_color,2021.2.3,MacIntel,59.95203837,,,,,,,,5,Fast,short,k,1,1.6743,3,2,14,3,1,,,,,
,1.24,,,,,,,,,f,blue,5c5a5234819b0c0001704f23,2021-09-27_12h17.45.561,forced_choiceRT_color,2021.2.3,MacIntel,59.95203837,,,,,,,,5,Slow,short,f,1,2.103,3,3,15,1,1,,,,,
,0.21,,,,,,,,,k,purple,5c5a5234819b0c0001704f23,2021-09-27_12h17.45.561,forced_choiceRT_color,2021.2.3,MacIntel,59.95203837,,,,,,,,5,Ontime,short,k,1,1.9625,4,0,16,3,1,,,,,
,0.77,,,,,,,,,f,blue,5c5a5234819b0c0001704f23,2021-09-27_12h17.45.561,forced_choiceRT_color,2021.2.3,MacIntel,59.95203837,,,,,,,,5,Ontime,short,f,1,1.9293,4,1,17,1,1,,,,,
,0.36,,,,,,,,,d,orange,5c5a5234819b0c0001704f23,2021-09-27_12h17.45.561,forced_choiceRT_color,2021.2.3,MacIntel,59.95203837,,,,,,,,5,Ontime,short,d,1,1.9543,4,2,18,0,1,,,,,
,0.19,,,,,,,,,k,purple,5c5a5234819b0c0001704f23,2021-09-27_12h17.45.561,forced_choiceRT_color,2021.2.3,MacIntel,59.95203837,,,,,,,,5,Ontime,short,k,1,2.0068,4,3,19,3,1,,,,,
,0.89,,,,,,,,,j,red,5c5a5234819b0c0001704f23,2021-09-27_12h17.45.561,forced_choiceRT_color,2021.2.3,MacIntel,59.95203837,,,,,,,,5,Ontime,short,j,1,1.9936,5,0,20,2,1,,,,,
,0.35,,,,,,,,,f,blue,5c5a5234819b0c0001704f23,2021-09-27_12h17.45.561,forced_choiceRT_color,2021.2.3,MacIntel,59.95203837,,,,,,,,5,Fast,short,f,1,0.0581,5,1,21,1,1,,,,,
,1.67,,,,,,,,,d,orange,5c5a5234819b0c0001704f23,2021-09-27_12h17.45.561,forced_choiceRT_color,2021.2.3,MacIntel,59.95203837,,,,,,,,5,Ontime,short,j,0,1.9745,5,2,22,0,1,,,,,
,1.23,,,,,,,,,k,purple,5c5a5234819b0c0001704f23,2021-09-27_12h17.45.561,forced_choiceRT_color,2021.2.3,MacIntel,59.95203837,,,,,,,,5,Ontime,short,k,1,2.012,5,3,23,3,1,,,,,
,1.93,,,,,,,,,f,blue,5c5a5234819b0c0001704f23,2021-09-27_12h17.45.561,forced_choiceRT_color,2021.2.3,MacIntel,59.95203837,,,,,,,,5,Ontime,short,k,0,2.0613,6,0,24,1,1,,,,,
,1.27,,,,,,,,,j,red,5c5a5234819b0c0001704f23,2021-09-27_12h17.45.561,forced_choiceRT_color,2021.2.3,MacIntel,59.95203837,,,,,,,,5,Ontime,short,j,1,2.0424,6,1,25,2,1,,,,,
,0.81,,,,,,,,,d,orange,5c5a5234819b0c0001704f23,2021-09-27_12h17.45.561,forced_choiceRT_color,2021.2.3,MacIntel,59.95203837,,,,,,,,5,Ontime,short,d,1,1.9728,6,2,26,0,1,,,,,
,0.28,,,,,,,,,d,orange,5c5a5234819b0c0001704f23,2021-09-27_12h17.45.561,forced_choiceRT_color,2021.2.3,MacIntel,59.95203837,,,,,,,,5,Ontime,short,d,1,2.0566,6,3,27,0,1,,,,,
,0.16,,,,,,,,,d,orange,5c5a5234819b0c0001704f23,2021-09-27_12h17.45.561,forced_choiceRT_color,2021.2.3,MacIntel,59.95203837,,,,,,,,5,Ontime,short,d,1,1.9712,7,0,28,0,1,,,,,
,0.01,,,,,,,,,d,orange,5c5a5234819b0c0001704f23,2021-09-27_12h17.45.561,forced_choiceRT_color,2021.2.3,MacIntel,59.95203837,,,,,,,,5,Ontime,short,d,1,1.9643,7,1,29,0,1,,,,,
,0.89,,,,,,,,,j,red,5c5a5234819b0c0001704f23,2021-09-27_12h17.45.561,forced_choiceRT_color,2021.2.3,MacIntel,59.95203837,,,,,,,,5,Ontime,short,j,1,1.9538,7,2,30,2,1,,,,,
,0.16,,,,,,,,,f,blue,5c5a5234819b0c0001704f23,2021-09-27_12h17.45.561,forced_choiceRT_color,2021.2.3,MacIntel,59.95203837,,,,,,,,5,Ontime,short,f,1,1.939,7,3,31,1,1,,,,,
,0.25,,,,,,,,,d,orange,5c5a5234819b0c0001704f23,2021-09-27_12h17.45.561,forced_choiceRT_color,2021.2.3,MacIntel,59.95203837,,,,,,,,5,Ontime,short,d,1,1.9931,8,0,32,0,1,,,,,
,0.5,,,,,,,,,j,red,5c5a5234819b0c0001704f23,2021-09-27_12h17.45.561,forced_choiceRT_color,2021.2.3,MacIntel,59.95203837,,,,,,,,5,Ontime,short,j,1,2.0197,8,1,33,2,1,,,,,
,1.11,,,,,,,,,k,purple,5c5a5234819b0c0001704f23,2021-09-27_12h17.45.561,forced_choiceRT_color,2021.2.3,MacIntel,59.95203837,,,,,,,,5,Ontime,short,k,1,1.9422,8,2,34,3,1,,,,,
,0.53,,,,,,,,,f,blue,5c5a5234819b0c0001704f23,2021-09-27_12h17.45.561,forced_choiceRT_color,2021.2.3,MacIntel,59.95203837,,,,,,,,5,Ontime,short,f,1,1.9431,8,3,35,1,1,,,,,
,1.13,,,,,,,,,k,purple,5c5a5234819b0c0001704f23,2021-09-27_12h17.45.561,forced_choiceRT_color,2021.2.3,MacIntel,59.95203837,,,,,,,,5,Ontime,short,k,1,1.9553,9,0,36,3,1,,,,,
,0.53,,,,,,,,,j,red,5c5a5234819b0c0001704f23,2021-09-27_12h17.45.561,forced_choiceRT_color,2021.2.3,MacIntel,59.95203837,,,,,,,,5,Ontime,short,j,1,1.9866,9,1,37,2,1,,,,,
,1,,,,,,,,,f,blue,5c5a5234819b0c0001704f23,2021-09-27_12h17.45.561,forced_choiceRT_color,2021.2.3,MacIntel,59.95203837,,,,,,,,5,Ontime,short,f,1,2.0552,9,2,38,1,1,,,,,
,1.89,,,,,,,,,k,purple,5c5a5234819b0c0001704f23,2021-09-27_12h17.45.561,forced_choiceRT_color,2021.2.3,MacIntel,59.95203837,,,,,,,,5,Ontime,short,f,0,1.965,9,3,39,3,1,,,,,
,,,,,,,,,,,,5c5a5234819b0c0001704f23,2021-09-27_12h17.45.561,forced_choiceRT_color,2021.2.3,MacIntel,59.95203837,,,,,,,,,,,,,,,,,,,4,0,4,0,1
,1.05,,,,,,,,,j,red,5c5a5234819b0c0001704f23,2021-09-27_12h17.45.561,forced_choiceRT_color,2021.2.3,MacIntel,59.95203837,,,,,,,,6,Ontime,short,j,1,1.9193,0,0,0,2,1,,,,,
,1.5,,,,,,,,,j,red,5c5a5234819b0c0001704f23,2021-09-27_12h17.45.561,forced_choiceRT_color,2021.2.3,MacIntel,59.95203837,,,,,,,,6,Fast,short,j,1,1.8749,0,1,1,2,1,,,,,
,1.77,,,,,,,,,j,red,5c5a5234819b0c0001704f23,2021-09-27_12h17.45.561,forced_choiceRT_color,2021.2.3,MacIntel,59.95203837,,,,,,,,6,Fast,short,k,0,1.8888,0,2,2,2,1,,,,,
,1.17,,,,,,,,,f,blue,5c5a5234819b0c0001704f23,2021-09-27_12h17.45.561,forced_choiceRT_color,2021.2.3,MacIntel,59.95203837,,,,,,,,6,Ontime,short,f,1,1.9787,0,3,3,1,1,,,,,
,1.98,,,,,,,,,j,red,5c5a5234819b0c0001704f23,2021-09-27_12h17.45.561,forced_choiceRT_color,2021.2.3,MacIntel,59.95203837,,,,,,,,6,Slow,short,f,0,2.2034,1,0,4,2,1,,,,,
,1.02,,,,,,,,,d,orange,5c5a5234819b0c0001704f23,2021-09-27_12h17.45.561,forced_choiceRT_color,2021.2.3,MacIntel,59.95203837,,,,,,,,6,Ontime,short,d,1,1.9751,1,1,5,0,1,,,,,
,0.23,,,,,,,,,f,blue,5c5a5234819b0c0001704f23,2021-09-27_12h17.45.561,forced_choiceRT_color,2021.2.3,MacIntel,59.95203837,,,,,,,,6,Ontime,short,f,1,1.9261,1,2,6,1,1,,,,,
,0.74,,,,,,,,,f,blue,5c5a5234819b0c0001704f23,2021-09-27_12h17.45.561,forced_choiceRT_color,2021.2.3,MacIntel,59.95203837,,,,,,,,6,Ontime,short,f,1,1.9257,1,3,7,1,1,,,,,
,1.78,,,,,,,,,k,purple,5c5a5234819b0c0001704f23,2021-09-27_12h17.45.561,forced_choiceRT_color,2021.2.3,MacIntel,59.95203837,,,,,,,,6,Ontime,short,f,0,2.0206,2,0,8,3,1,,,,,
,0.02,,,,,,,,,f,blue,5c5a5234819b0c0001704f23,2021-09-27_12h17.45.561,forced_choiceRT_color,2021.2.3,MacIntel,59.95203837,,,,,,,,6,Ontime,short,f,1,1.9212,2,1,9,1,1,,,,,
,1.9,,,,,,,,,f,blue,5c5a5234819b0c0001704f23,2021-09-27_12h17.45.561,forced_choiceRT_color,2021.2.3,MacIntel,59.95203837,,,,,,,,6,Fast,short,d,0,1.7863,2,2,10,1,1,,,,,
,1.93,,,,,,,,,d,orange,5c5a5234819b0c0001704f23,2021-09-27_12h17.45.561,forced_choiceRT_color,2021.2.3,MacIntel,59.95203837,,,,,,,,6,Ontime,short,f,0,1.9572,2,3,11,0,1,,,,,
,1.23,,,,,,,,,k,purple,5c5a5234819b0c0001704f23,2021-09-27_12h17.45.561,forced_choiceRT_color,2021.2.3,MacIntel,59.95203837,,,,,,,,6,Ontime,short,k,1,1.9904,3,0,12,3,1,,,,,
,0.8,,,,,,,,,f,blue,5c5a5234819b0c0001704f23,2021-09-27_12h17.45.561,forced_choiceRT_color,2021.2.3,MacIntel,59.95203837,,,,,,,,6,Ontime,short,d,0,1.9046,3,1,13,1,1,,,,,
,1.65,,,,,,,,,k,purple,5c5a5234819b0c0001704f23,2021-09-27_12h17.45.561,forced_choiceRT_color,2021.2.3,MacIntel,59.95203837,,,,,,,,6,Slow,short,k,1,2.2585,3,2,14,3,1,,,,,
,0.4,,,,,,,,,j,red,5c5a5234819b0c0001704f23,2021-09-27_12h17.45.561,forced_choiceRT_color,2021.2.3,MacIntel,59.95203837,,,,,,,,6,Ontime,short,j,1,2.0392,3,3,15,2,1,,,,,
,0.57,,,,,,,,,d,orange,5c5a5234819b0c0001704f23,2021-09-27_12h17.45.561,forced_choiceRT_color,2021.2.3,MacIntel,59.95203837,,,,,,,,6,Ontime,short,f,0,1.9607,4,0,16,0,1,,,,,
,0.25,,,,,,,,,j,red,5c5a5234819b0c0001704f23,2021-09-27_12h17.45.561,forced_choiceRT_color,2021.2.3,MacIntel,59.95203837,,,,,,,,6,Ontime,short,j,1,1.9535,4,1,17,2,1,,,,,
,1.45,,,,,,,,,k,purple,5c5a5234819b0c0001704f23,2021-09-27_12h17.45.561,forced_choiceRT_color,2021.2.3,MacIntel,59.95203837,,,,,,,,6,Ontime,short,f,0,1.9641,4,2,18,3,1,,,,,
,1.82,,,,,,,,,f,blue,5c5a5234819b0c0001704f23,2021-09-27_12h17.45.561,forced_choiceRT_color,2021.2.3,MacIntel,59.95203837,,,,,,,,6,Ontime,short,j,0,1.9742,4,3,19,1,1,,,,,
,0.2,,,,,,,,,k,purple,5c5a5234819b0c0001704f23,2021-09-27_12h17.45.561,forced_choiceRT_color,2021.2.3,MacIntel,59.95203837,,,,,,,,6,Ontime,short,k,1,1.9033,5,0,20,3,1,,,,,
,0.26,,,,,,,,,d,orange,5c5a5234819b0c0001704f23,2021-09-27_12h17.45.561,forced_choiceRT_color,2021.2.3,MacIntel,59.95203837,,,,,,,,6,Ontime,short,d,1,1.9419,5,1,21,0,1,,,,,
,0.94,,,,,,,,,j,red,5c5a5234819b0c0001704f23,2021-09-27_12h17.45.561,forced_choiceRT_color,2021.2.3,MacIntel,59.95203837,,,,,,,,6,Ontime,short,j,1,1.9465,5,2,22,2,1,,,,,
,1.65,,,,,,,,,d,orange,5c5a5234819b0c0001704f23,2021-09-27_12h17.45.561,forced_choiceRT_color,2021.2.3,MacIntel,59.95203837,,,,,,,,6,Ontime,short,f,0,1.9586,5,3,23,0,1,,,,,
,0.93,,,,,,,,,j,red,5c5a5234819b0c0001704f23,2021-09-27_12h17.45.561,forced_choiceRT_color,2021.2.3,MacIntel,59.95203837,,,,,,,,6,Ontime,short,j,1,1.9901,6,0,24,2,1,,,,,
,1.6,,,,,,,,,k,purple,5c5a5234819b0c0001704f23,2021-09-27_12h17.45.561,forced_choiceRT_color,2021.2.3,MacIntel,59.95203837,,,,,,,,6,Ontime,short,j,0,2.0127,6,1,25,3,1,,,,,
,0.54,,,,,,,,,k,purple,5c5a5234819b0c0001704f23,2021-09-27_12h17.45.561,forced_choiceRT_color,2021.2.3,MacIntel,59.95203837,,,,,,,,6,Ontime,short,k,1,1.9061,6,2,26,3,1,,,,,
,1.37,,,,,,,,,k,purple,5c5a5234819b0c0001704f23,2021-09-27_12h17.45.561,forced_choiceRT_color,2021.2.3,MacIntel,59.95203837,,,,,,,,6,Ontime,short,k,1,1.9019,6,3,27,3,1,,,,,
,0.36,,,,,,,,,f,blue,5c5a5234819b0c0001704f23,2021-09-27_12h17.45.561,forced_choiceRT_color,2021.2.3,MacIntel,59.95203837,,,,,,,,6,Ontime,short,f,1,1.9591,7,0,28,1,1,,,,,
,1.55,,,,,,,,,d,orange,5c5a5234819b0c0001704f23,2021-09-27_12h17.45.561,forced_choiceRT_color,2021.2.3,MacIntel,59.95203837,,,,,,,,6,Fast,short,d,1,1.7045,7,1,29,0,1,,,,,
,0.37,,,,,,,,,d,orange,5c5a5234819b0c0001704f23,2021-09-27_12h17.45.561,forced_choiceRT_color,2021.2.3,MacIntel,59.95203837,,,,,,,,6,Fast,short,d,1,1.8888,7,2,30,0,1,,,,,
,0.78,,,,,,,,,j,red,5c5a5234819b0c0001704f23,2021-09-27_12h17.45.561,forced_choiceRT_color,2021.2.3,MacIntel,59.95203837,,,,,,,,6,Ontime,short,j,1,1.9991,7,3,31,2,1,,,,,
,1.45,,,,,,,,,j,red,5c5a5234819b0c0001704f23,2021-09-27_12h17.45.561,forced_choiceRT_color,2021.2.3,MacIntel,59.95203837,,,,,,,,6,Slow,short,j,1,2.1281,8,0,32,2,1,,,,,
,0.73,,,,,,,,,k,purple,5c5a5234819b0c0001704f23,2021-09-27_12h17.45.561,forced_choiceRT_color,2021.2.3,MacIntel,59.95203837,,,,,,,,6,Fast,short,k,1,1.7541,8,1,33,3,1,,,,,
,0.52,,,,,,,,,d,orange,5c5a5234819b0c0001704f23,2021-09-27_12h17.45.561,forced_choiceRT_color,2021.2.3,MacIntel,59.95203837,,,,,,,,6,Ontime,short,f,0,1.9775,8,2,34,0,1,,,,,
,0.51,,,,,,,,,f,blue,5c5a5234819b0c0001704f23,2021-09-27_12h17.45.561,forced_choiceRT_color,2021.2.3,MacIntel,59.95203837,,,,,,,,6,Ontime,short,j,0,1.9262,8,3,35,1,1,,,,,
,1.05,,,,,,,,,f,blue,5c5a5234819b0c0001704f23,2021-09-27_12h17.45.561,forced_choiceRT_color,2021.2.3,MacIntel,59.95203837,,,,,,,,6,Ontime,short,f,1,2.0875,9,0,36,1,1,,,,,
,0.81,,,,,,,,,d,orange,5c5a5234819b0c0001704f23,2021-09-27_12h17.45.561,forced_choiceRT_color,2021.2.3,MacIntel,59.95203837,,,,,,,,6,Fast,short,d,1,1.8536,9,1,37,0,1,,,,,
,1.51,,,,,,,,,d,orange,5c5a5234819b0c0001704f23,2021-09-27_12h17.45.561,forced_choiceRT_color,2021.2.3,MacIntel,59.95203837,,,,,,,,6,Slow,short,d,1,2.303,9,2,38,0,1,,,,,
,0.65,,,,,,,,,k,purple,5c5a5234819b0c0001704f23,2021-09-27_12h17.45.561,forced_choiceRT_color,2021.2.3,MacIntel,59.95203837,,,,,,,,6,Ontime,short,k,1,1.9226,9,3,39,3,1,,,,,
,,,,,,,,,,,,5c5a5234819b0c0001704f23,2021-09-27_12h17.45.561,forced_choiceRT_color,2021.2.3,MacIntel,59.95203837,,,,,,,,,,,,,,,,,,,5,0,5,0,1
,0.01,,,,,,,,,j,red,5c5a5234819b0c0001704f23,2021-09-27_12h17.45.561,forced_choiceRT_color,2021.2.3,MacIntel,59.95203837,,,,,,,,7,Fast,short,j,1,1.8912,0,0,0,2,1,,,,,
,1.45,,,,,,,,,d,orange,5c5a5234819b0c0001704f23,2021-09-27_12h17.45.561,forced_choiceRT_color,2021.2.3,MacIntel,59.95203837,,,,,,,,7,Slow,short,d,1,2.2188,0,1,1,0,1,,,,,
,0.36,,,,,,,,,j,red,5c5a5234819b0c0001704f23,2021-09-27_12h17.45.561,forced_choiceRT_color,2021.2.3,MacIntel,59.95203837,,,,,,,,7,Ontime,short,j,1,1.9369,0,2,2,2,1,,,,,
,1.99,,,,,,,,,f,blue,5c5a5234819b0c0001704f23,2021-09-27_12h17.45.561,forced_choiceRT_color,2021.2.3,MacIntel,59.95203837,,,,,,,,7,Ontime,short,j,0,1.9845,0,3,3,1,1,,,,,
,0.52,,,,,,,,,j,red,5c5a5234819b0c0001704f23,2021-09-27_12h17.45.561,forced_choiceRT_color,2021.2.3,MacIntel,59.95203837,,,,,,,,7,Ontime,short,j,1,1.9409,1,0,4,2,1,,,,,
,1.02,,,,,,,,,k,purple,5c5a5234819b0c0001704f23,2021-09-27_12h17.45.561,forced_choiceRT_color,2021.2.3,MacIntel,59.95203837,,,,,,,,7,Ontime,short,k,1,2.0145,1,1,5,3,1,,,,,
,1.88,,,,,,,,,f,blue,5c5a5234819b0c0001704f23,2021-09-27_12h17.45.561,forced_choiceRT_color,2021.2.3,MacIntel,59.95203837,,,,,,,,7,Fast,short,j,0,1.8838,1,2,6,1,1,,,,,
,1.84,,,,,,,,,j,red,5c5a5234819b0c0001704f23,2021-09-27_12h17.45.561,forced_choiceRT_color,2021.2.3,MacIntel,59.95203837,,,,,,,,7,Ontime,short,j,1,2.0734,1,3,7,2,1,,,,,
,1.91,,,,,,,,,f,blue,5c5a5234819b0c0001704f23,2021-09-27_12h17.45.561,forced_choiceRT_color,2021.2.3,MacIntel,59.95203837,,,,,,,,7,Slow,short,j,0,2.1736,2,0,8,1,1,,,,,
,1.44,,,,,,,,,f,blue,5c5a5234819b0c0001704f23,2021-09-27_12h17.45.561,forced_choiceRT_color,2021.2.3,MacIntel,59.95203837,,,,,,,,7,Fast,short,d,0,1.8812,2,1,9,1,1,,,,,
,1.38,,,,,,,,,j,red,5c5a5234819b0c0001704f23,2021-09-27_12h17.45.561,forced_choiceRT_color,2021.2.3,MacIntel,59.95203837,,,,,,,,7,Fast,short,j,1,1.8571,2,2,10,2,1,,,,,
,0.41,,,,,,,,,d,orange,5c5a5234819b0c0001704f23,2021-09-27_12h17.45.561,forced_choiceRT_color,2021.2.3,MacIntel,59.95203837,,,,,,,,7,Ontime,short,d,1,1.9411,2,3,11,0,1,,,,,
,0.13,,,,,,,,,j,red,5c5a5234819b0c0001704f23,2021-09-27_12h17.45.561,forced_choiceRT_color,2021.2.3,MacIntel,59.95203837,,,,,,,,7,Ontime,short,j,1,2.0566,3,0,12,2,1,,,,,
,0.64,,,,,,,,,k,purple,5c5a5234819b0c0001704f23,2021-09-27_12h17.45.561,forced_choiceRT_color,2021.2.3,MacIntel,59.95203837,,,,,,,,7,Slow,short,k,1,2.1738,3,1,13,3,1,,,,,
,0.12,,,,,,,,,d,orange,5c5a5234819b0c0001704f23,2021-09-27_12h17.45.561,forced_choiceRT_color,2021.2.3,MacIntel,59.95203837,,,,,,,,7,Fast,short,d,1,1.773,3,2,14,0,1,,,,,
,0.78,,,,,,,,,f,blue,5c5a5234819b0c0001704f23,2021-09-27_12h17.45.561,forced_choiceRT_color,2021.2.3,MacIntel,59.95203837,,,,,,,,7,Fast,short,j,0,1.8419,3,3,15,1,1,,,,,
,1.1,,,,,,,,,d,orange,5c5a5234819b0c0001704f23,2021-09-27_12h17.45.561,forced_choiceRT_color,2021.2.3,MacIntel,59.95203837,,,,,,,,7,Ontime,short,d,1,2.0067,4,0,16,0,1,,,,,
,1.7,,,,,,,,,k,purple,5c5a5234819b0c0001704f23,2021-09-27_12h17.45.561,forced_choiceRT_color,2021.2.3,MacIntel,59.95203837,,,,,,,,7,Ontime,short,d,0,1.9251,4,1,17,3,1,,,,,
,1.17,,,,,,,,,j,red,5c5a5234819b0c0001704f23,2021-09-27_12h17.45.561,forced_choiceRT_color,2021.2.3,MacIntel,59.95203837,,,,,,,,7,Ontime,short,j,1,1.9271,4,2,18,2,1,,,,,
,0.24,,,,,,,,,d,orange,5c5a5234819b0c0001704f23,2021-09-27_12h17.45.561,forced_choiceRT_color,2021.2.3,MacIntel,59.95203837,,,,,,,,7,Ontime,short,d,1,2.04,4,3,19,0,1,,,,,
,0.13,,,,,,,,,j,red,5c5a5234819b0c0001704f23,2021-09-27_12h17.45.561,forced_choiceRT_color,2021.2.3,MacIntel,59.95203837,,,,,,,,7,Fast,short,j,1,1.8368,5,0,20,2,1,,,,,
,0.07,,,,,,,,,d,orange,5c5a5234819b0c0001704f23,2021-09-27_12h17.45.561,forced_choiceRT_color,2021.2.3,MacIntel,59.95203837,,,,,,,,7,Ontime,short,d,1,1.9617,5,1,21,0,1,,,,,
,0.98,,,,,,,,,f,blue,5c5a5234819b0c0001704f23,2021-09-27_12h17.45.561,forced_choiceRT_color,2021.2.3,MacIntel,59.95203837,,,,,,,,7,Fast,short,d,0,1.8856,5,2,22,1,1,,,,,
,1.63,,,,,,,,,d,orange,5c5a5234819b0c0001704f23,2021-09-27_12h17.45.561,forced_choiceRT_color,2021.2.3,MacIntel,59.95203837,,,,,,,,7,Ontime,short,f,0,2.0034,5,3,23,0,1,,,,,
,0.08,,,,,,,,,f,blue,5c5a5234819b0c0001704f23,2021-09-27_12h17.45.561,forced_choiceRT_color,2021.2.3,MacIntel,59.95203837,,,,,,,,7,Ontime,short,f,1,1.9626,6,0,24,1,1,,,,,
,0.88,,,,,,,,,k,purple,5c5a5234819b0c0001704f23,2021-09-27_12h17.45.561,forced_choiceRT_color,2021.2.3,MacIntel,59.95203837,,,,,,,,7,Slow,short,j,0,7.9632,6,1,25,3,1,,,,,
,1.93,,,,,,,,,j,red,5c5a5234819b0c0001704f23,2021-09-27_12h17.45.561,forced_choiceRT_color,2021.2.3,MacIntel,59.95203837,,,,,,,,7,Slow,short,k,0,2.1334,6,2,26,2,1,,,,,
,0.09,,,,,,,,,f,blue,5c5a5234819b0c0001704f23,2021-09-27_12h17.45.561,forced_choiceRT_color,2021.2.3,MacIntel,59.95203837,,,,,,,,7,Fast,short,f,1,1.8562,6,3,27,1,1,,,,,
,0.36,,,,,,,,,k,purple,5c5a5234819b0c0001704f23,2021-09-27_12h17.45.561,forced_choiceRT_color,2021.2.3,MacIntel,59.95203837,,,,,,,,7,Slow,short,j,0,2.1099,7,0,28,3,1,,,,,
,1.46,,,,,,,,,k,purple,5c5a5234819b0c0001704f23,2021-09-27_12h17.45.561,forced_choiceRT_color,2021.2.3,MacIntel,59.95203837,,,,,,,,7,Ontime,short,k,1,2.0222,7,1,29,3,1,,,,,
,1.82,,,,,,,,,j,red,5c5a5234819b0c0001704f23,2021-09-27_12h17.45.561,forced_choiceRT_color,2021.2.3,MacIntel,59.95203837,,,,,,,,7,Slow,short,k,0,2.1642,7,2,30,2,1,,,,,
,1.96,,,,,,,,,k,purple,5c5a5234819b0c0001704f23,2021-09-27_12h17.45.561,forced_choiceRT_color,2021.2.3,MacIntel,59.95203837,,,,,,,,7,Ontime,short,f,0,1.9457,7,3,31,3,1,,,,,
,0.78,,,,,,,,,d,orange,5c5a5234819b0c0001704f23,2021-09-27_12h17.45.561,forced_choiceRT_color,2021.2.3,MacIntel,59.95203837,,,,,,,,7,Ontime,short,d,1,1.926,8,0,32,0,1,,,,,
,0.57,,,,,,,,,f,blue,5c5a5234819b0c0001704f23,2021-09-27_12h17.45.561,forced_choiceRT_color,2021.2.3,MacIntel,59.95203837,,,,,,,,7,Ontime,short,f,1,2.0758,8,1,33,1,1,,,,,
,0.41,,,,,,,,,d,orange,5c5a5234819b0c0001704f23,2021-09-27_12h17.45.561,forced_choiceRT_color,2021.2.3,MacIntel,59.95203837,,,,,,,,7,Ontime,short,d,1,2.0645,8,2,34,0,1,,,,,
,1.5,,,,,,,,,d,orange,5c5a5234819b0c0001704f23,2021-09-27_12h17.45.561,forced_choiceRT_color,2021.2.3,MacIntel,59.95203837,,,,,,,,7,Slow,short,d,1,2.1361,8,3,35,0,1,,,,,
,0.58,,,,,,,,,k,purple,5c5a5234819b0c0001704f23,2021-09-27_12h17.45.561,forced_choiceRT_color,2021.2.3,MacIntel,59.95203837,,,,,,,,7,Ontime,short,k,1,2.0714,9,0,36,3,1,,,,,
,0.6,,,,,,,,,k,purple,5c5a5234819b0c0001704f23,2021-09-27_12h17.45.561,forced_choiceRT_color,2021.2.3,MacIntel,59.95203837,,,,,,,,7,Ontime,short,k,1,1.99,9,1,37,3,1,,,,,
,0.52,,,,,,,,,f,blue,5c5a5234819b0c0001704f23,2021-09-27_12h17.45.561,forced_choiceRT_color,2021.2.3,MacIntel,59.95203837,,,,,,,,7,Fast,short,f,1,1.8806,9,2,38,1,1,,,,,
,0.5,,,,,,,,,k,purple,5c5a5234819b0c0001704f23,2021-09-27_12h17.45.561,forced_choiceRT_color,2021.2.3,MacIntel,59.95203837,,,,,,,,7,Fast,short,k,1,1.8201,9,3,39,3,1,,,,,
,,,,,,,,,,,,5c5a5234819b0c0001704f23,2021-09-27_12h17.45.561,forced_choiceRT_color,2021.2.3,MacIntel,59.95203837,,,,,,,,,,,,,,,,,,,6,0,6,0,1
,0.82,,,,,,,,,k,purple,5c5a5234819b0c0001704f23,2021-09-27_12h17.45.561,forced_choiceRT_color,2021.2.3,MacIntel,59.95203837,,,,,,,,8,Ontime,short,k,1,1.9356,0,0,0,3,1,,,,,
,0.87,,,,,,,,,j,red,5c5a5234819b0c0001704f23,2021-09-27_12h17.45.561,forced_choiceRT_color,2021.2.3,MacIntel,59.95203837,,,,,,,,8,Fast,short,d,0,1.876,0,1,1,2,1,,,,,
,1.57,,,,,,,,,d,orange,5c5a5234819b0c0001704f23,2021-09-27_12h17.45.561,forced_choiceRT_color,2021.2.3,MacIntel,59.95203837,,,,,,,,8,Slow,short,d,1,2.1253,0,2,2,0,1,,,,,
,0.83,,,,,,,,,k,purple,5c5a5234819b0c0001704f23,2021-09-27_12h17.45.561,forced_choiceRT_color,2021.2.3,MacIntel,59.95203837,,,,,,,,8,Ontime,short,d,0,2.0528,0,3,3,3,1,,,,,
,0.82,,,,,,,,,f,blue,5c5a5234819b0c0001704f23,2021-09-27_12h17.45.561,forced_choiceRT_color,2021.2.3,MacIntel,59.95203837,,,,,,,,8,Slow,short,j,0,2.1037,1,0,4,1,1,,,,,
,0.7,,,,,,,,,d,orange,5c5a5234819b0c0001704f23,2021-09-27_12h17.45.561,forced_choiceRT_color,2021.2.3,MacIntel,59.95203837,,,,,,,,8,Fast,short,j,0,1.8025,1,1,5,0,1,,,,,
,1.62,,,,,,,,,f,blue,5c5a5234819b0c0001704f23,2021-09-27_12h17.45.561,forced_choiceRT_color,2021.2.3,MacIntel,59.95203837,,,,,,,,8,Ontime,short,j,0,2.0399,1,2,6,1,1,,,,,
,1.38,,,,,,,,,d,orange,5c5a5234819b0c0001704f23,2021-09-27_12h17.45.561,forced_choiceRT_color,2021.2.3,MacIntel,59.95203837,,,,,,,,8,Slow,short,f,0,2.3699,1,3,7,0,1,,,,,
,0.02,,,,,,,,,k,purple,5c5a5234819b0c0001704f23,2021-09-27_12h17.45.561,forced_choiceRT_color,2021.2.3,MacIntel,59.95203837,,,,,,,,8,Ontime,short,k,1,1.9358,2,0,8,3,1,,,,,
,0.52,,,,,,,,,f,blue,5c5a5234819b0c0001704f23,2021-09-27_12h17.45.561,forced_choiceRT_color,2021.2.3,MacIntel,59.95203837,,,,,,,,8,Slow,short,f,1,2.1251,2,1,9,1,1,,,,,
,1.66,,,,,,,,,j,red,5c5a5234819b0c0001704f23,2021-09-27_12h17.45.561,forced_choiceRT_color,2021.2.3,MacIntel,59.95203837,,,,,,,,8,Ontime,short,f,0,2.0954,2,2,10,2,1,,,,,
,1.13,,,,,,,,,j,red,5c5a5234819b0c0001704f23,2021-09-27_12h17.45.561,forced_choiceRT_color,2021.2.3,MacIntel,59.95203837,,,,,,,,8,Ontime,short,f,0,1.91,2,3,11,2,1,,,,,
,1.86,,,,,,,,,k,purple,5c5a5234819b0c0001704f23,2021-09-27_12h17.45.561,forced_choiceRT_color,2021.2.3,MacIntel,59.95203837,,,,,,,,8,Ontime,short,f,0,2.0374,3,0,12,3,1,,,,,
,0.66,,,,,,,,,d,orange,5c5a5234819b0c0001704f23,2021-09-27_12h17.45.561,forced_choiceRT_color,2021.2.3,MacIntel,59.95203837,,,,,,,,8,Fast,short,f,0,1.8953,3,1,13,0,1,,,,,
,1.43,,,,,,,,,d,orange,5c5a5234819b0c0001704f23,2021-09-27_12h17.45.561,forced_choiceRT_color,2021.2.3,MacIntel,59.95203837,,,,,,,,8,Fast,short,d,1,1.7776,3,2,14,0,1,,,,,
,1.05,,,,,,,,,d,orange,5c5a5234819b0c0001704f23,2021-09-27_12h17.45.561,forced_choiceRT_color,2021.2.3,MacIntel,59.95203837,,,,,,,,8,Ontime,short,d,1,2.057,3,3,15,0,1,,,,,
,0.05,,,,,,,,,k,purple,5c5a5234819b0c0001704f23,2021-09-27_12h17.45.561,forced_choiceRT_color,2021.2.3,MacIntel,59.95203837,,,,,,,,8,Ontime,short,k,1,2.0359,4,0,16,3,1,,,,,
,1.53,,,,,,,,,f,blue,5c5a5234819b0c0001704f23,2021-09-27_12h17.45.561,forced_choiceRT_color,2021.2.3,MacIntel,59.95203837,,,,,,,,8,Ontime,short,k,0,1.99,4,1,17,1,1,,,,,
,1.55,,,,,,,,,j,red,5c5a5234819b0c0001704f23,2021-09-27_12h17.45.561,forced_choiceRT_color,2021.2.3,MacIntel,59.95203837,,,,,,,,8,Ontime,short,k,0,1.9044,4,2,18,2,1,,,,,
,0.71,,,,,,,,,j,red,5c5a5234819b0c0001704f23,2021-09-27_12h17.45.561,forced_choiceRT_color,2021.2.3,MacIntel,59.95203837,,,,,,,,8,Slow,short,k,0,2.1192,4,3,19,2,1,,,,,
,1.99,,,,,,,,,j,red,5c5a5234819b0c0001704f23,2021-09-27_12h17.45.561,forced_choiceRT_color,2021.2.3,MacIntel,59.95203837,,,,,,,,8,Ontime,short,k,0,1.92,5,0,20,2,1,,,,,
,1.93,,,,,,,,,j,red,5c5a5234819b0c0001704f23,2021-09-27_12h17.45.561,forced_choiceRT_color,2021.2.3,MacIntel,59.95203837,,,,,,,,8,Ontime,short,k,0,1.9382,5,1,21,2,1,,,,,
,0.63,,,,,,,,,d,orange,5c5a5234819b0c0001704f23,2021-09-27_12h17.45.561,forced_choiceRT_color,2021.2.3,MacIntel,59.95203837,,,,,,,,8,Ontime,short,d,1,2.0573,5,2,22,0,1,,,,,
,0.27,,,,,,,,,f,blue,5c5a5234819b0c0001704f23,2021-09-27_12h17.45.561,forced_choiceRT_color,2021.2.3,MacIntel,59.95203837,,,,,,,,8,Ontime,short,f,1,2.0607,5,3,23,1,1,,,,,
,0.5,,,,,,,,,d,orange,5c5a5234819b0c0001704f23,2021-09-27_12h17.45.561,forced_choiceRT_color,2021.2.3,MacIntel,59.95203837,,,,,,,,8,Ontime,short,d,1,2.02,6,0,24,0,1,,,,,
,0.07,,,,,,,,,d,orange,5c5a5234819b0c0001704f23,2021-09-27_12h17.45.561,forced_choiceRT_color,2021.2.3,MacIntel,59.95203837,,,,,,,,8,Ontime,short,d,1,1.9636,6,1,25,0,1,,,,,
,0.32,,,,,,,,,f,blue,5c5a5234819b0c0001704f23,2021-09-27_12h17.45.561,forced_choiceRT_color,2021.2.3,MacIntel,59.95203837,,,,,,,,8,Ontime,short,f,1,1.9075,6,2,26,1,1,,,,,
,0.88,,,,,,,,,k,purple,5c5a5234819b0c0001704f23,2021-09-27_12h17.45.561,forced_choiceRT_color,2021.2.3,MacIntel,59.95203837,,,,,,,,8,Slow,short,k,1,2.1027,6,3,27,3,1,,,,,
,1.22,,,,,,,,,j,red,5c5a5234819b0c0001704f23,2021-09-27_12h17.45.561,forced_choiceRT_color,2021.2.3,MacIntel,59.95203837,,,,,,,,8,Ontime,short,j,1,2.0043,7,0,28,2,1,,,,,
,1.51,,,,,,,,,j,red,5c5a5234819b0c0001704f23,2021-09-27_12h17.45.561,forced_choiceRT_color,2021.2.3,MacIntel,59.95203837,,,,,,,,8,Ontime,short,j,1,1.9923,7,1,29,2,1,,,,,
,1.57,,,,,,,,,k,purple,5c5a5234819b0c0001704f23,2021-09-27_12h17.45.561,forced_choiceRT_color,2021.2.3,MacIntel,59.95203837,,,,,,,,8,Fast,short,j,0,1.8762,7,2,30,3,1,,,,,
,0.23,,,,,,,,,k,purple,5c5a5234819b0c0001704f23,2021-09-27_12h17.45.561,forced_choiceRT_color,2021.2.3,MacIntel,59.95203837,,,,,,,,8,Fast,short,k,1,1.8833,7,3,31,3,1,,,,,
,0.87,,,,,,,,,k,purple,5c5a5234819b0c0001704f23,2021-09-27_12h17.45.561,forced_choiceRT_color,2021.2.3,MacIntel,59.95203837,,,,,,,,8,Slow,short,k,1,2.1804,8,0,32,3,1,,,,,
,0.95,,,,,,,,,k,purple,5c5a5234819b0c0001704f23,2021-09-27_12h17.45.561,forced_choiceRT_color,2021.2.3,MacIntel,59.95203837,,,,,,,,8,Ontime,short,k,1,2.0387,8,1,33,3,1,,,,,
,1.89,,,,,,,,,f,blue,5c5a5234819b0c0001704f23,2021-09-27_12h17.45.561,forced_choiceRT_color,2021.2.3,MacIntel,59.95203837,,,,,,,,8,Ontime,short,k,0,2.0562,8,2,34,1,1,,,,,
,0.08,,,,,,,,,f,blue,5c5a5234819b0c0001704f23,2021-09-27_12h17.45.561,forced_choiceRT_color,2021.2.3,MacIntel,59.95203837,,,,,,,,8,Ontime,short,f,1,2.0565,8,3,35,1,1,,,,,
,1.57,,,,,,,,,d,orange,5c5a5234819b0c0001704f23,2021-09-27_12h17.45.561,forced_choiceRT_color,2021.2.3,MacIntel,59.95203837,,,,,,,,8,Slow,short,d,1,2.1777,9,0,36,0,1,,,,,
,1.02,,,,,,,,,j,red,5c5a5234819b0c0001704f23,2021-09-27_12h17.45.561,forced_choiceRT_color,2021.2.3,MacIntel,59.95203837,,,,,,,,8,Fast,short,j,1,1.8433,9,1,37,2,1,,,,,
,0.32,,,,,,,,,f,blue,5c5a5234819b0c0001704f23,2021-09-27_12h17.45.561,forced_choiceRT_color,2021.2.3,MacIntel,59.95203837,,,,,,,,8,Fast,short,k,0,1.8925,9,2,38,1,1,,,,,
,1.4,,,,,,,,,f,blue,5c5a5234819b0c0001704f23,2021-09-27_12h17.45.561,forced_choiceRT_color,2021.2.3,MacIntel,59.95203837,,,,,,,,8,Fast,short,f,1,1.7678,9,3,39,1,1,,,,,
,,,,,,,,,,,,5c5a5234819b0c0001704f23,2021-09-27_12h17.45.561,forced_choiceRT_color,2021.2.3,MacIntel,59.95203837,,,,,,,,,,,,,,,,,,,7,0,7,0,1
,0.78,,,,,,,,,k,purple,5c5a5234819b0c0001704f23,2021-09-27_12h17.45.561,forced_choiceRT_color,2021.2.3,MacIntel,59.95203837,,,,,,,,9,Ontime,short,k,1,2.0017,0,0,0,3,1,,,,,
,0.67,,,,,,,,,f,blue,5c5a5234819b0c0001704f23,2021-09-27_12h17.45.561,forced_choiceRT_color,2021.2.3,MacIntel,59.95203837,,,,,,,,9,Ontime,short,f,1,2.0723,0,1,1,1,1,,,,,
,0.11,,,,,,,,,k,purple,5c5a5234819b0c0001704f23,2021-09-27_12h17.45.561,forced_choiceRT_color,2021.2.3,MacIntel,59.95203837,,,,,,,,9,Ontime,short,k,1,2.0594,0,2,2,3,1,,,,,
,0.74,,,,,,,,,d,orange,5c5a5234819b0c0001704f23,2021-09-27_12h17.45.561,forced_choiceRT_color,2021.2.3,MacIntel,59.95203837,,,,,,,,9,Fast,short,d,1,1.8577,0,3,3,0,1,,,,,
,0.81,,,,,,,,,j,red,5c5a5234819b0c0001704f23,2021-09-27_12h17.45.561,forced_choiceRT_color,2021.2.3,MacIntel,59.95203837,,,,,,,,9,Ontime,short,j,1,1.9009,1,0,4,2,1,,,,,
,0.62,,,,,,,,,d,orange,5c5a5234819b0c0001704f23,2021-09-27_12h17.45.561,forced_choiceRT_color,2021.2.3,MacIntel,59.95203837,,,,,,,,9,Fast,short,d,1,1.8675,1,1,5,0,1,,,,,
,0.66,,,,,,,,,j,red,5c5a5234819b0c0001704f23,2021-09-27_12h17.45.561,forced_choiceRT_color,2021.2.3,MacIntel,59.95203837,,,,,,,,9,Slow,short,j,1,2.1249,1,2,6,2,1,,,,,
,1.08,,,,,,,,,d,orange,5c5a5234819b0c0001704f23,2021-09-27_12h17.45.561,forced_choiceRT_color,2021.2.3,MacIntel,59.95203837,,,,,,,,9,Ontime,short,d,1,1.9036,1,3,7,0,1,,,,,
,1.42,,,,,,,,,j,red,5c5a5234819b0c0001704f23,2021-09-27_12h17.45.561,forced_choiceRT_color,2021.2.3,MacIntel,59.95203837,,,,,,,,9,Ontime,short,d,0,1.9216,2,0,8,2,1,,,,,
,0.35,,,,,,,,,f,blue,5c5a5234819b0c0001704f23,2021-09-27_12h17.45.561,forced_choiceRT_color,2021.2.3,MacIntel,59.95203837,,,,,,,,9,Ontime,short,f,1,1.9848,2,1,9,1,1,,,,,
,0.13,,,,,,,,,f,blue,5c5a5234819b0c0001704f23,2021-09-27_12h17.45.561,forced_choiceRT_color,2021.2.3,MacIntel,59.95203837,,,,,,,,9,Fast,short,f,1,1.897,2,2,10,1,1,,,,,
,0.47,,,,,,,,,f,blue,5c5a5234819b0c0001704f23,2021-09-27_12h17.45.561,forced_choiceRT_color,2021.2.3,MacIntel,59.95203837,,,,,,,,9,Fast,short,f,1,1.8715,2,3,11,1,1,,,,,
,1.16,,,,,,,,,d,orange,5c5a5234819b0c0001704f23,2021-09-27_12h17.45.561,forced_choiceRT_color,2021.2.3,MacIntel,59.95203837,,,,,,,,9,Slow,short,f,0,2.141,3,0,12,0,1,,,,,
,1.98,,,,,,,,,j,red,5c5a5234819b0c0001704f23,2021-09-27_12h17.45.561,forced_choiceRT_color,2021.2.3,MacIntel,59.95203837,,,,,,,,9,Fast,short,d,0,1.8754,3,1,13,2,1,,,,,
,1.27,,,,,,,,,j,red,5c5a5234819b0c0001704f23,2021-09-27_12h17.45.561,forced_choiceRT_color,2021.2.3,MacIntel,59.95203837,,,,,,,,9,Slow,short,d,0,2.1746,3,2,14,2,1,,,,,
,1.26,,,,,,,,,d,orange,5c5a5234819b0c0001704f23,2021-09-27_12h17.45.561,forced_choiceRT_color,2021.2.3,MacIntel,59.95203837,,,,,,,,9,Slow,short,d,1,2.1146,3,3,15,0,1,,,,,
,0.26,,,,,,,,,k,purple,5c5a5234819b0c0001704f23,2021-09-27_12h17.45.561,forced_choiceRT_color,2021.2.3,MacIntel,59.95203837,,,,,,,,9,Fast,short,d,0,1.8872,4,0,16,3,1,,,,,
,1.21,,,,,,,,,k,purple,5c5a5234819b0c0001704f23,2021-09-27_12h17.45.561,forced_choiceRT_color,2021.2.3,MacIntel,59.95203837,,,,,,,,9,Ontime,short,f,0,1.9391,4,1,17,3,1,,,,,
,1.74,,,,,,,,,k,purple,5c5a5234819b0c0001704f23,2021-09-27_12h17.45.561,forced_choiceRT_color,2021.2.3,MacIntel,59.95203837,,,,,,,,9,Ontime,short,f,0,1.9897,4,2,18,3,1,,,,,
,1.85,,,,,,,,,d,orange,5c5a5234819b0c0001704f23,2021-09-27_12h17.45.561,forced_choiceRT_color,2021.2.3,MacIntel,59.95203837,,,,,,,,9,Fast,short,f,0,1.8359,4,3,19,0,1,,,,,
,0.47,,,,,,,,,k,purple,5c5a5234819b0c0001704f23,2021-09-27_12h17.45.561,forced_choiceRT_color,2021.2.3,MacIntel,59.95203837,,,,,,,,9,Ontime,short,f,0,1.986,5,0,20,3,1,,,,,
,0.56,,,,,,,,,k,purple,5c5a5234819b0c0001704f23,2021-09-27_12h17.45.561,forced_choiceRT_color,2021.2.3,MacIntel,59.95203837,,,,,,,,9,Fast,short,f,0,1.7372,5,1,21,3,1,,,,,
,1.79,,,,,,,,,f,blue,5c5a5234819b0c0001704f23,2021-09-27_12h17.45.561,forced_choiceRT_color,2021.2.3,MacIntel,59.95203837,,,,,,,,9,Ontime,short,k,0,2.0528,5,2,22,1,1,,,,,
,1.15,,,,,,,,,k,purple,5c5a5234819b0c0001704f23,2021-09-27_12h17.45.561,forced_choiceRT_color,2021.2.3,MacIntel,59.95203837,,,,,,,,9,Ontime,short,f,0,1.919,5,3,23,3,1,,,,,
,0.96,,,,,,,,,d,orange,5c5a5234819b0c0001704f23,2021-09-27_12h17.45.561,forced_choiceRT_color,2021.2.3,MacIntel,59.95203837,,,,,,,,9,Ontime,short,d,1,2.0597,6,0,24,0,1,,,,,
,0.42,,,,,,,,,d,orange,5c5a5234819b0c0001704f23,2021-09-27_12h17.45.561,forced_choiceRT_color,2021.2.3,MacIntel,59.95203837,,,,,,,,9,Ontime,short,d,1,2.0366,6,1,25,0,1,,,,,
,1.61,,,,,,,,,j,red,5c5a5234819b0c0001704f23,2021-09-27_12h17.45.561,forced_choiceRT_color,2021.2.3,MacIntel,59.95203837,,,,,,,,9,Ontime,short,d,0,1.9218,6,2,26,2,1,,,,,
,1.84,,,,,,,,,f,blue,5c5a5234819b0c0001704f23,2021-09-27_12h17.45.561,forced_choiceRT_color,2021.2.3,MacIntel,59.95203837,,,,,,,,9,Ontime,short,d,0,1.9197,6,3,27,1,1,,,,,
,1.45,,,,,,,,,d,orange,5c5a5234819b0c0001704f23,2021-09-27_12h17.45.561,forced_choiceRT_color,2021.2.3,MacIntel,59.95203837,,,,,,,,9,Fast,short,d,1,1.8525,7,0,28,0,1,,,,,
,1.87,,,,,,,,,j,red,5c5a5234819b0c0001704f23,2021-09-27_12h17.45.561,forced_choiceRT_color,2021.2.3,MacIntel,59.95203837,,,,,,,,9,Ontime,short,f,0,2.0091,7,1,29,2,1,,,,,
,1.12,,,,,,,,,f,blue,5c5a5234819b0c0001704f23,2021-09-27_12h17.45.561,forced_choiceRT_color,2021.2.3,MacIntel,59.95203837,,,,,,,,9,Ontime,short,f,1,1.9709,7,2,30,1,1,,,,,
,0.3,,,,,,,,,j,red,5c5a5234819b0c0001704f23,2021-09-27_12h17.45.561,forced_choiceRT_color,2021.2.3,MacIntel,59.95203837,,,,,,,,9,Ontime,short,j,1,2.0085,7,3,31,2,1,,,,,
,0,,,,,,,,,j,red,5c5a5234819b0c0001704f23,2021-09-27_12h17.45.561,forced_choiceRT_color,2021.2.3,MacIntel,59.95203837,,,,,,,,9,Slow,short,j,1,2.1519,8,0,32,2,1,,,,,
,0.45,,,,,,,,,k,purple,5c5a5234819b0c0001704f23,2021-09-27_12h17.45.561,forced_choiceRT_color,2021.2.3,MacIntel,59.95203837,,,,,,,,9,Ontime,short,j,0,1.9392,8,1,33,3,1,,,,,
,1.84,,,,,,,,,f,blue,5c5a5234819b0c0001704f23,2021-09-27_12h17.45.561,forced_choiceRT_color,2021.2.3,MacIntel,59.95203837,,,,,,,,9,Ontime,short,f,1,2.0574,8,2,34,1,1,,,,,
,0.25,,,,,,,,,d,orange,5c5a5234819b0c0001704f23,2021-09-27_12h17.45.561,forced_choiceRT_color,2021.2.3,MacIntel,59.95203837,,,,,,,,9,Ontime,short,j,0,1.9731,8,3,35,0,1,,,,,
,0.48,,,,,,,,,j,red,5c5a5234819b0c0001704f23,2021-09-27_12h17.45.561,forced_choiceRT_color,2021.2.3,MacIntel,59.95203837,,,,,,,,9,Ontime,short,j,1,2.0072,9,0,36,2,1,,,,,
,1.47,,,,,,,,,f,blue,5c5a5234819b0c0001704f23,2021-09-27_12h17.45.561,forced_choiceRT_color,2021.2.3,MacIntel,59.95203837,,,,,,,,9,Slow,short,f,1,2.3539,9,1,37,1,1,,,,,
,0.95,,,,,,,,,f,blue,5c5a5234819b0c0001704f23,2021-09-27_12h17.45.561,forced_choiceRT_color,2021.2.3,MacIntel,59.95203837,,,,,,,,9,Ontime,short,f,1,2.0039,9,2,38,1,1,,,,,
,0.37,,,,,,,,,k,purple,5c5a5234819b0c0001704f23,2021-09-27_12h17.45.561,forced_choiceRT_color,2021.2.3,MacIntel,59.95203837,,,,,,,,9,Slow,short,k,1,2.1245,9,3,39,3,1,,,,,
,,,,,,,,,,,,5c5a5234819b0c0001704f23,2021-09-27_12h17.45.561,forced_choiceRT_color,2021.2.3,MacIntel,59.95203837,,,,,,,,,,,,,,,,,,,8,0,8,0,1
,0.85,,,,,,,,,f,blue,5c5a5234819b0c0001704f23,2021-09-27_12h17.45.561,forced_choiceRT_color,2021.2.3,MacIntel,59.95203837,,,,,,,,10,Ontime,short,f,1,2.041,0,0,0,1,1,,,,,
,1.71,,,,,,,,,f,blue,5c5a5234819b0c0001704f23,2021-09-27_12h17.45.561,forced_choiceRT_color,2021.2.3,MacIntel,59.95203837,,,,,,,,10,Ontime,short,f,1,2.0785,0,1,1,1,1,,,,,
,0.55,,,,,,,,,f,blue,5c5a5234819b0c0001704f23,2021-09-27_12h17.45.561,forced_choiceRT_color,2021.2.3,MacIntel,59.95203837,,,,,,,,10,Ontime,short,f,1,2.0642,0,2,2,1,1,,,,,
,0.58,,,,,,,,,k,purple,5c5a5234819b0c0001704f23,2021-09-27_12h17.45.561,forced_choiceRT_color,2021.2.3,MacIntel,59.95203837,,,,,,,,10,Ontime,short,k,1,1.9535,0,3,3,3,1,,,,,
,1.71,,,,,,,,,j,red,5c5a5234819b0c0001704f23,2021-09-27_12h17.45.561,forced_choiceRT_color,2021.2.3,MacIntel,59.95203837,,,,,,,,10,Ontime,short,k,0,1.9908,1,0,4,2,1,,,,,
,1.08,,,,,,,,,k,purple,5c5a5234819b0c0001704f23,2021-09-27_12h17.45.561,forced_choiceRT_color,2021.2.3,MacIntel,59.95203837,,,,,,,,10,Ontime,short,k,1,1.9388,1,1,5,3,1,,,,,
,0.61,,,,,,,,,d,orange,5c5a5234819b0c0001704f23,2021-09-27_12h17.45.561,forced_choiceRT_color,2021.2.3,MacIntel,59.95203837,,,,,,,,10,Fast,short,d,1,1.8374,1,2,6,0,1,,,,,
,0.1,,,,,,,,,d,orange,5c5a5234819b0c0001704f23,2021-09-27_12h17.45.561,forced_choiceRT_color,2021.2.3,MacIntel,59.95203837,,,,,,,,10,Ontime,short,d,1,2.0935,1,3,7,0,1,,,,,
,1.69,,,,,,,,,j,red,5c5a5234819b0c0001704f23,2021-09-27_12h17.45.561,forced_choiceRT_color,2021.2.3,MacIntel,59.95203837,,,,,,,,10,Ontime,short,d,0,2.0417,2,0,8,2,1,,,,,
,0.95,,,,,,,,,f,blue,5c5a5234819b0c0001704f23,2021-09-27_12h17.45.561,forced_choiceRT_color,2021.2.3,MacIntel,59.95203837,,,,,,,,10,Ontime,short,f,1,2.0147,2,1,9,1,1,,,,,
,0.76,,,,,,,,,d,orange,5c5a5234819b0c0001704f23,2021-09-27_12h17.45.561,forced_choiceRT_color,2021.2.3,MacIntel,59.95203837,,,,,,,,10,Fast,short,d,1,1.8624,2,2,10,0,1,,,,,
,1.55,,,,,,,,,j,red,5c5a5234819b0c0001704f23,2021-09-27_12h17.45.561,forced_choiceRT_color,2021.2.3,MacIntel,59.95203837,,,,,,,,10,Ontime,short,f,0,1.9524,2,3,11,2,1,,,,,
,0.81,,,,,,,,,j,red,5c5a5234819b0c0001704f23,2021-09-27_12h17.45.561,forced_choiceRT_color,2021.2.3,MacIntel,59.95203837,,,,,,,,10,Ontime,short,f,0,1.9407,3,0,12,2,1,,,,,
,1.7,,,,,,,,,f,blue,5c5a5234819b0c0001704f23,2021-09-27_12h17.45.561,forced_choiceRT_color,2021.2.3,MacIntel,59.95203837,,,,,,,,10,Ontime,short,f,1,1.9702,3,1,13,1,1,,,,,
,1.07,,,,,,,,,j,red,5c5a5234819b0c0001704f23,2021-09-27_12h17.45.561,forced_choiceRT_color,2021.2.3,MacIntel,59.95203837,,,,,,,,10,Ontime,short,d,0,2.0571,3,2,14,2,1,,,,,
,0.47,,,,,,,,,f,blue,5c5a5234819b0c0001704f23,2021-09-27_12h17.45.561,forced_choiceRT_color,2021.2.3,MacIntel,59.95203837,,,,,,,,10,Ontime,short,f,1,2.0362,3,3,15,1,1,,,,,
,0.57,,,,,,,,,d,orange,5c5a5234819b0c0001704f23,2021-09-27_12h17.45.561,forced_choiceRT_color,2021.2.3,MacIntel,59.95203837,,,,,,,,10,Ontime,short,d,1,2.0291,4,0,16,0,1,,,,,
,0.78,,,,,,,,,f,blue,5c5a5234819b0c0001704f23,2021-09-27_12h17.45.561,forced_choiceRT_color,2021.2.3,MacIntel,59.95203837,,,,,,,,10,Ontime,short,f,1,1.9058,4,1,17,1,1,,,,,
,0.36,,,,,,,,,k,purple,5c5a5234819b0c0001704f23,2021-09-27_12h17.45.561,forced_choiceRT_color,2021.2.3,MacIntel,59.95203837,,,,,,,,10,Ontime,short,k,1,2.0367,4,2,18,3,1,,,,,
,1.19,,,,,,,,,j,red,5c5a5234819b0c0001704f23,2021-09-27_12h17.45.561,forced_choiceRT_color,2021.2.3,MacIntel,59.95203837,,,,,,,,10,Ontime,short,f,0,2.0311,4,3,19,2,1,,,,,
,1.47,,,,,,,,,k,purple,5c5a5234819b0c0001704f23,2021-09-27_12h17.45.561,forced_choiceRT_color,2021.2.3,MacIntel,59.95203837,,,,,,,,10,Ontime,short,k,1,2.0714,5,0,20,3,1,,,,,
,0.15,,,,,,,,,k,purple,5c5a5234819b0c0001704f23,2021-09-27_12h17.45.561,forced_choiceRT_color,2021.2.3,MacIntel,59.95203837,,,,,,,,10,Ontime,short,k,1,2.0533,5,1,21,3,1,,,,,
,0.23,,,,,,,,,d,orange,5c5a5234819b0c0001704f23,2021-09-27_12h17.45.561,forced_choiceRT_color,2021.2.3,MacIntel,59.95203837,,,,,,,,10,Ontime,short,f,0,1.9199,5,2,22,0,1,,,,,
,0.69,,,,,,,,,d,orange,5c5a5234819b0c0001704f23,2021-09-27_12h17.45.561,forced_choiceRT_color,2021.2.3,MacIntel,59.95203837,,,,,,,,10,Slow,short,d,1,2.125,5,3,23,0,1,,,,,
,0.08,,,,,,,,,k,purple,5c5a5234819b0c0001704f23,2021-09-27_12h17.45.561,forced_choiceRT_color,2021.2.3,MacIntel,59.95203837,,,,,,,,10,Ontime,short,k,1,1.9453,6,0,24,3,1,,,,,
,1.21,,,,,,,,,k,purple,5c5a5234819b0c0001704f23,2021-09-27_12h17.45.561,forced_choiceRT_color,2021.2.3,MacIntel,59.95203837,,,,,,,,10,Ontime,short,k,1,2.0388,6,1,25,3,1,,,,,
,1.14,,,,,,,,,d,orange,5c5a5234819b0c0001704f23,2021-09-27_12h17.45.561,forced_choiceRT_color,2021.2.3,MacIntel,59.95203837,,,,,,,,10,Ontime,short,d,1,2.0371,6,2,26,0,1,,,,,
,0.96,,,,,,,,,d,orange,5c5a5234819b0c0001704f23,2021-09-27_12h17.45.561,forced_choiceRT_color,2021.2.3,MacIntel,59.95203837,,,,,,,,10,Slow,short,d,1,2.1098,6,3,27,0,1,,,,,
,1.27,,,,,,,,,k,purple,5c5a5234819b0c0001704f23,2021-09-27_12h17.45.561,forced_choiceRT_color,2021.2.3,MacIntel,59.95203837,,,,,,,,10,Fast,short,f,0,1.8078,7,0,28,3,1,,,,,
,0.35,,,,,,,,,j,red,5c5a5234819b0c0001704f23,2021-09-27_12h17.45.561,forced_choiceRT_color,2021.2.3,MacIntel,59.95203837,,,,,,,,10,Fast,short,j,1,1.8002,7,1,29,2,1,,,,,
,1.58,,,,,,,,,j,red,5c5a5234819b0c0001704f23,2021-09-27_12h17.45.561,forced_choiceRT_color,2021.2.3,MacIntel,59.95203837,,,,,,,,10,Slow,short,j,1,2.2354,7,2,30,2,1,,,,,
,1.8,,,,,,,,,d,orange,5c5a5234819b0c0001704f23,2021-09-27_12h17.45.561,forced_choiceRT_color,2021.2.3,MacIntel,59.95203837,,,,,,,,10,Slow,short,j,0,2.1561,7,3,31,0,1,,,,,
,0.7,,,,,,,,,f,blue,5c5a5234819b0c0001704f23,2021-09-27_12h17.45.561,forced_choiceRT_color,2021.2.3,MacIntel,59.95203837,,,,,,,,10,Ontime,short,f,1,1.9097,8,0,32,1,1,,,,,
,0.42,,,,,,,,,k,purple,5c5a5234819b0c0001704f23,2021-09-27_12h17.45.561,forced_choiceRT_color,2021.2.3,MacIntel,59.95203837,,,,,,,,10,Ontime,short,f,0,2.0223,8,1,33,3,1,,,,,
,1.15,,,,,,,,,f,blue,5c5a5234819b0c0001704f23,2021-09-27_12h17.45.561,forced_choiceRT_color,2021.2.3,MacIntel,59.95203837,,,,,,,,10,Ontime,short,f,1,1.9411,8,2,34,1,1,,,,,
,0.58,,,,,,,,,j,red,5c5a5234819b0c0001704f23,2021-09-27_12h17.45.561,forced_choiceRT_color,2021.2.3,MacIntel,59.95203837,,,,,,,,10,Ontime,short,j,1,2.0382,8,3,35,2,1,,,,,
,1.41,,,,,,,,,f,blue,5c5a5234819b0c0001704f23,2021-09-27_12h17.45.561,forced_choiceRT_color,2021.2.3,MacIntel,59.95203837,,,,,,,,10,Ontime,short,f,1,2.0532,9,0,36,1,1,,,,,
,0.29,,,,,,,,,k,purple,5c5a5234819b0c0001704f23,2021-09-27_12h17.45.561,forced_choiceRT_color,2021.2.3,MacIntel,59.95203837,,,,,,,,10,Ontime,short,k,1,2.0084,9,1,37,3,1,,,,,
,1.36,,,,,,,,,j,red,5c5a5234819b0c0001704f23,2021-09-27_12h17.45.561,forced_choiceRT_color,2021.2.3,MacIntel,59.95203837,,,,,,,,10,Slow,short,f,0,2.2701,9,2,38,2,1,,,,,
,1.34,,,,,,,,,d,orange,5c5a5234819b0c0001704f23,2021-09-27_12h17.45.561,forced_choiceRT_color,2021.2.3,MacIntel,59.95203837,,,,,,,,10,Ontime,short,d,1,1.9864,9,3,39,0,1,,,,,
,,,,,,,,,,,,5c5a5234819b0c0001704f23,2021-09-27_12h17.45.561,forced_choiceRT_color,2021.2.3,MacIntel,59.95203837,,,,,,,,,,,,,,,,,,,9,0,9,0,1
