IP_Addresss,target_onset,trial_resp_sp.keys,trial_resp_sp.corr,trial_resp_sp.rt,trials_train_loop.thisRepN,trials_train_loop.thisTrialN,trials_train_loop.thisN,trials_train_loop.thisIndex,trials_train_loop.ran,correct_key,color,participant,date,expName,psychopyVersion,OS,frameRate,trial_resp_timing.keys,trial_resp_timing.rt,trials_train_timing.thisRepN,trials_train_timing.thisTrialN,trials_train_timing.thisN,trials_train_timing.thisIndex,trials_train_timing.ran,block_id,ontime,feedback_cond,forcedRT_resp.keys,forcedRT_resp.corr,forcedRT_resp.rt,trials.thisRepN,trials.thisTrialN,trials.thisN,trials.thisIndex,trials.ran,blocks.thisRepN,blocks.thisTrialN,blocks.thisN,blocks.thisIndex,blocks.ran
174.67.132.206,0,f,1,1.538,0,0,0,1,1,f,blue,5d59d1c4f6a63300198681e8,2021-09-27_19h01.01.141,forced_choiceRT_color,2021.2.3,MacIntel,59.99160118,,,,,,,,,,,,,,,,,,,,,,,
,0,f,1,0.6829,0,1,1,1,1,f,blue,5d59d1c4f6a63300198681e8,2021-09-27_19h01.01.141,forced_choiceRT_color,2021.2.3,MacIntel,59.99160118,,,,,,,,,,,,,,,,,,,,,,,
,0,k,1,0.7859,0,2,2,3,1,k,purple,5d59d1c4f6a63300198681e8,2021-09-27_19h01.01.141,forced_choiceRT_color,2021.2.3,MacIntel,59.99160118,,,,,,,,,,,,,,,,,,,,,,,
,0,d,1,0.7345,0,3,3,0,1,d,orange,5d59d1c4f6a63300198681e8,2021-09-27_19h01.01.141,forced_choiceRT_color,2021.2.3,MacIntel,59.99160118,,,,,,,,,,,,,,,,,,,,,,,
,0,j,1,0.7515,1,0,4,2,1,j,red,5d59d1c4f6a63300198681e8,2021-09-27_19h01.01.141,forced_choiceRT_color,2021.2.3,MacIntel,59.99160118,,,,,,,,,,,,,,,,,,,,,,,
,0,d,1,0.6772,1,1,5,0,1,d,orange,5d59d1c4f6a63300198681e8,2021-09-27_19h01.01.141,forced_choiceRT_color,2021.2.3,MacIntel,59.99160118,,,,,,,,,,,,,,,,,,,,,,,
,0,j,1,0.7521,1,2,6,2,1,j,red,5d59d1c4f6a63300198681e8,2021-09-27_19h01.01.141,forced_choiceRT_color,2021.2.3,MacIntel,59.99160118,,,,,,,,,,,,,,,,,,,,,,,
,0,k,1,0.4333,1,3,7,3,1,k,purple,5d59d1c4f6a63300198681e8,2021-09-27_19h01.01.141,forced_choiceRT_color,2021.2.3,MacIntel,59.99160118,,,,,,,,,,,,,,,,,,,,,,,
,0,j,1,1.0489,2,0,8,2,1,j,red,5d59d1c4f6a63300198681e8,2021-09-27_19h01.01.141,forced_choiceRT_color,2021.2.3,MacIntel,59.99160118,,,,,,,,,,,,,,,,,,,,,,,
,0,f,1,0.7711,2,1,9,1,1,f,blue,5d59d1c4f6a63300198681e8,2021-09-27_19h01.01.141,forced_choiceRT_color,2021.2.3,MacIntel,59.99160118,,,,,,,,,,,,,,,,,,,,,,,
,0,k,1,0.6992,2,2,10,3,1,k,purple,5d59d1c4f6a63300198681e8,2021-09-27_19h01.01.141,forced_choiceRT_color,2021.2.3,MacIntel,59.99160118,,,,,,,,,,,,,,,,,,,,,,,
,0,d,1,0.5966,2,3,11,0,1,d,orange,5d59d1c4f6a63300198681e8,2021-09-27_19h01.01.141,forced_choiceRT_color,2021.2.3,MacIntel,59.99160118,,,,,,,,,,,,,,,,,,,,,,,
,0,f,1,0.6808,3,0,12,1,1,f,blue,5d59d1c4f6a63300198681e8,2021-09-27_19h01.01.141,forced_choiceRT_color,2021.2.3,MacIntel,59.99160118,,,,,,,,,,,,,,,,,,,,,,,
,0,k,1,0.8413,3,1,13,3,1,k,purple,5d59d1c4f6a63300198681e8,2021-09-27_19h01.01.141,forced_choiceRT_color,2021.2.3,MacIntel,59.99160118,,,,,,,,,,,,,,,,,,,,,,,
,0,d,1,0.6486,3,2,14,0,1,d,orange,5d59d1c4f6a63300198681e8,2021-09-27_19h01.01.141,forced_choiceRT_color,2021.2.3,MacIntel,59.99160118,,,,,,,,,,,,,,,,,,,,,,,
,0,k,1,0.7509,3,3,15,3,1,k,purple,5d59d1c4f6a63300198681e8,2021-09-27_19h01.01.141,forced_choiceRT_color,2021.2.3,MacIntel,59.99160118,,,,,,,,,,,,,,,,,,,,,,,
,0,f,1,0.684,4,0,16,1,1,f,blue,5d59d1c4f6a63300198681e8,2021-09-27_19h01.01.141,forced_choiceRT_color,2021.2.3,MacIntel,59.99160118,,,,,,,,,,,,,,,,,,,,,,,
,0,d,1,0.6157,4,1,17,0,1,d,orange,5d59d1c4f6a63300198681e8,2021-09-27_19h01.01.141,forced_choiceRT_color,2021.2.3,MacIntel,59.99160118,,,,,,,,,,,,,,,,,,,,,,,
,0,j,1,0.667,4,2,18,2,1,j,red,5d59d1c4f6a63300198681e8,2021-09-27_19h01.01.141,forced_choiceRT_color,2021.2.3,MacIntel,59.99160118,,,,,,,,,,,,,,,,,,,,,,,
,0,k,1,0.4357,4,3,19,3,1,k,purple,5d59d1c4f6a63300198681e8,2021-09-27_19h01.01.141,forced_choiceRT_color,2021.2.3,MacIntel,59.99160118,,,,,,,,,,,,,,,,,,,,,,,
,0,j,1,0.9052,5,0,20,2,1,j,red,5d59d1c4f6a63300198681e8,2021-09-27_19h01.01.141,forced_choiceRT_color,2021.2.3,MacIntel,59.99160118,,,,,,,,,,,,,,,,,,,,,,,
,0,j,1,0.6203,5,1,21,2,1,j,red,5d59d1c4f6a63300198681e8,2021-09-27_19h01.01.141,forced_choiceRT_color,2021.2.3,MacIntel,59.99160118,,,,,,,,,,,,,,,,,,,,,,,
,0,d,1,0.7518,5,2,22,0,1,d,orange,5d59d1c4f6a63300198681e8,2021-09-27_19h01.01.141,forced_choiceRT_color,2021.2.3,MacIntel,59.99160118,,,,,,,,,,,,,,,,,,,,,,,
,0,j,1,0.6655,5,3,23,2,1,j,red,5d59d1c4f6a63300198681e8,2021-09-27_19h01.01.141,forced_choiceRT_color,2021.2.3,MacIntel,59.99160118,,,,,,,,,,,,,,,,,,,,,,,
,0,f,1,0.9021,6,0,24,1,1,f,blue,5d59d1c4f6a63300198681e8,2021-09-27_19h01.01.141,forced_choiceRT_color,2021.2.3,MacIntel,59.99160118,,,,,,,,,,,,,,,,,,,,,,,
,0,j,1,0.8855,6,1,25,2,1,j,red,5d59d1c4f6a63300198681e8,2021-09-27_19h01.01.141,forced_choiceRT_color,2021.2.3,MacIntel,59.99160118,,,,,,,,,,,,,,,,,,,,,,,
,0,j,1,0.5675,6,2,26,2,1,j,red,5d59d1c4f6a63300198681e8,2021-09-27_19h01.01.141,forced_choiceRT_color,2021.2.3,MacIntel,59.99160118,,,,,,,,,,,,,,,,,,,,,,,
,0,f,1,0.8883,6,3,27,1,1,f,blue,5d59d1c4f6a63300198681e8,2021-09-27_19h01.01.141,forced_choiceRT_color,2021.2.3,MacIntel,59.99160118,,,,,,,,,,,,,,,,,,,,,,,
,0,f,1,0.584,7,0,28,1,1,f,blue,5d59d1c4f6a63300198681e8,2021-09-27_19h01.01.141,forced_choiceRT_color,2021.2.3,MacIntel,59.99160118,,,,,,,,,,,,,,,,,,,,,,,
,0,j,1,0.6848,7,1,29,2,1,j,red,5d59d1c4f6a63300198681e8,2021-09-27_19h01.01.141,forced_choiceRT_color,2021.2.3,MacIntel,59.99160118,,,,,,,,,,,,,,,,,,,,,,,
,0,k,1,0.6349,7,2,30,3,1,k,purple,5d59d1c4f6a63300198681e8,2021-09-27_19h01.01.141,forced_choiceRT_color,2021.2.3,MacIntel,59.99160118,,,,,,,,,,,,,,,,,,,,,,,
,0,f,1,1.3045,7,3,31,1,1,f,blue,5d59d1c4f6a63300198681e8,2021-09-27_19h01.01.141,forced_choiceRT_color,2021.2.3,MacIntel,59.99160118,,,,,,,,,,,,,,,,,,,,,,,
,0,d,1,0.4488,8,0,32,0,1,d,orange,5d59d1c4f6a63300198681e8,2021-09-27_19h01.01.141,forced_choiceRT_color,2021.2.3,MacIntel,59.99160118,,,,,,,,,,,,,,,,,,,,,,,
,0,f,1,0.6054,8,1,33,1,1,f,blue,5d59d1c4f6a63300198681e8,2021-09-27_19h01.01.141,forced_choiceRT_color,2021.2.3,MacIntel,59.99160118,,,,,,,,,,,,,,,,,,,,,,,
,0,d,1,0.7334,8,2,34,0,1,d,orange,5d59d1c4f6a63300198681e8,2021-09-27_19h01.01.141,forced_choiceRT_color,2021.2.3,MacIntel,59.99160118,,,,,,,,,,,,,,,,,,,,,,,
,0,k,1,0.7367,8,3,35,3,1,k,purple,5d59d1c4f6a63300198681e8,2021-09-27_19h01.01.141,forced_choiceRT_color,2021.2.3,MacIntel,59.99160118,,,,,,,,,,,,,,,,,,,,,,,
,0,k,1,0.6375,9,0,36,3,1,k,purple,5d59d1c4f6a63300198681e8,2021-09-27_19h01.01.141,forced_choiceRT_color,2021.2.3,MacIntel,59.99160118,,,,,,,,,,,,,,,,,,,,,,,
,0,f,1,0.6686,9,1,37,1,1,f,blue,5d59d1c4f6a63300198681e8,2021-09-27_19h01.01.141,forced_choiceRT_color,2021.2.3,MacIntel,59.99160118,,,,,,,,,,,,,,,,,,,,,,,
,0,f,1,0.4826,9,2,38,1,1,f,blue,5d59d1c4f6a63300198681e8,2021-09-27_19h01.01.141,forced_choiceRT_color,2021.2.3,MacIntel,59.99160118,,,,,,,,,,,,,,,,,,,,,,,
,0,d,1,0.6169,9,3,39,0,1,d,orange,5d59d1c4f6a63300198681e8,2021-09-27_19h01.01.141,forced_choiceRT_color,2021.2.3,MacIntel,59.99160118,,,,,,,,,,,,,,,,,,,,,,,
,0,j,1,0.5503,10,0,40,2,1,j,red,5d59d1c4f6a63300198681e8,2021-09-27_19h01.01.141,forced_choiceRT_color,2021.2.3,MacIntel,59.99160118,,,,,,,,,,,,,,,,,,,,,,,
,0,k,1,0.4502,10,1,41,3,1,k,purple,5d59d1c4f6a63300198681e8,2021-09-27_19h01.01.141,forced_choiceRT_color,2021.2.3,MacIntel,59.99160118,,,,,,,,,,,,,,,,,,,,,,,
,0,d,1,0.786,10,2,42,0,1,d,orange,5d59d1c4f6a63300198681e8,2021-09-27_19h01.01.141,forced_choiceRT_color,2021.2.3,MacIntel,59.99160118,,,,,,,,,,,,,,,,,,,,,,,
,0,d,1,0.6322,10,3,43,0,1,d,orange,5d59d1c4f6a63300198681e8,2021-09-27_19h01.01.141,forced_choiceRT_color,2021.2.3,MacIntel,59.99160118,,,,,,,,,,,,,,,,,,,,,,,
,0,f,1,0.4839,11,0,44,1,1,f,blue,5d59d1c4f6a63300198681e8,2021-09-27_19h01.01.141,forced_choiceRT_color,2021.2.3,MacIntel,59.99160118,,,,,,,,,,,,,,,,,,,,,,,
,0,d,1,0.7698,11,1,45,0,1,d,orange,5d59d1c4f6a63300198681e8,2021-09-27_19h01.01.141,forced_choiceRT_color,2021.2.3,MacIntel,59.99160118,,,,,,,,,,,,,,,,,,,,,,,
,0,j,1,0.6388,11,2,46,2,1,j,red,5d59d1c4f6a63300198681e8,2021-09-27_19h01.01.141,forced_choiceRT_color,2021.2.3,MacIntel,59.99160118,,,,,,,,,,,,,,,,,,,,,,,
,0,f,1,0.7995,11,3,47,1,1,f,blue,5d59d1c4f6a63300198681e8,2021-09-27_19h01.01.141,forced_choiceRT_color,2021.2.3,MacIntel,59.99160118,,,,,,,,,,,,,,,,,,,,,,,
,0,k,1,0.6688,12,0,48,3,1,k,purple,5d59d1c4f6a63300198681e8,2021-09-27_19h01.01.141,forced_choiceRT_color,2021.2.3,MacIntel,59.99160118,,,,,,,,,,,,,,,,,,,,,,,
,0,d,1,0.6841,12,1,49,0,1,d,orange,5d59d1c4f6a63300198681e8,2021-09-27_19h01.01.141,forced_choiceRT_color,2021.2.3,MacIntel,59.99160118,,,,,,,,,,,,,,,,,,,,,,,
,0,d,1,0.5477,12,2,50,0,1,d,orange,5d59d1c4f6a63300198681e8,2021-09-27_19h01.01.141,forced_choiceRT_color,2021.2.3,MacIntel,59.99160118,,,,,,,,,,,,,,,,,,,,,,,
,0,j,1,0.734,12,3,51,2,1,j,red,5d59d1c4f6a63300198681e8,2021-09-27_19h01.01.141,forced_choiceRT_color,2021.2.3,MacIntel,59.99160118,,,,,,,,,,,,,,,,,,,,,,,
,0,d,1,0.6857,13,0,52,0,1,d,orange,5d59d1c4f6a63300198681e8,2021-09-27_19h01.01.141,forced_choiceRT_color,2021.2.3,MacIntel,59.99160118,,,,,,,,,,,,,,,,,,,,,,,
,0,j,1,0.8648,13,1,53,2,1,j,red,5d59d1c4f6a63300198681e8,2021-09-27_19h01.01.141,forced_choiceRT_color,2021.2.3,MacIntel,59.99160118,,,,,,,,,,,,,,,,,,,,,,,
,0,f,1,0.6498,13,2,54,1,1,f,blue,5d59d1c4f6a63300198681e8,2021-09-27_19h01.01.141,forced_choiceRT_color,2021.2.3,MacIntel,59.99160118,,,,,,,,,,,,,,,,,,,,,,,
,0,k,1,0.5883,13,3,55,3,1,k,purple,5d59d1c4f6a63300198681e8,2021-09-27_19h01.01.141,forced_choiceRT_color,2021.2.3,MacIntel,59.99160118,,,,,,,,,,,,,,,,,,,,,,,
,0,k,1,0.5508,14,0,56,3,1,k,purple,5d59d1c4f6a63300198681e8,2021-09-27_19h01.01.141,forced_choiceRT_color,2021.2.3,MacIntel,59.99160118,,,,,,,,,,,,,,,,,,,,,,,
,0,j,1,0.5696,14,1,57,2,1,j,red,5d59d1c4f6a63300198681e8,2021-09-27_19h01.01.141,forced_choiceRT_color,2021.2.3,MacIntel,59.99160118,,,,,,,,,,,,,,,,,,,,,,,
,0,k,1,0.7823,14,2,58,3,1,k,purple,5d59d1c4f6a63300198681e8,2021-09-27_19h01.01.141,forced_choiceRT_color,2021.2.3,MacIntel,59.99160118,,,,,,,,,,,,,,,,,,,,,,,
,0,k,1,0.4685,14,3,59,3,1,k,purple,5d59d1c4f6a63300198681e8,2021-09-27_19h01.01.141,forced_choiceRT_color,2021.2.3,MacIntel,59.99160118,,,,,,,,,,,,,,,,,,,,,,,
,,,,,,,,,,,,5d59d1c4f6a63300198681e8,2021-09-27_19h01.01.141,forced_choiceRT_color,2021.2.3,MacIntel,59.99160118,k,2.2759,0,0,0,0,1,,,,,,,,,,,,,,,,
,,,,,,,,,,,,5d59d1c4f6a63300198681e8,2021-09-27_19h01.01.141,forced_choiceRT_color,2021.2.3,MacIntel,59.99160118,k,1.9496,1,0,1,0,1,,,,,,,,,,,,,,,,
,,,,,,,,,,,,5d59d1c4f6a63300198681e8,2021-09-27_19h01.01.141,forced_choiceRT_color,2021.2.3,MacIntel,59.99160118,k,1.7507,2,0,2,0,1,,,,,,,,,,,,,,,,
,,,,,,,,,,,,5d59d1c4f6a63300198681e8,2021-09-27_19h01.01.141,forced_choiceRT_color,2021.2.3,MacIntel,59.99160118,j,2.0039,3,0,3,0,1,,,,,,,,,,,,,,,,
,,,,,,,,,,,,5d59d1c4f6a63300198681e8,2021-09-27_19h01.01.141,forced_choiceRT_color,2021.2.3,MacIntel,59.99160118,j,1.9216,4,0,4,0,1,,,,,,,,,,,,,,,,
,,,,,,,,,,,,5d59d1c4f6a63300198681e8,2021-09-27_19h01.01.141,forced_choiceRT_color,2021.2.3,MacIntel,59.99160118,j,2.0018,5,0,5,0,1,,,,,,,,,,,,,,,,
,,,,,,,,,,,,5d59d1c4f6a63300198681e8,2021-09-27_19h01.01.141,forced_choiceRT_color,2021.2.3,MacIntel,59.99160118,f,1.918,6,0,6,0,1,,,,,,,,,,,,,,,,
,,,,,,,,,,,,5d59d1c4f6a63300198681e8,2021-09-27_19h01.01.141,forced_choiceRT_color,2021.2.3,MacIntel,59.99160118,f,1.8788,7,0,7,0,1,,,,,,,,,,,,,,,,
,,,,,,,,,,,,5d59d1c4f6a63300198681e8,2021-09-27_19h01.01.141,forced_choiceRT_color,2021.2.3,MacIntel,59.99160118,f,2.0514,8,0,8,0,1,,,,,,,,,,,,,,,,
,,,,,,,,,,,,5d59d1c4f6a63300198681e8,2021-09-27_19h01.01.141,forced_choiceRT_color,2021.2.3,MacIntel,59.99160118,f,2.1312,9,0,9,0,1,,,,,,,,,,,,,,,,
,,,,,,,,,,,,5d59d1c4f6a63300198681e8,2021-09-27_19h01.01.141,forced_choiceRT_color,2021.2.3,MacIntel,59.99160118,f,2.0337,10,0,10,0,1,,,,,,,,,,,,,,,,
,,,,,,,,,,,,5d59d1c4f6a63300198681e8,2021-09-27_19h01.01.141,forced_choiceRT_color,2021.2.3,MacIntel,59.99160118,j,2.0849,11,0,11,0,1,,,,,,,,,,,,,,,,
,,,,,,,,,,,,5d59d1c4f6a63300198681e8,2021-09-27_19h01.01.141,forced_choiceRT_color,2021.2.3,MacIntel,59.99160118,j,2.0016,12,0,12,0,1,,,,,,,,,,,,,,,,
,,,,,,,,,,,,5d59d1c4f6a63300198681e8,2021-09-27_19h01.01.141,forced_choiceRT_color,2021.2.3,MacIntel,59.99160118,j,1.8934,13,0,13,0,1,,,,,,,,,,,,,,,,
,,,,,,,,,,,,5d59d1c4f6a63300198681e8,2021-09-27_19h01.01.141,forced_choiceRT_color,2021.2.3,MacIntel,59.99160118,j,2.1191,14,0,14,0,1,,,,,,,,,,,,,,,,
,,,,,,,,,,,,5d59d1c4f6a63300198681e8,2021-09-27_19h01.01.141,forced_choiceRT_color,2021.2.3,MacIntel,59.99160118,j,2.0515,15,0,15,0,1,,,,,,,,,,,,,,,,
,,,,,,,,,,,,5d59d1c4f6a63300198681e8,2021-09-27_19h01.01.141,forced_choiceRT_color,2021.2.3,MacIntel,59.99160118,j,1.9895,16,0,16,0,1,,,,,,,,,,,,,,,,
,,,,,,,,,,,,5d59d1c4f6a63300198681e8,2021-09-27_19h01.01.141,forced_choiceRT_color,2021.2.3,MacIntel,59.99160118,j,2.0529,17,0,17,0,1,,,,,,,,,,,,,,,,
,,,,,,,,,,,,5d59d1c4f6a63300198681e8,2021-09-27_19h01.01.141,forced_choiceRT_color,2021.2.3,MacIntel,59.99160118,j,1.9979,18,0,18,0,1,,,,,,,,,,,,,,,,
,,,,,,,,,,,,5d59d1c4f6a63300198681e8,2021-09-27_19h01.01.141,forced_choiceRT_color,2021.2.3,MacIntel,59.99160118,j,2.0513,19,0,19,0,1,,,,,,,,,,,,,,,,
,1.31,,,,,,,,,f,blue,5d59d1c4f6a63300198681e8,2021-09-27_19h01.01.141,forced_choiceRT_color,2021.2.3,MacIntel,59.99160118,,,,,,,,1,Ontime,short,f,1,1.9834,0,0,0,1,1,,,,,
,0.22,,,,,,,,,j,red,5d59d1c4f6a63300198681e8,2021-09-27_19h01.01.141,forced_choiceRT_color,2021.2.3,MacIntel,59.99160118,,,,,,,,1,Fast,short,j,1,0.8381,0,1,1,2,1,,,,,
,1.99,,,,,,,,,f,blue,5d59d1c4f6a63300198681e8,2021-09-27_19h01.01.141,forced_choiceRT_color,2021.2.3,MacIntel,59.99160118,,,,,,,,1,Slow,short,f,1,2.5818,0,2,2,1,1,,,,,
,1.65,,,,,,,,,j,red,5d59d1c4f6a63300198681e8,2021-09-27_19h01.01.141,forced_choiceRT_color,2021.2.3,MacIntel,59.99160118,,,,,,,,1,Slow,short,j,1,2.2141,0,3,3,2,1,,,,,
,0.16,,,,,,,,,k,purple,5d59d1c4f6a63300198681e8,2021-09-27_19h01.01.141,forced_choiceRT_color,2021.2.3,MacIntel,59.99160118,,,,,,,,1,Fast,short,k,1,0.7333,1,0,4,3,1,,,,,
,0.47,,,,,,,,,d,orange,5d59d1c4f6a63300198681e8,2021-09-27_19h01.01.141,forced_choiceRT_color,2021.2.3,MacIntel,59.99160118,,,,,,,,1,Ontime,short,d,1,2.0005,1,1,5,0,1,,,,,
,1.26,,,,,,,,,f,blue,5d59d1c4f6a63300198681e8,2021-09-27_19h01.01.141,forced_choiceRT_color,2021.2.3,MacIntel,59.99160118,,,,,,,,1,Ontime,short,f,1,1.9047,1,2,6,1,1,,,,,
,0.59,,,,,,,,,d,orange,5d59d1c4f6a63300198681e8,2021-09-27_19h01.01.141,forced_choiceRT_color,2021.2.3,MacIntel,59.99160118,,,,,,,,1,Ontime,short,d,1,1.9347,1,3,7,0,1,,,,,
,0.79,,,,,,,,,f,blue,5d59d1c4f6a63300198681e8,2021-09-27_19h01.01.141,forced_choiceRT_color,2021.2.3,MacIntel,59.99160118,,,,,,,,1,Ontime,short,f,1,1.9475,2,0,8,1,1,,,,,
,0.6,,,,,,,,,f,blue,5d59d1c4f6a63300198681e8,2021-09-27_19h01.01.141,forced_choiceRT_color,2021.2.3,MacIntel,59.99160118,,,,,,,,1,Ontime,short,f,1,2.038,2,1,9,1,1,,,,,
,1.69,,,,,,,,,k,purple,5d59d1c4f6a63300198681e8,2021-09-27_19h01.01.141,forced_choiceRT_color,2021.2.3,MacIntel,59.99160118,,,,,,,,1,Slow,short,k,1,2.4022,2,2,10,3,1,,,,,
,1.56,,,,,,,,,k,purple,5d59d1c4f6a63300198681e8,2021-09-27_19h01.01.141,forced_choiceRT_color,2021.2.3,MacIntel,59.99160118,,,,,,,,1,Ontime,short,k,1,1.9352,2,3,11,3,1,,,,,
,0.77,,,,,,,,,j,red,5d59d1c4f6a63300198681e8,2021-09-27_19h01.01.141,forced_choiceRT_color,2021.2.3,MacIntel,59.99160118,,,,,,,,1,Slow,short,j,1,2.1699,3,0,12,2,1,,,,,
,1.78,,,,,,,,,d,orange,5d59d1c4f6a63300198681e8,2021-09-27_19h01.01.141,forced_choiceRT_color,2021.2.3,MacIntel,59.99160118,,,,,,,,1,Slow,short,d,1,2.4498,3,1,13,0,1,,,,,
,1.78,,,,,,,,,k,purple,5d59d1c4f6a63300198681e8,2021-09-27_19h01.01.141,forced_choiceRT_color,2021.2.3,MacIntel,59.99160118,,,,,,,,1,Slow,short,k,1,2.3803,3,2,14,3,1,,,,,
,0.43,,,,,,,,,d,orange,5d59d1c4f6a63300198681e8,2021-09-27_19h01.01.141,forced_choiceRT_color,2021.2.3,MacIntel,59.99160118,,,,,,,,1,Ontime,short,d,1,2.0583,3,3,15,0,1,,,,,
,1.42,,,,,,,,,j,red,5d59d1c4f6a63300198681e8,2021-09-27_19h01.01.141,forced_choiceRT_color,2021.2.3,MacIntel,59.99160118,,,,,,,,1,Slow,short,j,1,2.2842,4,0,16,2,1,,,,,
,1.29,,,,,,,,,j,red,5d59d1c4f6a63300198681e8,2021-09-27_19h01.01.141,forced_choiceRT_color,2021.2.3,MacIntel,59.99160118,,,,,,,,1,Ontime,short,j,1,2.0815,4,1,17,2,1,,,,,
,0.03,,,,,,,,,k,purple,5d59d1c4f6a63300198681e8,2021-09-27_19h01.01.141,forced_choiceRT_color,2021.2.3,MacIntel,59.99160118,,,,,,,,1,Ontime,short,k,1,2.071,4,2,18,3,1,,,,,
,0.04,,,,,,,,,f,blue,5d59d1c4f6a63300198681e8,2021-09-27_19h01.01.141,forced_choiceRT_color,2021.2.3,MacIntel,59.99160118,,,,,,,,1,Slow,short,f,1,2.1826,4,3,19,1,1,,,,,
,0.31,,,,,,,,,f,blue,5d59d1c4f6a63300198681e8,2021-09-27_19h01.01.141,forced_choiceRT_color,2021.2.3,MacIntel,59.99160118,,,,,,,,1,Ontime,short,f,1,2.0991,5,0,20,1,1,,,,,
,1.16,,,,,,,,,d,orange,5d59d1c4f6a63300198681e8,2021-09-27_19h01.01.141,forced_choiceRT_color,2021.2.3,MacIntel,59.99160118,,,,,,,,1,Slow,short,d,1,2.2537,5,1,21,0,1,,,,,
,1.16,,,,,,,,,j,red,5d59d1c4f6a63300198681e8,2021-09-27_19h01.01.141,forced_choiceRT_color,2021.2.3,MacIntel,59.99160118,,,,,,,,1,Slow,short,j,1,2.1008,5,2,22,2,1,,,,,
,1.37,,,,,,,,,j,red,5d59d1c4f6a63300198681e8,2021-09-27_19h01.01.141,forced_choiceRT_color,2021.2.3,MacIntel,59.99160118,,,,,,,,1,Ontime,short,j,1,2.0838,5,3,23,2,1,,,,,
,0.39,,,,,,,,,k,purple,5d59d1c4f6a63300198681e8,2021-09-27_19h01.01.141,forced_choiceRT_color,2021.2.3,MacIntel,59.99160118,,,,,,,,1,Ontime,short,k,1,2.0364,6,0,24,3,1,,,,,
,0.71,,,,,,,,,f,blue,5d59d1c4f6a63300198681e8,2021-09-27_19h01.01.141,forced_choiceRT_color,2021.2.3,MacIntel,59.99160118,,,,,,,,1,Ontime,short,f,1,2.0896,6,1,25,1,1,,,,,
,0.21,,,,,,,,,k,purple,5d59d1c4f6a63300198681e8,2021-09-27_19h01.01.141,forced_choiceRT_color,2021.2.3,MacIntel,59.99160118,,,,,,,,1,Ontime,short,k,1,2.0677,6,2,26,3,1,,,,,
,1.06,,,,,,,,,k,purple,5d59d1c4f6a63300198681e8,2021-09-27_19h01.01.141,forced_choiceRT_color,2021.2.3,MacIntel,59.99160118,,,,,,,,1,Ontime,short,k,1,2.0343,6,3,27,3,1,,,,,
,1.18,,,,,,,,,f,blue,5d59d1c4f6a63300198681e8,2021-09-27_19h01.01.141,forced_choiceRT_color,2021.2.3,MacIntel,59.99160118,,,,,,,,1,Ontime,short,f,1,2.07,7,0,28,1,1,,,,,
,0.59,,,,,,,,,k,purple,5d59d1c4f6a63300198681e8,2021-09-27_19h01.01.141,forced_choiceRT_color,2021.2.3,MacIntel,59.99160118,,,,,,,,1,Ontime,short,k,1,2.0032,7,1,29,3,1,,,,,
,0.88,,,,,,,,,d,orange,5d59d1c4f6a63300198681e8,2021-09-27_19h01.01.141,forced_choiceRT_color,2021.2.3,MacIntel,59.99160118,,,,,,,,1,Ontime,short,d,1,2.0032,7,2,30,0,1,,,,,
,1.44,,,,,,,,,f,blue,5d59d1c4f6a63300198681e8,2021-09-27_19h01.01.141,forced_choiceRT_color,2021.2.3,MacIntel,59.99160118,,,,,,,,1,Slow,short,f,1,2.1318,7,3,31,1,1,,,,,
,1.43,,,,,,,,,k,purple,5d59d1c4f6a63300198681e8,2021-09-27_19h01.01.141,forced_choiceRT_color,2021.2.3,MacIntel,59.99160118,,,,,,,,1,Ontime,short,k,1,2.0961,8,0,32,3,1,,,,,
,0.4,,,,,,,,,d,orange,5d59d1c4f6a63300198681e8,2021-09-27_19h01.01.141,forced_choiceRT_color,2021.2.3,MacIntel,59.99160118,,,,,,,,1,Ontime,short,d,1,2.0034,8,1,33,0,1,,,,,
,0.84,,,,,,,,,j,red,5d59d1c4f6a63300198681e8,2021-09-27_19h01.01.141,forced_choiceRT_color,2021.2.3,MacIntel,59.99160118,,,,,,,,1,Ontime,short,j,1,2.0607,8,2,34,2,1,,,,,
,0.09,,,,,,,,,j,red,5d59d1c4f6a63300198681e8,2021-09-27_19h01.01.141,forced_choiceRT_color,2021.2.3,MacIntel,59.99160118,,,,,,,,1,Ontime,short,j,1,1.9498,8,3,35,2,1,,,,,
,0.4,,,,,,,,,d,orange,5d59d1c4f6a63300198681e8,2021-09-27_19h01.01.141,forced_choiceRT_color,2021.2.3,MacIntel,59.99160118,,,,,,,,1,Fast,short,d,1,1.8367,9,0,36,0,1,,,,,
,0.52,,,,,,,,,d,orange,5d59d1c4f6a63300198681e8,2021-09-27_19h01.01.141,forced_choiceRT_color,2021.2.3,MacIntel,59.99160118,,,,,,,,1,Ontime,short,d,1,1.9824,9,1,37,0,1,,,,,
,1.05,,,,,,,,,d,orange,5d59d1c4f6a63300198681e8,2021-09-27_19h01.01.141,forced_choiceRT_color,2021.2.3,MacIntel,59.99160118,,,,,,,,1,Ontime,short,d,1,2.0986,9,2,38,0,1,,,,,
,1.87,,,,,,,,,j,red,5d59d1c4f6a63300198681e8,2021-09-27_19h01.01.141,forced_choiceRT_color,2021.2.3,MacIntel,59.99160118,,,,,,,,1,Slow,short,j,1,2.306,9,3,39,2,1,,,,,
,,,,,,,,,,,,5d59d1c4f6a63300198681e8,2021-09-27_19h01.01.141,forced_choiceRT_color,2021.2.3,MacIntel,59.99160118,,,,,,,,,,,,,,,,,,,0,0,0,0,1
,1.4,,,,,,,,,j,red,5d59d1c4f6a63300198681e8,2021-09-27_19h01.01.141,forced_choiceRT_color,2021.2.3,MacIntel,59.99160118,,,,,,,,2,Slow,short,j,1,8.4983,0,0,0,2,1,,,,,
,1.28,,,,,,,,,k,purple,5d59d1c4f6a63300198681e8,2021-09-27_19h01.01.141,forced_choiceRT_color,2021.2.3,MacIntel,59.99160118,,,,,,,,2,Slow,short,k,1,2.1677,0,1,1,3,1,,,,,
,1.31,,,,,,,,,f,blue,5d59d1c4f6a63300198681e8,2021-09-27_19h01.01.141,forced_choiceRT_color,2021.2.3,MacIntel,59.99160118,,,,,,,,2,Ontime,short,j,0,2.0797,0,2,2,1,1,,,,,
,0.19,,,,,,,,,k,purple,5d59d1c4f6a63300198681e8,2021-09-27_19h01.01.141,forced_choiceRT_color,2021.2.3,MacIntel,59.99160118,,,,,,,,2,Ontime,short,k,1,2.0969,0,3,3,3,1,,,,,
,0.26,,,,,,,,,f,blue,5d59d1c4f6a63300198681e8,2021-09-27_19h01.01.141,forced_choiceRT_color,2021.2.3,MacIntel,59.99160118,,,,,,,,2,Ontime,short,j,0,2.0493,1,0,4,1,1,,,,,
,0.77,,,,,,,,,d,orange,5d59d1c4f6a63300198681e8,2021-09-27_19h01.01.141,forced_choiceRT_color,2021.2.3,MacIntel,59.99160118,,,,,,,,2,Slow,short,d,1,2.1024,1,1,5,0,1,,,,,
,0.66,,,,,,,,,j,red,5d59d1c4f6a63300198681e8,2021-09-27_19h01.01.141,forced_choiceRT_color,2021.2.3,MacIntel,59.99160118,,,,,,,,2,Slow,short,f,0,2.1367,1,2,6,2,1,,,,,
,0.93,,,,,,,,,f,blue,5d59d1c4f6a63300198681e8,2021-09-27_19h01.01.141,forced_choiceRT_color,2021.2.3,MacIntel,59.99160118,,,,,,,,2,Ontime,short,j,0,2.0994,1,3,7,1,1,,,,,
,0.7,,,,,,,,,f,blue,5d59d1c4f6a63300198681e8,2021-09-27_19h01.01.141,forced_choiceRT_color,2021.2.3,MacIntel,59.99160118,,,,,,,,2,Slow,short,j,0,2.1017,2,0,8,1,1,,,,,
,1.5,,,,,,,,,d,orange,5d59d1c4f6a63300198681e8,2021-09-27_19h01.01.141,forced_choiceRT_color,2021.2.3,MacIntel,59.99160118,,,,,,,,2,Slow,short,d,1,2.2104,2,1,9,0,1,,,,,
,0.86,,,,,,,,,k,purple,5d59d1c4f6a63300198681e8,2021-09-27_19h01.01.141,forced_choiceRT_color,2021.2.3,MacIntel,59.99160118,,,,,,,,2,Ontime,short,k,1,2.0813,2,2,10,3,1,,,,,
,0.1,,,,,,,,,j,red,5d59d1c4f6a63300198681e8,2021-09-27_19h01.01.141,forced_choiceRT_color,2021.2.3,MacIntel,59.99160118,,,,,,,,2,Ontime,short,j,1,2.0702,2,3,11,2,1,,,,,
,1.31,,,,,,,,,j,red,5d59d1c4f6a63300198681e8,2021-09-27_19h01.01.141,forced_choiceRT_color,2021.2.3,MacIntel,59.99160118,,,,,,,,2,Slow,short,j,1,2.1624,3,0,12,2,1,,,,,
,1.31,,,,,,,,,d,orange,5d59d1c4f6a63300198681e8,2021-09-27_19h01.01.141,forced_choiceRT_color,2021.2.3,MacIntel,59.99160118,,,,,,,,2,Ontime,short,d,1,2.0035,3,1,13,0,1,,,,,
,0.27,,,,,,,,,d,orange,5d59d1c4f6a63300198681e8,2021-09-27_19h01.01.141,forced_choiceRT_color,2021.2.3,MacIntel,59.99160118,,,,,,,,2,Ontime,short,d,1,2.011,3,2,14,0,1,,,,,
,1.94,,,,,,,,,k,purple,5d59d1c4f6a63300198681e8,2021-09-27_19h01.01.141,forced_choiceRT_color,2021.2.3,MacIntel,59.99160118,,,,,,,,2,Slow,short,k,1,2.2367,3,3,15,3,1,,,,,
,0.65,,,,,,,,,d,orange,5d59d1c4f6a63300198681e8,2021-09-27_19h01.01.141,forced_choiceRT_color,2021.2.3,MacIntel,59.99160118,,,,,,,,2,Ontime,short,d,1,2.0046,4,0,16,0,1,,,,,
,1.99,,,,,,,,,k,purple,5d59d1c4f6a63300198681e8,2021-09-27_19h01.01.141,forced_choiceRT_color,2021.2.3,MacIntel,59.99160118,,,,,,,,2,Slow,short,k,1,2.7526,4,1,17,3,1,,,,,
,0.78,,,,,,,,,j,red,5d59d1c4f6a63300198681e8,2021-09-27_19h01.01.141,forced_choiceRT_color,2021.2.3,MacIntel,59.99160118,,,,,,,,2,Slow,short,j,1,2.1837,4,2,18,2,1,,,,,
,0.8,,,,,,,,,k,purple,5d59d1c4f6a63300198681e8,2021-09-27_19h01.01.141,forced_choiceRT_color,2021.2.3,MacIntel,59.99160118,,,,,,,,2,Slow,short,k,1,2.1132,4,3,19,3,1,,,,,
,1.26,,,,,,,,,k,purple,5d59d1c4f6a63300198681e8,2021-09-27_19h01.01.141,forced_choiceRT_color,2021.2.3,MacIntel,59.99160118,,,,,,,,2,Fast,short,k,1,1.6008,5,0,20,3,1,,,,,
,1.7,,,,,,,,,f,blue,5d59d1c4f6a63300198681e8,2021-09-27_19h01.01.141,forced_choiceRT_color,2021.2.3,MacIntel,59.99160118,,,,,,,,2,Ontime,short,f,1,2.0495,5,1,21,1,1,,,,,
,0.39,,,,,,,,,d,orange,5d59d1c4f6a63300198681e8,2021-09-27_19h01.01.141,forced_choiceRT_color,2021.2.3,MacIntel,59.99160118,,,,,,,,2,Ontime,short,d,1,2.0833,5,2,22,0,1,,,,,
,1.84,,,,,,,,,f,blue,5d59d1c4f6a63300198681e8,2021-09-27_19h01.01.141,forced_choiceRT_color,2021.2.3,MacIntel,59.99160118,,,,,,,,2,Slow,short,j,0,2.2764,5,3,23,1,1,,,,,
,1.09,,,,,,,,,k,purple,5d59d1c4f6a63300198681e8,2021-09-27_19h01.01.141,forced_choiceRT_color,2021.2.3,MacIntel,59.99160118,,,,,,,,2,Slow,short,k,1,2.1458,6,0,24,3,1,,,,,
,0.85,,,,,,,,,k,purple,5d59d1c4f6a63300198681e8,2021-09-27_19h01.01.141,forced_choiceRT_color,2021.2.3,MacIntel,59.99160118,,,,,,,,2,Slow,short,k,1,2.1052,6,1,25,3,1,,,,,
,0.62,,,,,,,,,d,orange,5d59d1c4f6a63300198681e8,2021-09-27_19h01.01.141,forced_choiceRT_color,2021.2.3,MacIntel,59.99160118,,,,,,,,2,Ontime,short,d,1,2.0313,6,2,26,0,1,,,,,
,1.77,,,,,,,,,k,purple,5d59d1c4f6a63300198681e8,2021-09-27_19h01.01.141,forced_choiceRT_color,2021.2.3,MacIntel,59.99160118,,,,,,,,2,Slow,short,j,0,2.234,6,3,27,3,1,,,,,
,0.82,,,,,,,,,f,blue,5d59d1c4f6a63300198681e8,2021-09-27_19h01.01.141,forced_choiceRT_color,2021.2.3,MacIntel,59.99160118,,,,,,,,2,Slow,short,j,0,2.1141,7,0,28,1,1,,,,,
,1.95,,,,,,,,,j,red,5d59d1c4f6a63300198681e8,2021-09-27_19h01.01.141,forced_choiceRT_color,2021.2.3,MacIntel,59.99160118,,,,,,,,2,Slow,short,f,0,2.4148,7,1,29,2,1,,,,,
,1.54,,,,,,,,,f,blue,5d59d1c4f6a63300198681e8,2021-09-27_19h01.01.141,forced_choiceRT_color,2021.2.3,MacIntel,59.99160118,,,,,,,,2,Slow,short,f,1,2.9465,7,2,30,1,1,,,,,
,0.42,,,,,,,,,j,red,5d59d1c4f6a63300198681e8,2021-09-27_19h01.01.141,forced_choiceRT_color,2021.2.3,MacIntel,59.99160118,,,,,,,,2,Ontime,short,j,1,2.0718,7,3,31,2,1,,,,,
,0.59,,,,,,,,,j,red,5d59d1c4f6a63300198681e8,2021-09-27_19h01.01.141,forced_choiceRT_color,2021.2.3,MacIntel,59.99160118,,,,,,,,2,Ontime,short,j,1,2.0495,8,0,32,2,1,,,,,
,1.24,,,,,,,,,d,orange,5d59d1c4f6a63300198681e8,2021-09-27_19h01.01.141,forced_choiceRT_color,2021.2.3,MacIntel,59.99160118,,,,,,,,2,Ontime,short,d,1,2.0046,8,1,33,0,1,,,,,
,0.25,,,,,,,,,d,orange,5d59d1c4f6a63300198681e8,2021-09-27_19h01.01.141,forced_choiceRT_color,2021.2.3,MacIntel,59.99160118,,,,,,,,2,Ontime,short,d,1,2.0196,8,2,34,0,1,,,,,
,1.78,,,,,,,,,f,blue,5d59d1c4f6a63300198681e8,2021-09-27_19h01.01.141,forced_choiceRT_color,2021.2.3,MacIntel,59.99160118,,,,,,,,2,Slow,short,f,1,2.1705,8,3,35,1,1,,,,,
,1.68,,,,,,,,,d,orange,5d59d1c4f6a63300198681e8,2021-09-27_19h01.01.141,forced_choiceRT_color,2021.2.3,MacIntel,59.99160118,,,,,,,,2,Slow,short,d,1,2.3509,9,0,36,0,1,,,,,
,1.4,,,,,,,,,j,red,5d59d1c4f6a63300198681e8,2021-09-27_19h01.01.141,forced_choiceRT_color,2021.2.3,MacIntel,59.99160118,,,,,,,,2,Ontime,short,j,1,1.9674,9,1,37,2,1,,,,,
,0.91,,,,,,,,,j,red,5d59d1c4f6a63300198681e8,2021-09-27_19h01.01.141,forced_choiceRT_color,2021.2.3,MacIntel,59.99160118,,,,,,,,2,Ontime,short,j,1,2.0354,9,2,38,2,1,,,,,
,1.39,,,,,,,,,f,blue,5d59d1c4f6a63300198681e8,2021-09-27_19h01.01.141,forced_choiceRT_color,2021.2.3,MacIntel,59.99160118,,,,,,,,2,Ontime,short,f,1,2.0344,9,3,39,1,1,,,,,
,,,,,,,,,,,,5d59d1c4f6a63300198681e8,2021-09-27_19h01.01.141,forced_choiceRT_color,2021.2.3,MacIntel,59.99160118,,,,,,,,,,,,,,,,,,,1,0,1,0,1
,0.31,,,,,,,,,j,red,5d59d1c4f6a63300198681e8,2021-09-27_19h01.01.141,forced_choiceRT_color,2021.2.3,MacIntel,59.99160118,,,,,,,,3,Fast,short,j,1,1.0675,0,0,0,2,1,,,,,
,1.62,,,,,,,,,d,orange,5d59d1c4f6a63300198681e8,2021-09-27_19h01.01.141,forced_choiceRT_color,2021.2.3,MacIntel,59.99160118,,,,,,,,3,Slow,short,d,1,2.3545,0,1,1,0,1,,,,,
,0.46,,,,,,,,,j,red,5d59d1c4f6a63300198681e8,2021-09-27_19h01.01.141,forced_choiceRT_color,2021.2.3,MacIntel,59.99160118,,,,,,,,3,Ontime,short,j,1,2.0986,0,2,2,2,1,,,,,
,1.87,,,,,,,,,d,orange,5d59d1c4f6a63300198681e8,2021-09-27_19h01.01.141,forced_choiceRT_color,2021.2.3,MacIntel,59.99160118,,,,,,,,3,Slow,short,d,1,2.5178,0,3,3,0,1,,,,,
,1.23,,,,,,,,,d,orange,5d59d1c4f6a63300198681e8,2021-09-27_19h01.01.141,forced_choiceRT_color,2021.2.3,MacIntel,59.99160118,,,,,,,,3,Slow,short,d,1,2.1326,1,0,4,0,1,,,,,
,1.11,,,,,,,,,f,blue,5d59d1c4f6a63300198681e8,2021-09-27_19h01.01.141,forced_choiceRT_color,2021.2.3,MacIntel,59.99160118,,,,,,,,3,Fast,short,f,1,1.7702,1,1,5,1,1,,,,,
,1.02,,,,,,,,,j,red,5d59d1c4f6a63300198681e8,2021-09-27_19h01.01.141,forced_choiceRT_color,2021.2.3,MacIntel,59.99160118,,,,,,,,3,Ontime,short,j,1,2.0501,1,2,6,2,1,,,,,
,1.1,,,,,,,,,d,orange,5d59d1c4f6a63300198681e8,2021-09-27_19h01.01.141,forced_choiceRT_color,2021.2.3,MacIntel,59.99160118,,,,,,,,3,Slow,short,d,1,2.1949,1,3,7,0,1,,,,,
,1,,,,,,,,,k,purple,5d59d1c4f6a63300198681e8,2021-09-27_19h01.01.141,forced_choiceRT_color,2021.2.3,MacIntel,59.99160118,,,,,,,,3,Slow,short,k,1,2.1508,2,0,8,3,1,,,,,
,0.34,,,,,,,,,f,blue,5d59d1c4f6a63300198681e8,2021-09-27_19h01.01.141,forced_choiceRT_color,2021.2.3,MacIntel,59.99160118,,,,,,,,3,Ontime,short,f,1,2.0775,2,1,9,1,1,,,,,
,1.99,,,,,,,,,d,orange,5d59d1c4f6a63300198681e8,2021-09-27_19h01.01.141,forced_choiceRT_color,2021.2.3,MacIntel,59.99160118,,,,,,,,3,Slow,short,d,1,2.5517,2,2,10,0,1,,,,,
,1.05,,,,,,,,,f,blue,5d59d1c4f6a63300198681e8,2021-09-27_19h01.01.141,forced_choiceRT_color,2021.2.3,MacIntel,59.99160118,,,,,,,,3,Fast,short,f,1,1.6031,2,3,11,1,1,,,,,
,1.32,,,,,,,,,d,orange,5d59d1c4f6a63300198681e8,2021-09-27_19h01.01.141,forced_choiceRT_color,2021.2.3,MacIntel,59.99160118,,,,,,,,3,Slow,short,d,1,2.1006,3,0,12,0,1,,,,,
,1.86,,,,,,,,,k,purple,5d59d1c4f6a63300198681e8,2021-09-27_19h01.01.141,forced_choiceRT_color,2021.2.3,MacIntel,59.99160118,,,,,,,,3,Slow,short,k,1,2.449,3,1,13,3,1,,,,,
,0.86,,,,,,,,,d,orange,5d59d1c4f6a63300198681e8,2021-09-27_19h01.01.141,forced_choiceRT_color,2021.2.3,MacIntel,59.99160118,,,,,,,,3,Slow,short,d,1,2.1328,3,2,14,0,1,,,,,
,0.34,,,,,,,,,k,purple,5d59d1c4f6a63300198681e8,2021-09-27_19h01.01.141,forced_choiceRT_color,2021.2.3,MacIntel,59.99160118,,,,,,,,3,Ontime,short,k,1,1.9852,3,3,15,3,1,,,,,
,0.18,,,,,,,,,k,purple,5d59d1c4f6a63300198681e8,2021-09-27_19h01.01.141,forced_choiceRT_color,2021.2.3,MacIntel,59.99160118,,,,,,,,3,Ontime,short,k,1,1.9932,4,0,16,3,1,,,,,
,1.51,,,,,,,,,j,red,5d59d1c4f6a63300198681e8,2021-09-27_19h01.01.141,forced_choiceRT_color,2021.2.3,MacIntel,59.99160118,,,,,,,,3,Ontime,short,f,0,2.037,4,1,17,2,1,,,,,
,1.19,,,,,,,,,k,purple,5d59d1c4f6a63300198681e8,2021-09-27_19h01.01.141,forced_choiceRT_color,2021.2.3,MacIntel,59.99160118,,,,,,,,3,Fast,short,j,0,0.078,4,2,18,3,1,,,,,
,1.85,,,,,,,,,f,blue,5d59d1c4f6a63300198681e8,2021-09-27_19h01.01.141,forced_choiceRT_color,2021.2.3,MacIntel,59.99160118,,,,,,,,3,Slow,short,d,0,2.4139,4,3,19,1,1,,,,,
,1.82,,,,,,,,,f,blue,5d59d1c4f6a63300198681e8,2021-09-27_19h01.01.141,forced_choiceRT_color,2021.2.3,MacIntel,59.99160118,,,,,,,,3,Slow,short,f,1,2.6346,5,0,20,1,1,,,,,
,1.49,,,,,,,,,f,blue,5d59d1c4f6a63300198681e8,2021-09-27_19h01.01.141,forced_choiceRT_color,2021.2.3,MacIntel,59.99160118,,,,,,,,3,Ontime,short,f,1,2.0626,5,1,21,1,1,,,,,
,0.09,,,,,,,,,k,purple,5d59d1c4f6a63300198681e8,2021-09-27_19h01.01.141,forced_choiceRT_color,2021.2.3,MacIntel,59.99160118,,,,,,,,3,Ontime,short,k,1,1.9974,5,2,22,3,1,,,,,
,0.87,,,,,,,,,d,orange,5d59d1c4f6a63300198681e8,2021-09-27_19h01.01.141,forced_choiceRT_color,2021.2.3,MacIntel,59.99160118,,,,,,,,3,Ontime,short,d,1,2.0702,5,3,23,0,1,,,,,
,1.23,,,,,,,,,j,red,5d59d1c4f6a63300198681e8,2021-09-27_19h01.01.141,forced_choiceRT_color,2021.2.3,MacIntel,59.99160118,,,,,,,,3,Slow,short,j,1,2.1514,6,0,24,2,1,,,,,
,0.36,,,,,,,,,f,blue,5d59d1c4f6a63300198681e8,2021-09-27_19h01.01.141,forced_choiceRT_color,2021.2.3,MacIntel,59.99160118,,,,,,,,3,Ontime,short,f,1,2.0539,6,1,25,1,1,,,,,
,1.42,,,,,,,,,f,blue,5d59d1c4f6a63300198681e8,2021-09-27_19h01.01.141,forced_choiceRT_color,2021.2.3,MacIntel,59.99160118,,,,,,,,3,Ontime,short,f,1,2.0674,6,2,26,1,1,,,,,
,0.49,,,,,,,,,j,red,5d59d1c4f6a63300198681e8,2021-09-27_19h01.01.141,forced_choiceRT_color,2021.2.3,MacIntel,59.99160118,,,,,,,,3,Ontime,short,j,1,2.0523,6,3,27,2,1,,,,,
,0.46,,,,,,,,,j,red,5d59d1c4f6a63300198681e8,2021-09-27_19h01.01.141,forced_choiceRT_color,2021.2.3,MacIntel,59.99160118,,,,,,,,3,Slow,short,j,1,2.132,7,0,28,2,1,,,,,
,0.45,,,,,,,,,k,purple,5d59d1c4f6a63300198681e8,2021-09-27_19h01.01.141,forced_choiceRT_color,2021.2.3,MacIntel,59.99160118,,,,,,,,3,Ontime,short,k,1,2.0478,7,1,29,3,1,,,,,
,1.56,,,,,,,,,d,orange,5d59d1c4f6a63300198681e8,2021-09-27_19h01.01.141,forced_choiceRT_color,2021.2.3,MacIntel,59.99160118,,,,,,,,3,Ontime,short,d,1,2.0895,7,2,30,0,1,,,,,
,1.07,,,,,,,,,j,red,5d59d1c4f6a63300198681e8,2021-09-27_19h01.01.141,forced_choiceRT_color,2021.2.3,MacIntel,59.99160118,,,,,,,,3,Ontime,short,f,0,1.9832,7,3,31,2,1,,,,,
,0.05,,,,,,,,,f,blue,5d59d1c4f6a63300198681e8,2021-09-27_19h01.01.141,forced_choiceRT_color,2021.2.3,MacIntel,59.99160118,,,,,,,,3,Ontime,short,f,1,2.0523,8,0,32,1,1,,,,,
,1.22,,,,,,,,,j,red,5d59d1c4f6a63300198681e8,2021-09-27_19h01.01.141,forced_choiceRT_color,2021.2.3,MacIntel,59.99160118,,,,,,,,3,Ontime,short,j,1,2.0669,8,1,33,2,1,,,,,
,1.44,,,,,,,,,d,orange,5d59d1c4f6a63300198681e8,2021-09-27_19h01.01.141,forced_choiceRT_color,2021.2.3,MacIntel,59.99160118,,,,,,,,3,Slow,short,d,1,2.1794,8,2,34,0,1,,,,,
,0.71,,,,,,,,,k,purple,5d59d1c4f6a63300198681e8,2021-09-27_19h01.01.141,forced_choiceRT_color,2021.2.3,MacIntel,59.99160118,,,,,,,,3,Slow,short,k,1,2.1361,8,3,35,3,1,,,,,
,0.99,,,,,,,,,k,purple,5d59d1c4f6a63300198681e8,2021-09-27_19h01.01.141,forced_choiceRT_color,2021.2.3,MacIntel,59.99160118,,,,,,,,3,Ontime,short,k,1,2.0819,9,0,36,3,1,,,,,
,1.32,,,,,,,,,f,blue,5d59d1c4f6a63300198681e8,2021-09-27_19h01.01.141,forced_choiceRT_color,2021.2.3,MacIntel,59.99160118,,,,,,,,3,Ontime,short,f,1,1.9233,9,1,37,1,1,,,,,
,1.04,,,,,,,,,k,purple,5d59d1c4f6a63300198681e8,2021-09-27_19h01.01.141,forced_choiceRT_color,2021.2.3,MacIntel,59.99160118,,,,,,,,3,Ontime,short,k,1,2.0214,9,2,38,3,1,,,,,
,1.33,,,,,,,,,j,red,5d59d1c4f6a63300198681e8,2021-09-27_19h01.01.141,forced_choiceRT_color,2021.2.3,MacIntel,59.99160118,,,,,,,,3,Ontime,short,j,1,2.0842,9,3,39,2,1,,,,,
,,,,,,,,,,,,5d59d1c4f6a63300198681e8,2021-09-27_19h01.01.141,forced_choiceRT_color,2021.2.3,MacIntel,59.99160118,,,,,,,,,,,,,,,,,,,2,0,2,0,1
,0.21,,,,,,,,,d,orange,5d59d1c4f6a63300198681e8,2021-09-27_19h01.01.141,forced_choiceRT_color,2021.2.3,MacIntel,59.99160118,,,,,,,,4,Slow,short,d,1,2.1019,0,0,0,0,1,,,,,
,0.17,,,,,,,,,f,blue,5d59d1c4f6a63300198681e8,2021-09-27_19h01.01.141,forced_choiceRT_color,2021.2.3,MacIntel,59.99160118,,,,,,,,4,Slow,short,f,1,2.1062,0,1,1,1,1,,,,,
,0.45,,,,,,,,,f,blue,5d59d1c4f6a63300198681e8,2021-09-27_19h01.01.141,forced_choiceRT_color,2021.2.3,MacIntel,59.99160118,,,,,,,,4,Ontime,short,f,1,2.0327,0,2,2,1,1,,,,,
,0.46,,,,,,,,,j,red,5d59d1c4f6a63300198681e8,2021-09-27_19h01.01.141,forced_choiceRT_color,2021.2.3,MacIntel,59.99160118,,,,,,,,4,Ontime,short,j,1,2.0196,0,3,3,2,1,,,,,
,1.46,,,,,,,,,f,blue,5d59d1c4f6a63300198681e8,2021-09-27_19h01.01.141,forced_choiceRT_color,2021.2.3,MacIntel,59.99160118,,,,,,,,4,Slow,short,f,1,2.2007,1,0,4,1,1,,,,,
,1.05,,,,,,,,,j,red,5d59d1c4f6a63300198681e8,2021-09-27_19h01.01.141,forced_choiceRT_color,2021.2.3,MacIntel,59.99160118,,,,,,,,4,Slow,short,j,1,2.1147,1,1,5,2,1,,,,,
,0.67,,,,,,,,,j,red,5d59d1c4f6a63300198681e8,2021-09-27_19h01.01.141,forced_choiceRT_color,2021.2.3,MacIntel,59.99160118,,,,,,,,4,Ontime,short,j,1,2.0032,1,2,6,2,1,,,,,
,1.35,,,,,,,,,d,orange,5d59d1c4f6a63300198681e8,2021-09-27_19h01.01.141,forced_choiceRT_color,2021.2.3,MacIntel,59.99160118,,,,,,,,4,Slow,short,d,1,2.1558,1,3,7,0,1,,,,,
,1.08,,,,,,,,,d,orange,5d59d1c4f6a63300198681e8,2021-09-27_19h01.01.141,forced_choiceRT_color,2021.2.3,MacIntel,59.99160118,,,,,,,,4,Ontime,short,d,1,2.0427,2,0,8,0,1,,,,,
,0.6,,,,,,,,,d,orange,5d59d1c4f6a63300198681e8,2021-09-27_19h01.01.141,forced_choiceRT_color,2021.2.3,MacIntel,59.99160118,,,,,,,,4,Ontime,short,d,1,2.0152,2,1,9,0,1,,,,,
,1.67,,,,,,,,,k,purple,5d59d1c4f6a63300198681e8,2021-09-27_19h01.01.141,forced_choiceRT_color,2021.2.3,MacIntel,59.99160118,,,,,,,,4,Slow,short,k,1,2.3034,2,2,10,3,1,,,,,
,0.93,,,,,,,,,k,purple,5d59d1c4f6a63300198681e8,2021-09-27_19h01.01.141,forced_choiceRT_color,2021.2.3,MacIntel,59.99160118,,,,,,,,4,Ontime,short,k,1,2.0803,2,3,11,3,1,,,,,
,0.05,,,,,,,,,j,red,5d59d1c4f6a63300198681e8,2021-09-27_19h01.01.141,forced_choiceRT_color,2021.2.3,MacIntel,59.99160118,,,,,,,,4,Slow,short,j,1,2.1179,3,0,12,2,1,,,,,
,0.33,,,,,,,,,f,blue,5d59d1c4f6a63300198681e8,2021-09-27_19h01.01.141,forced_choiceRT_color,2021.2.3,MacIntel,59.99160118,,,,,,,,4,Ontime,short,f,1,2.0346,3,1,13,1,1,,,,,
,1.64,,,,,,,,,j,red,5d59d1c4f6a63300198681e8,2021-09-27_19h01.01.141,forced_choiceRT_color,2021.2.3,MacIntel,59.99160118,,,,,,,,4,Slow,short,f,0,2.1659,3,2,14,2,1,,,,,
,1.91,,,,,,,,,j,red,5d59d1c4f6a63300198681e8,2021-09-27_19h01.01.141,forced_choiceRT_color,2021.2.3,MacIntel,59.99160118,,,,,,,,4,Slow,short,j,1,2.5489,3,3,15,2,1,,,,,
,0.55,,,,,,,,,k,purple,5d59d1c4f6a63300198681e8,2021-09-27_19h01.01.141,forced_choiceRT_color,2021.2.3,MacIntel,59.99160118,,,,,,,,4,Ontime,short,k,1,2.0944,4,0,16,3,1,,,,,
,1.39,,,,,,,,,d,orange,5d59d1c4f6a63300198681e8,2021-09-27_19h01.01.141,forced_choiceRT_color,2021.2.3,MacIntel,59.99160118,,,,,,,,4,Slow,short,d,1,2.1852,4,1,17,0,1,,,,,
,1.24,,,,,,,,,d,orange,5d59d1c4f6a63300198681e8,2021-09-27_19h01.01.141,forced_choiceRT_color,2021.2.3,MacIntel,59.99160118,,,,,,,,4,Slow,short,d,1,2.1342,4,2,18,0,1,,,,,
,1.5,,,,,,,,,f,blue,5d59d1c4f6a63300198681e8,2021-09-27_19h01.01.141,forced_choiceRT_color,2021.2.3,MacIntel,59.99160118,,,,,,,,4,Slow,short,f,1,2.165,4,3,19,1,1,,,,,
,1.2,,,,,,,,,f,blue,5d59d1c4f6a63300198681e8,2021-09-27_19h01.01.141,forced_choiceRT_color,2021.2.3,MacIntel,59.99160118,,,,,,,,4,Ontime,short,f,1,2.0724,5,0,20,1,1,,,,,
,0.29,,,,,,,,,k,purple,5d59d1c4f6a63300198681e8,2021-09-27_19h01.01.141,forced_choiceRT_color,2021.2.3,MacIntel,59.99160118,,,,,,,,4,Ontime,short,k,1,1.9695,5,1,21,3,1,,,,,
,1.03,,,,,,,,,k,purple,5d59d1c4f6a63300198681e8,2021-09-27_19h01.01.141,forced_choiceRT_color,2021.2.3,MacIntel,59.99160118,,,,,,,,4,Ontime,short,k,1,2.0694,5,2,22,3,1,,,,,
,0.25,,,,,,,,,k,purple,5d59d1c4f6a63300198681e8,2021-09-27_19h01.01.141,forced_choiceRT_color,2021.2.3,MacIntel,59.99160118,,,,,,,,4,Ontime,short,k,1,1.9848,5,3,23,3,1,,,,,
,1.94,,,,,,,,,d,orange,5d59d1c4f6a63300198681e8,2021-09-27_19h01.01.141,forced_choiceRT_color,2021.2.3,MacIntel,59.99160118,,,,,,,,4,Slow,short,d,1,2.6198,6,0,24,0,1,,,,,
,0.61,,,,,,,,,j,red,5d59d1c4f6a63300198681e8,2021-09-27_19h01.01.141,forced_choiceRT_color,2021.2.3,MacIntel,59.99160118,,,,,,,,4,Fast,short,j,1,1.8824,6,1,25,2,1,,,,,
,0.31,,,,,,,,,d,orange,5d59d1c4f6a63300198681e8,2021-09-27_19h01.01.141,forced_choiceRT_color,2021.2.3,MacIntel,59.99160118,,,,,,,,4,Ontime,short,d,1,1.9873,6,2,26,0,1,,,,,
,0.52,,,,,,,,,k,purple,5d59d1c4f6a63300198681e8,2021-09-27_19h01.01.141,forced_choiceRT_color,2021.2.3,MacIntel,59.99160118,,,,,,,,4,Slow,short,k,1,2.1026,6,3,27,3,1,,,,,
,1.77,,,,,,,,,d,orange,5d59d1c4f6a63300198681e8,2021-09-27_19h01.01.141,forced_choiceRT_color,2021.2.3,MacIntel,59.99160118,,,,,,,,4,Slow,short,d,1,2.3342,7,0,28,0,1,,,,,
,1.3,,,,,,,,,d,orange,5d59d1c4f6a63300198681e8,2021-09-27_19h01.01.141,forced_choiceRT_color,2021.2.3,MacIntel,59.99160118,,,,,,,,4,Ontime,short,d,1,1.9979,7,1,29,0,1,,,,,
,1.56,,,,,,,,,f,blue,5d59d1c4f6a63300198681e8,2021-09-27_19h01.01.141,forced_choiceRT_color,2021.2.3,MacIntel,59.99160118,,,,,,,,4,Ontime,short,f,1,2.0028,7,2,30,1,1,,,,,
,1.53,,,,,,,,,k,purple,5d59d1c4f6a63300198681e8,2021-09-27_19h01.01.141,forced_choiceRT_color,2021.2.3,MacIntel,59.99160118,,,,,,,,4,Slow,short,k,1,2.1843,7,3,31,3,1,,,,,
,0.98,,,,,,,,,j,red,5d59d1c4f6a63300198681e8,2021-09-27_19h01.01.141,forced_choiceRT_color,2021.2.3,MacIntel,59.99160118,,,,,,,,4,Fast,short,j,1,1.6851,8,0,32,2,1,,,,,
,1.35,,,,,,,,,j,red,5d59d1c4f6a63300198681e8,2021-09-27_19h01.01.141,forced_choiceRT_color,2021.2.3,MacIntel,59.99160118,,,,,,,,4,Ontime,short,j,1,2.0186,8,1,33,2,1,,,,,
,1.11,,,,,,,,,k,purple,5d59d1c4f6a63300198681e8,2021-09-27_19h01.01.141,forced_choiceRT_color,2021.2.3,MacIntel,59.99160118,,,,,,,,4,Slow,short,k,1,2.1001,8,2,34,3,1,,,,,
,1.19,,,,,,,,,f,blue,5d59d1c4f6a63300198681e8,2021-09-27_19h01.01.141,forced_choiceRT_color,2021.2.3,MacIntel,59.99160118,,,,,,,,4,Fast,short,f,1,1.7503,8,3,35,1,1,,,,,
,1.11,,,,,,,,,f,blue,5d59d1c4f6a63300198681e8,2021-09-27_19h01.01.141,forced_choiceRT_color,2021.2.3,MacIntel,59.99160118,,,,,,,,4,Slow,short,f,1,2.1487,9,0,36,1,1,,,,,
,1.39,,,,,,,,,f,blue,5d59d1c4f6a63300198681e8,2021-09-27_19h01.01.141,forced_choiceRT_color,2021.2.3,MacIntel,59.99160118,,,,,,,,4,Ontime,short,f,1,2.0144,9,1,37,1,1,,,,,
,0.56,,,,,,,,,k,purple,5d59d1c4f6a63300198681e8,2021-09-27_19h01.01.141,forced_choiceRT_color,2021.2.3,MacIntel,59.99160118,,,,,,,,4,Ontime,short,k,1,2.0689,9,2,38,3,1,,,,,
,1.77,,,,,,,,,j,red,5d59d1c4f6a63300198681e8,2021-09-27_19h01.01.141,forced_choiceRT_color,2021.2.3,MacIntel,59.99160118,,,,,,,,4,Slow,short,j,1,2.2688,9,3,39,2,1,,,,,
,,,,,,,,,,,,5d59d1c4f6a63300198681e8,2021-09-27_19h01.01.141,forced_choiceRT_color,2021.2.3,MacIntel,59.99160118,,,,,,,,,,,,,,,,,,,3,0,3,0,1
,1.48,,,,,,,,,d,orange,5d59d1c4f6a63300198681e8,2021-09-27_19h01.01.141,forced_choiceRT_color,2021.2.3,MacIntel,59.99160118,,,,,,,,5,Fast,short,d,1,1.8275,0,0,0,0,1,,,,,
,0.1,,,,,,,,,j,red,5d59d1c4f6a63300198681e8,2021-09-27_19h01.01.141,forced_choiceRT_color,2021.2.3,MacIntel,59.99160118,,,,,,,,5,Slow,short,j,1,2.1511,0,1,1,2,1,,,,,
,0.03,,,,,,,,,k,purple,5d59d1c4f6a63300198681e8,2021-09-27_19h01.01.141,forced_choiceRT_color,2021.2.3,MacIntel,59.99160118,,,,,,,,5,Ontime,short,k,1,1.9818,0,2,2,3,1,,,,,
,0.57,,,,,,,,,f,blue,5d59d1c4f6a63300198681e8,2021-09-27_19h01.01.141,forced_choiceRT_color,2021.2.3,MacIntel,59.99160118,,,,,,,,5,Ontime,short,f,1,2.08,0,3,3,1,1,,,,,
,1.5,,,,,,,,,f,blue,5d59d1c4f6a63300198681e8,2021-09-27_19h01.01.141,forced_choiceRT_color,2021.2.3,MacIntel,59.99160118,,,,,,,,5,Slow,short,f,1,2.1512,1,0,4,1,1,,,,,
,1.23,,,,,,,,,d,orange,5d59d1c4f6a63300198681e8,2021-09-27_19h01.01.141,forced_choiceRT_color,2021.2.3,MacIntel,59.99160118,,,,,,,,5,Ontime,short,d,1,2.0317,1,1,5,0,1,,,,,
,1.46,,,,,,,,,f,blue,5d59d1c4f6a63300198681e8,2021-09-27_19h01.01.141,forced_choiceRT_color,2021.2.3,MacIntel,59.99160118,,,,,,,,5,Ontime,short,f,1,2.0375,1,2,6,1,1,,,,,
,0.75,,,,,,,,,j,red,5d59d1c4f6a63300198681e8,2021-09-27_19h01.01.141,forced_choiceRT_color,2021.2.3,MacIntel,59.99160118,,,,,,,,5,Ontime,short,j,1,2.0213,1,3,7,2,1,,,,,
,1.75,,,,,,,,,k,purple,5d59d1c4f6a63300198681e8,2021-09-27_19h01.01.141,forced_choiceRT_color,2021.2.3,MacIntel,59.99160118,,,,,,,,5,Slow,short,k,1,2.199,2,0,8,3,1,,,,,
,1.36,,,,,,,,,k,purple,5d59d1c4f6a63300198681e8,2021-09-27_19h01.01.141,forced_choiceRT_color,2021.2.3,MacIntel,59.99160118,,,,,,,,5,Ontime,short,k,1,2.0987,2,1,9,3,1,,,,,
,1.42,,,,,,,,,d,orange,5d59d1c4f6a63300198681e8,2021-09-27_19h01.01.141,forced_choiceRT_color,2021.2.3,MacIntel,59.99160118,,,,,,,,5,Slow,short,d,1,2.1341,2,2,10,0,1,,,,,
,1.37,,,,,,,,,j,red,5d59d1c4f6a63300198681e8,2021-09-27_19h01.01.141,forced_choiceRT_color,2021.2.3,MacIntel,59.99160118,,,,,,,,5,Slow,short,f,0,2.2023,2,3,11,2,1,,,,,
,0.03,,,,,,,,,d,orange,5d59d1c4f6a63300198681e8,2021-09-27_19h01.01.141,forced_choiceRT_color,2021.2.3,MacIntel,59.99160118,,,,,,,,5,Ontime,short,d,1,2.0002,3,0,12,0,1,,,,,
,0.09,,,,,,,,,k,purple,5d59d1c4f6a63300198681e8,2021-09-27_19h01.01.141,forced_choiceRT_color,2021.2.3,MacIntel,59.99160118,,,,,,,,5,Slow,short,k,1,2.1691,3,1,13,3,1,,,,,
,0.98,,,,,,,,,k,purple,5d59d1c4f6a63300198681e8,2021-09-27_19h01.01.141,forced_choiceRT_color,2021.2.3,MacIntel,59.99160118,,,,,,,,5,Ontime,short,k,1,1.9573,3,2,14,3,1,,,,,
,1.8,,,,,,,,,k,purple,5d59d1c4f6a63300198681e8,2021-09-27_19h01.01.141,forced_choiceRT_color,2021.2.3,MacIntel,59.99160118,,,,,,,,5,Slow,short,k,1,2.223,3,3,15,3,1,,,,,
,1.16,,,,,,,,,d,orange,5d59d1c4f6a63300198681e8,2021-09-27_19h01.01.141,forced_choiceRT_color,2021.2.3,MacIntel,59.99160118,,,,,,,,5,Slow,short,d,1,2.1845,4,0,16,0,1,,,,,
,0.74,,,,,,,,,d,orange,5d59d1c4f6a63300198681e8,2021-09-27_19h01.01.141,forced_choiceRT_color,2021.2.3,MacIntel,59.99160118,,,,,,,,5,Ontime,short,d,1,2.0608,4,1,17,0,1,,,,,
,0.34,,,,,,,,,j,red,5d59d1c4f6a63300198681e8,2021-09-27_19h01.01.141,forced_choiceRT_color,2021.2.3,MacIntel,59.99160118,,,,,,,,5,Ontime,short,j,1,2.0142,4,2,18,2,1,,,,,
,1.47,,,,,,,,,j,red,5d59d1c4f6a63300198681e8,2021-09-27_19h01.01.141,forced_choiceRT_color,2021.2.3,MacIntel,59.99160118,,,,,,,,5,Ontime,short,j,1,1.9169,4,3,19,2,1,,,,,
,1.95,,,,,,,,,f,blue,5d59d1c4f6a63300198681e8,2021-09-27_19h01.01.141,forced_choiceRT_color,2021.2.3,MacIntel,59.99160118,,,,,,,,5,Slow,short,f,1,2.5056,5,0,20,1,1,,,,,
,0.88,,,,,,,,,f,blue,5d59d1c4f6a63300198681e8,2021-09-27_19h01.01.141,forced_choiceRT_color,2021.2.3,MacIntel,59.99160118,,,,,,,,5,Ontime,short,f,1,2.067,5,1,21,1,1,,,,,
,0.34,,,,,,,,,f,blue,5d59d1c4f6a63300198681e8,2021-09-27_19h01.01.141,forced_choiceRT_color,2021.2.3,MacIntel,59.99160118,,,,,,,,5,Ontime,short,f,1,2.0032,5,2,22,1,1,,,,,
,0.95,,,,,,,,,d,orange,5d59d1c4f6a63300198681e8,2021-09-27_19h01.01.141,forced_choiceRT_color,2021.2.3,MacIntel,59.99160118,,,,,,,,5,Slow,short,d,1,2.1448,5,3,23,0,1,,,,,
,1.2,,,,,,,,,k,purple,5d59d1c4f6a63300198681e8,2021-09-27_19h01.01.141,forced_choiceRT_color,2021.2.3,MacIntel,59.99160118,,,,,,,,5,Fast,short,k,1,1.7455,6,0,24,3,1,,,,,
,1.27,,,,,,,,,f,blue,5d59d1c4f6a63300198681e8,2021-09-27_19h01.01.141,forced_choiceRT_color,2021.2.3,MacIntel,59.99160118,,,,,,,,5,Fast,short,f,1,1.821,6,1,25,1,1,,,,,
,1.3,,,,,,,,,k,purple,5d59d1c4f6a63300198681e8,2021-09-27_19h01.01.141,forced_choiceRT_color,2021.2.3,MacIntel,59.99160118,,,,,,,,5,Ontime,short,k,1,2.0302,6,2,26,3,1,,,,,
,1.15,,,,,,,,,f,blue,5d59d1c4f6a63300198681e8,2021-09-27_19h01.01.141,forced_choiceRT_color,2021.2.3,MacIntel,59.99160118,,,,,,,,5,Ontime,short,f,1,1.9534,6,3,27,1,1,,,,,
,1.65,,,,,,,,,k,purple,5d59d1c4f6a63300198681e8,2021-09-27_19h01.01.141,forced_choiceRT_color,2021.2.3,MacIntel,59.99160118,,,,,,,,5,Slow,short,k,1,2.2347,7,0,28,3,1,,,,,
,0.8,,,,,,,,,j,red,5d59d1c4f6a63300198681e8,2021-09-27_19h01.01.141,forced_choiceRT_color,2021.2.3,MacIntel,59.99160118,,,,,,,,5,Slow,short,j,1,2.1513,7,1,29,2,1,,,,,
,1.9,,,,,,,,,j,red,5d59d1c4f6a63300198681e8,2021-09-27_19h01.01.141,forced_choiceRT_color,2021.2.3,MacIntel,59.99160118,,,,,,,,5,Slow,short,j,1,2.4106,7,2,30,2,1,,,,,
,0.54,,,,,,,,,f,blue,5d59d1c4f6a63300198681e8,2021-09-27_19h01.01.141,forced_choiceRT_color,2021.2.3,MacIntel,59.99160118,,,,,,,,5,Ontime,short,f,1,2.0658,7,3,31,1,1,,,,,
,1.84,,,,,,,,,j,red,5d59d1c4f6a63300198681e8,2021-09-27_19h01.01.141,forced_choiceRT_color,2021.2.3,MacIntel,59.99160118,,,,,,,,5,Slow,short,j,1,2.3818,8,0,32,2,1,,,,,
,0.09,,,,,,,,,f,blue,5d59d1c4f6a63300198681e8,2021-09-27_19h01.01.141,forced_choiceRT_color,2021.2.3,MacIntel,59.99160118,,,,,,,,5,Slow,short,f,1,2.1035,8,1,33,1,1,,,,,
,0.87,,,,,,,,,d,orange,5d59d1c4f6a63300198681e8,2021-09-27_19h01.01.141,forced_choiceRT_color,2021.2.3,MacIntel,59.99160118,,,,,,,,5,Ontime,short,d,1,2.0802,8,2,34,0,1,,,,,
,1.29,,,,,,,,,d,orange,5d59d1c4f6a63300198681e8,2021-09-27_19h01.01.141,forced_choiceRT_color,2021.2.3,MacIntel,59.99160118,,,,,,,,5,Ontime,short,d,1,2.0208,8,3,35,0,1,,,,,
,1.75,,,,,,,,,j,red,5d59d1c4f6a63300198681e8,2021-09-27_19h01.01.141,forced_choiceRT_color,2021.2.3,MacIntel,59.99160118,,,,,,,,5,Slow,short,j,1,2.2192,9,0,36,2,1,,,,,
,1.03,,,,,,,,,k,purple,5d59d1c4f6a63300198681e8,2021-09-27_19h01.01.141,forced_choiceRT_color,2021.2.3,MacIntel,59.99160118,,,,,,,,5,Ontime,short,k,1,2.006,9,1,37,3,1,,,,,
,0.22,,,,,,,,,d,orange,5d59d1c4f6a63300198681e8,2021-09-27_19h01.01.141,forced_choiceRT_color,2021.2.3,MacIntel,59.99160118,,,,,,,,5,Ontime,short,d,1,2.0212,9,2,38,0,1,,,,,
,1.8,,,,,,,,,j,red,5d59d1c4f6a63300198681e8,2021-09-27_19h01.01.141,forced_choiceRT_color,2021.2.3,MacIntel,59.99160118,,,,,,,,5,Slow,short,j,1,2.1858,9,3,39,2,1,,,,,
,,,,,,,,,,,,5d59d1c4f6a63300198681e8,2021-09-27_19h01.01.141,forced_choiceRT_color,2021.2.3,MacIntel,59.99160118,,,,,,,,,,,,,,,,,,,4,0,4,0,1
,1.52,,,,,,,,,f,blue,5d59d1c4f6a63300198681e8,2021-09-27_19h01.01.141,forced_choiceRT_color,2021.2.3,MacIntel,59.99160118,,,,,,,,6,Ontime,short,f,1,2.0724,0,0,0,1,1,,,,,
,1.79,,,,,,,,,d,orange,5d59d1c4f6a63300198681e8,2021-09-27_19h01.01.141,forced_choiceRT_color,2021.2.3,MacIntel,59.99160118,,,,,,,,6,Slow,short,d,1,2.2685,0,1,1,0,1,,,,,
,1.5,,,,,,,,,k,purple,5d59d1c4f6a63300198681e8,2021-09-27_19h01.01.141,forced_choiceRT_color,2021.2.3,MacIntel,59.99160118,,,,,,,,6,Slow,short,k,1,2.1309,0,2,2,3,1,,,,,
,1,,,,,,,,,k,purple,5d59d1c4f6a63300198681e8,2021-09-27_19h01.01.141,forced_choiceRT_color,2021.2.3,MacIntel,59.99160118,,,,,,,,6,Ontime,short,k,1,2.0008,0,3,3,3,1,,,,,
,1.36,,,,,,,,,j,red,5d59d1c4f6a63300198681e8,2021-09-27_19h01.01.141,forced_choiceRT_color,2021.2.3,MacIntel,59.99160118,,,,,,,,6,Ontime,short,j,1,1.918,1,0,4,2,1,,,,,
,0.37,,,,,,,,,k,purple,5d59d1c4f6a63300198681e8,2021-09-27_19h01.01.141,forced_choiceRT_color,2021.2.3,MacIntel,59.99160118,,,,,,,,6,Ontime,short,k,1,1.9693,1,1,5,3,1,,,,,
,1.33,,,,,,,,,j,red,5d59d1c4f6a63300198681e8,2021-09-27_19h01.01.141,forced_choiceRT_color,2021.2.3,MacIntel,59.99160118,,,,,,,,6,Ontime,short,j,1,1.934,1,2,6,2,1,,,,,
,0.4,,,,,,,,,j,red,5d59d1c4f6a63300198681e8,2021-09-27_19h01.01.141,forced_choiceRT_color,2021.2.3,MacIntel,59.99160118,,,,,,,,6,Ontime,short,j,1,1.9264,1,3,7,2,1,,,,,
,0.01,,,,,,,,,f,blue,5d59d1c4f6a63300198681e8,2021-09-27_19h01.01.141,forced_choiceRT_color,2021.2.3,MacIntel,59.99160118,,,,,,,,6,Ontime,short,f,1,1.9894,2,0,8,1,1,,,,,
,0.68,,,,,,,,,f,blue,5d59d1c4f6a63300198681e8,2021-09-27_19h01.01.141,forced_choiceRT_color,2021.2.3,MacIntel,59.99160118,,,,,,,,6,Ontime,short,f,1,1.9719,2,1,9,1,1,,,,,
,1.29,,,,,,,,,f,blue,5d59d1c4f6a63300198681e8,2021-09-27_19h01.01.141,forced_choiceRT_color,2021.2.3,MacIntel,59.99160118,,,,,,,,6,Ontime,short,f,1,2.081,2,2,10,1,1,,,,,
,1.88,,,,,,,,,j,red,5d59d1c4f6a63300198681e8,2021-09-27_19h01.01.141,forced_choiceRT_color,2021.2.3,MacIntel,59.99160118,,,,,,,,6,Slow,short,j,1,2.5028,2,3,11,2,1,,,,,
,1.9,,,,,,,,,d,orange,5d59d1c4f6a63300198681e8,2021-09-27_19h01.01.141,forced_choiceRT_color,2021.2.3,MacIntel,59.99160118,,,,,,,,6,Slow,short,d,1,2.525,3,0,12,0,1,,,,,
,1.52,,,,,,,,,d,orange,5d59d1c4f6a63300198681e8,2021-09-27_19h01.01.141,forced_choiceRT_color,2021.2.3,MacIntel,59.99160118,,,,,,,,6,Ontime,short,d,1,2.0021,3,1,13,0,1,,,,,
,1.17,,,,,,,,,k,purple,5d59d1c4f6a63300198681e8,2021-09-27_19h01.01.141,forced_choiceRT_color,2021.2.3,MacIntel,59.99160118,,,,,,,,6,Slow,short,k,1,2.2202,3,2,14,3,1,,,,,
,0.56,,,,,,,,,j,red,5d59d1c4f6a63300198681e8,2021-09-27_19h01.01.141,forced_choiceRT_color,2021.2.3,MacIntel,59.99160118,,,,,,,,6,Ontime,short,j,1,2.0445,3,3,15,2,1,,,,,
,0.78,,,,,,,,,f,blue,5d59d1c4f6a63300198681e8,2021-09-27_19h01.01.141,forced_choiceRT_color,2021.2.3,MacIntel,59.99160118,,,,,,,,6,Ontime,short,f,1,2.0037,4,0,16,1,1,,,,,
,0.95,,,,,,,,,f,blue,5d59d1c4f6a63300198681e8,2021-09-27_19h01.01.141,forced_choiceRT_color,2021.2.3,MacIntel,59.99160118,,,,,,,,6,Ontime,short,f,1,2.0438,4,1,17,1,1,,,,,
,1.87,,,,,,,,,f,blue,5d59d1c4f6a63300198681e8,2021-09-27_19h01.01.141,forced_choiceRT_color,2021.2.3,MacIntel,59.99160118,,,,,,,,6,Slow,short,f,1,2.3162,4,2,18,1,1,,,,,
,1.19,,,,,,,,,k,purple,5d59d1c4f6a63300198681e8,2021-09-27_19h01.01.141,forced_choiceRT_color,2021.2.3,MacIntel,59.99160118,,,,,,,,6,Ontime,short,k,1,1.9323,4,3,19,3,1,,,,,
,1.5,,,,,,,,,f,blue,5d59d1c4f6a63300198681e8,2021-09-27_19h01.01.141,forced_choiceRT_color,2021.2.3,MacIntel,59.99160118,,,,,,,,6,Slow,short,f,1,2.3028,5,0,20,1,1,,,,,
,1.07,,,,,,,,,f,blue,5d59d1c4f6a63300198681e8,2021-09-27_19h01.01.141,forced_choiceRT_color,2021.2.3,MacIntel,59.99160118,,,,,,,,6,Fast,short,f,1,1.8478,5,1,21,1,1,,,,,
,0.94,,,,,,,,,d,orange,5d59d1c4f6a63300198681e8,2021-09-27_19h01.01.141,forced_choiceRT_color,2021.2.3,MacIntel,59.99160118,,,,,,,,6,Ontime,short,d,1,1.9701,5,2,22,0,1,,,,,
,1.5,,,,,,,,,j,red,5d59d1c4f6a63300198681e8,2021-09-27_19h01.01.141,forced_choiceRT_color,2021.2.3,MacIntel,59.99160118,,,,,,,,6,Slow,short,j,1,2.153,5,3,23,2,1,,,,,
,0.56,,,,,,,,,d,orange,5d59d1c4f6a63300198681e8,2021-09-27_19h01.01.141,forced_choiceRT_color,2021.2.3,MacIntel,59.99160118,,,,,,,,6,Ontime,short,d,1,1.9709,6,0,24,0,1,,,,,
,0.55,,,,,,,,,k,purple,5d59d1c4f6a63300198681e8,2021-09-27_19h01.01.141,forced_choiceRT_color,2021.2.3,MacIntel,59.99160118,,,,,,,,6,Ontime,short,k,1,1.9516,6,1,25,3,1,,,,,
,1.96,,,,,,,,,k,purple,5d59d1c4f6a63300198681e8,2021-09-27_19h01.01.141,forced_choiceRT_color,2021.2.3,MacIntel,59.99160118,,,,,,,,6,Slow,short,k,1,2.4719,6,2,26,3,1,,,,,
,1.54,,,,,,,,,j,red,5d59d1c4f6a63300198681e8,2021-09-27_19h01.01.141,forced_choiceRT_color,2021.2.3,MacIntel,59.99160118,,,,,,,,6,Slow,short,f,0,2.1018,6,3,27,2,1,,,,,
,1,,,,,,,,,j,red,5d59d1c4f6a63300198681e8,2021-09-27_19h01.01.141,forced_choiceRT_color,2021.2.3,MacIntel,59.99160118,,,,,,,,6,Ontime,short,j,1,1.965,7,0,28,2,1,,,,,
,1.64,,,,,,,,,d,orange,5d59d1c4f6a63300198681e8,2021-09-27_19h01.01.141,forced_choiceRT_color,2021.2.3,MacIntel,59.99160118,,,,,,,,6,Slow,short,d,1,2.2686,7,1,29,0,1,,,,,
,1.61,,,,,,,,,d,orange,5d59d1c4f6a63300198681e8,2021-09-27_19h01.01.141,forced_choiceRT_color,2021.2.3,MacIntel,59.99160118,,,,,,,,6,Ontime,short,d,1,2.0204,7,2,30,0,1,,,,,
,0.46,,,,,,,,,d,orange,5d59d1c4f6a63300198681e8,2021-09-27_19h01.01.141,forced_choiceRT_color,2021.2.3,MacIntel,59.99160118,,,,,,,,6,Ontime,short,d,1,1.9533,7,3,31,0,1,,,,,
,1,,,,,,,,,j,red,5d59d1c4f6a63300198681e8,2021-09-27_19h01.01.141,forced_choiceRT_color,2021.2.3,MacIntel,59.99160118,,,,,,,,6,Slow,short,j,1,2.2324,8,0,32,2,1,,,,,
,0.29,,,,,,,,,d,orange,5d59d1c4f6a63300198681e8,2021-09-27_19h01.01.141,forced_choiceRT_color,2021.2.3,MacIntel,59.99160118,,,,,,,,6,Fast,short,d,1,1.7796,8,1,33,0,1,,,,,
,1.35,,,,,,,,,k,purple,5d59d1c4f6a63300198681e8,2021-09-27_19h01.01.141,forced_choiceRT_color,2021.2.3,MacIntel,59.99160118,,,,,,,,6,Ontime,short,k,1,1.903,8,2,34,3,1,,,,,
,0.06,,,,,,,,,k,purple,5d59d1c4f6a63300198681e8,2021-09-27_19h01.01.141,forced_choiceRT_color,2021.2.3,MacIntel,59.99160118,,,,,,,,6,Fast,short,k,1,0.849,8,3,35,3,1,,,,,
,0.43,,,,,,,,,j,red,5d59d1c4f6a63300198681e8,2021-09-27_19h01.01.141,forced_choiceRT_color,2021.2.3,MacIntel,59.99160118,,,,,,,,6,Ontime,short,j,1,2.0367,9,0,36,2,1,,,,,
,0.35,,,,,,,,,k,purple,5d59d1c4f6a63300198681e8,2021-09-27_19h01.01.141,forced_choiceRT_color,2021.2.3,MacIntel,59.99160118,,,,,,,,6,Ontime,short,k,1,1.9689,9,1,37,3,1,,,,,
,0.8,,,,,,,,,f,blue,5d59d1c4f6a63300198681e8,2021-09-27_19h01.01.141,forced_choiceRT_color,2021.2.3,MacIntel,59.99160118,,,,,,,,6,Ontime,short,f,1,2.0543,9,2,38,1,1,,,,,
,0.68,,,,,,,,,d,orange,5d59d1c4f6a63300198681e8,2021-09-27_19h01.01.141,forced_choiceRT_color,2021.2.3,MacIntel,59.99160118,,,,,,,,6,Fast,short,d,1,1.8207,9,3,39,0,1,,,,,
,,,,,,,,,,,,5d59d1c4f6a63300198681e8,2021-09-27_19h01.01.141,forced_choiceRT_color,2021.2.3,MacIntel,59.99160118,,,,,,,,,,,,,,,,,,,5,0,5,0,1
,1.47,,,,,,,,,k,purple,5d59d1c4f6a63300198681e8,2021-09-27_19h01.01.141,forced_choiceRT_color,2021.2.3,MacIntel,59.99160118,,,,,,,,7,Slow,short,k,1,2.1613,0,0,0,3,1,,,,,
,1.73,,,,,,,,,f,blue,5d59d1c4f6a63300198681e8,2021-09-27_19h01.01.141,forced_choiceRT_color,2021.2.3,MacIntel,59.99160118,,,,,,,,7,Slow,short,f,1,2.2014,0,1,1,1,1,,,,,
,0.15,,,,,,,,,f,blue,5d59d1c4f6a63300198681e8,2021-09-27_19h01.01.141,forced_choiceRT_color,2021.2.3,MacIntel,59.99160118,,,,,,,,7,Fast,short,f,1,1.8066,0,2,2,1,1,,,,,
,0.34,,,,,,,,,d,orange,5d59d1c4f6a63300198681e8,2021-09-27_19h01.01.141,forced_choiceRT_color,2021.2.3,MacIntel,59.99160118,,,,,,,,7,Ontime,short,d,1,2.0141,0,3,3,0,1,,,,,
,0.51,,,,,,,,,d,orange,5d59d1c4f6a63300198681e8,2021-09-27_19h01.01.141,forced_choiceRT_color,2021.2.3,MacIntel,59.99160118,,,,,,,,7,Ontime,short,d,1,2.0014,1,0,4,0,1,,,,,
,0.83,,,,,,,,,d,orange,5d59d1c4f6a63300198681e8,2021-09-27_19h01.01.141,forced_choiceRT_color,2021.2.3,MacIntel,59.99160118,,,,,,,,7,Ontime,short,d,1,2.0521,1,1,5,0,1,,,,,
,1.27,,,,,,,,,d,orange,5d59d1c4f6a63300198681e8,2021-09-27_19h01.01.141,forced_choiceRT_color,2021.2.3,MacIntel,59.99160118,,,,,,,,7,Slow,short,d,1,2.1494,1,2,6,0,1,,,,,
,1.69,,,,,,,,,k,purple,5d59d1c4f6a63300198681e8,2021-09-27_19h01.01.141,forced_choiceRT_color,2021.2.3,MacIntel,59.99160118,,,,,,,,7,Slow,short,k,1,2.2189,1,3,7,3,1,,,,,
,0.35,,,,,,,,,f,blue,5d59d1c4f6a63300198681e8,2021-09-27_19h01.01.141,forced_choiceRT_color,2021.2.3,MacIntel,59.99160118,,,,,,,,7,Ontime,short,f,1,2.0367,2,0,8,1,1,,,,,
,0.4,,,,,,,,,k,purple,5d59d1c4f6a63300198681e8,2021-09-27_19h01.01.141,forced_choiceRT_color,2021.2.3,MacIntel,59.99160118,,,,,,,,7,Ontime,short,k,1,2.0034,2,1,9,3,1,,,,,
,0.08,,,,,,,,,k,purple,5d59d1c4f6a63300198681e8,2021-09-27_19h01.01.141,forced_choiceRT_color,2021.2.3,MacIntel,59.99160118,,,,,,,,7,Ontime,short,k,1,1.9521,2,2,10,3,1,,,,,
,0.15,,,,,,,,,f,blue,5d59d1c4f6a63300198681e8,2021-09-27_19h01.01.141,forced_choiceRT_color,2021.2.3,MacIntel,59.99160118,,,,,,,,7,Ontime,short,f,1,2.0183,2,3,11,1,1,,,,,
,0.02,,,,,,,,,k,purple,5d59d1c4f6a63300198681e8,2021-09-27_19h01.01.141,forced_choiceRT_color,2021.2.3,MacIntel,59.99160118,,,,,,,,7,Ontime,short,k,1,1.9845,3,0,12,3,1,,,,,
,1.93,,,,,,,,,d,orange,5d59d1c4f6a63300198681e8,2021-09-27_19h01.01.141,forced_choiceRT_color,2021.2.3,MacIntel,59.99160118,,,,,,,,7,Slow,short,d,1,2.532,3,1,13,0,1,,,,,
,1.28,,,,,,,,,f,blue,5d59d1c4f6a63300198681e8,2021-09-27_19h01.01.141,forced_choiceRT_color,2021.2.3,MacIntel,59.99160118,,,,,,,,7,Slow,short,f,1,2.1823,3,2,14,1,1,,,,,
,1.66,,,,,,,,,d,orange,5d59d1c4f6a63300198681e8,2021-09-27_19h01.01.141,forced_choiceRT_color,2021.2.3,MacIntel,59.99160118,,,,,,,,7,Slow,short,j,0,2.148,3,3,15,0,1,,,,,
,1.45,,,,,,,,,d,orange,5d59d1c4f6a63300198681e8,2021-09-27_19h01.01.141,forced_choiceRT_color,2021.2.3,MacIntel,59.99160118,,,,,,,,7,Ontime,short,d,1,1.9129,4,0,16,0,1,,,,,
,0.11,,,,,,,,,k,purple,5d59d1c4f6a63300198681e8,2021-09-27_19h01.01.141,forced_choiceRT_color,2021.2.3,MacIntel,59.99160118,,,,,,,,7,Ontime,short,k,1,2.0169,4,1,17,3,1,,,,,
,1.39,,,,,,,,,f,blue,5d59d1c4f6a63300198681e8,2021-09-27_19h01.01.141,forced_choiceRT_color,2021.2.3,MacIntel,59.99160118,,,,,,,,7,Slow,short,f,1,2.1024,4,2,18,1,1,,,,,
,0.19,,,,,,,,,k,purple,5d59d1c4f6a63300198681e8,2021-09-27_19h01.01.141,forced_choiceRT_color,2021.2.3,MacIntel,59.99160118,,,,,,,,7,Ontime,short,k,1,2.0673,4,3,19,3,1,,,,,
,1.29,,,,,,,,,f,blue,5d59d1c4f6a63300198681e8,2021-09-27_19h01.01.141,forced_choiceRT_color,2021.2.3,MacIntel,59.99160118,,,,,,,,7,Slow,short,f,1,2.1022,5,0,20,1,1,,,,,
,1.28,,,,,,,,,f,blue,5d59d1c4f6a63300198681e8,2021-09-27_19h01.01.141,forced_choiceRT_color,2021.2.3,MacIntel,59.99160118,,,,,,,,7,Fast,short,f,1,1.7954,5,1,21,1,1,,,,,
,0.27,,,,,,,,,j,red,5d59d1c4f6a63300198681e8,2021-09-27_19h01.01.141,forced_choiceRT_color,2021.2.3,MacIntel,59.99160118,,,,,,,,7,Ontime,short,j,1,2.0013,5,2,22,2,1,,,,,
,1.19,,,,,,,,,k,purple,5d59d1c4f6a63300198681e8,2021-09-27_19h01.01.141,forced_choiceRT_color,2021.2.3,MacIntel,59.99160118,,,,,,,,7,Ontime,short,k,1,2.0278,5,3,23,3,1,,,,,
,1.39,,,,,,,,,j,red,5d59d1c4f6a63300198681e8,2021-09-27_19h01.01.141,forced_choiceRT_color,2021.2.3,MacIntel,59.99160118,,,,,,,,7,Ontime,short,j,1,1.9999,6,0,24,2,1,,,,,
,1.85,,,,,,,,,f,blue,5d59d1c4f6a63300198681e8,2021-09-27_19h01.01.141,forced_choiceRT_color,2021.2.3,MacIntel,59.99160118,,,,,,,,7,Slow,short,f,1,2.2212,6,1,25,1,1,,,,,
,0.52,,,,,,,,,j,red,5d59d1c4f6a63300198681e8,2021-09-27_19h01.01.141,forced_choiceRT_color,2021.2.3,MacIntel,59.99160118,,,,,,,,7,Fast,short,j,1,1.828,6,2,26,2,1,,,,,
,1.71,,,,,,,,,j,red,5d59d1c4f6a63300198681e8,2021-09-27_19h01.01.141,forced_choiceRT_color,2021.2.3,MacIntel,59.99160118,,,,,,,,7,Slow,short,j,1,2.1522,6,3,27,2,1,,,,,
,0.81,,,,,,,,,j,red,5d59d1c4f6a63300198681e8,2021-09-27_19h01.01.141,forced_choiceRT_color,2021.2.3,MacIntel,59.99160118,,,,,,,,7,Slow,short,j,1,2.1146,7,0,28,2,1,,,,,
,1.15,,,,,,,,,k,purple,5d59d1c4f6a63300198681e8,2021-09-27_19h01.01.141,forced_choiceRT_color,2021.2.3,MacIntel,59.99160118,,,,,,,,7,Fast,short,k,1,1.8154,7,1,29,3,1,,,,,
,1.85,,,,,,,,,d,orange,5d59d1c4f6a63300198681e8,2021-09-27_19h01.01.141,forced_choiceRT_color,2021.2.3,MacIntel,59.99160118,,,,,,,,7,Slow,short,f,0,2.417,7,2,30,0,1,,,,,
,0.86,,,,,,,,,j,red,5d59d1c4f6a63300198681e8,2021-09-27_19h01.01.141,forced_choiceRT_color,2021.2.3,MacIntel,59.99160118,,,,,,,,7,Ontime,short,j,1,2.0683,7,3,31,2,1,,,,,
,1.9,,,,,,,,,j,red,5d59d1c4f6a63300198681e8,2021-09-27_19h01.01.141,forced_choiceRT_color,2021.2.3,MacIntel,59.99160118,,,,,,,,7,Slow,short,j,1,2.537,8,0,32,2,1,,,,,
,0.09,,,,,,,,,j,red,5d59d1c4f6a63300198681e8,2021-09-27_19h01.01.141,forced_choiceRT_color,2021.2.3,MacIntel,59.99160118,,,,,,,,7,Ontime,short,j,1,2.062,8,1,33,2,1,,,,,
,1.13,,,,,,,,,d,orange,5d59d1c4f6a63300198681e8,2021-09-27_19h01.01.141,forced_choiceRT_color,2021.2.3,MacIntel,59.99160118,,,,,,,,7,Slow,short,d,1,2.2331,8,2,34,0,1,,,,,
,0.94,,,,,,,,,k,purple,5d59d1c4f6a63300198681e8,2021-09-27_19h01.01.141,forced_choiceRT_color,2021.2.3,MacIntel,59.99160118,,,,,,,,7,Ontime,short,k,1,1.9991,8,3,35,3,1,,,,,
,1.29,,,,,,,,,j,red,5d59d1c4f6a63300198681e8,2021-09-27_19h01.01.141,forced_choiceRT_color,2021.2.3,MacIntel,59.99160118,,,,,,,,7,Ontime,short,f,0,2.0683,9,0,36,2,1,,,,,
,1.05,,,,,,,,,f,blue,5d59d1c4f6a63300198681e8,2021-09-27_19h01.01.141,forced_choiceRT_color,2021.2.3,MacIntel,59.99160118,,,,,,,,7,Ontime,short,f,1,2.0017,9,1,37,1,1,,,,,
,1.59,,,,,,,,,j,red,5d59d1c4f6a63300198681e8,2021-09-27_19h01.01.141,forced_choiceRT_color,2021.2.3,MacIntel,59.99160118,,,,,,,,7,Slow,short,j,1,2.2012,9,2,38,2,1,,,,,
,1.63,,,,,,,,,d,orange,5d59d1c4f6a63300198681e8,2021-09-27_19h01.01.141,forced_choiceRT_color,2021.2.3,MacIntel,59.99160118,,,,,,,,7,Slow,short,d,1,2.2161,9,3,39,0,1,,,,,
,,,,,,,,,,,,5d59d1c4f6a63300198681e8,2021-09-27_19h01.01.141,forced_choiceRT_color,2021.2.3,MacIntel,59.99160118,,,,,,,,,,,,,,,,,,,6,0,6,0,1
,1.8,,,,,,,,,d,orange,5d59d1c4f6a63300198681e8,2021-09-27_19h01.01.141,forced_choiceRT_color,2021.2.3,MacIntel,59.99160118,,,,,,,,8,Slow,short,d,1,2.5299,0,0,0,0,1,,,,,
,0.76,,,,,,,,,d,orange,5d59d1c4f6a63300198681e8,2021-09-27_19h01.01.141,forced_choiceRT_color,2021.2.3,MacIntel,59.99160118,,,,,,,,8,Fast,short,d,1,1.3695,0,1,1,0,1,,,,,
,1.43,,,,,,,,,d,orange,5d59d1c4f6a63300198681e8,2021-09-27_19h01.01.141,forced_choiceRT_color,2021.2.3,MacIntel,59.99160118,,,,,,,,8,Slow,short,d,1,2.1211,0,2,2,0,1,,,,,
,1.92,,,,,,,,,f,blue,5d59d1c4f6a63300198681e8,2021-09-27_19h01.01.141,forced_choiceRT_color,2021.2.3,MacIntel,59.99160118,,,,,,,,8,Slow,short,j,0,2.4029,0,3,3,1,1,,,,,
,1.07,,,,,,,,,f,blue,5d59d1c4f6a63300198681e8,2021-09-27_19h01.01.141,forced_choiceRT_color,2021.2.3,MacIntel,59.99160118,,,,,,,,8,Ontime,short,f,1,1.9814,1,0,4,1,1,,,,,
,0.05,,,,,,,,,k,purple,5d59d1c4f6a63300198681e8,2021-09-27_19h01.01.141,forced_choiceRT_color,2021.2.3,MacIntel,59.99160118,,,,,,,,8,Ontime,short,k,1,1.9889,1,1,5,3,1,,,,,
,1.61,,,,,,,,,k,purple,5d59d1c4f6a63300198681e8,2021-09-27_19h01.01.141,forced_choiceRT_color,2021.2.3,MacIntel,59.99160118,,,,,,,,8,Ontime,short,k,1,2.0666,1,2,6,3,1,,,,,
,0.91,,,,,,,,,k,purple,5d59d1c4f6a63300198681e8,2021-09-27_19h01.01.141,forced_choiceRT_color,2021.2.3,MacIntel,59.99160118,,,,,,,,8,Slow,short,k,1,2.2052,1,3,7,3,1,,,,,
,1.84,,,,,,,,,j,red,5d59d1c4f6a63300198681e8,2021-09-27_19h01.01.141,forced_choiceRT_color,2021.2.3,MacIntel,59.99160118,,,,,,,,8,Slow,short,f,0,2.3633,2,0,8,2,1,,,,,
,0.21,,,,,,,,,f,blue,5d59d1c4f6a63300198681e8,2021-09-27_19h01.01.141,forced_choiceRT_color,2021.2.3,MacIntel,59.99160118,,,,,,,,8,Ontime,short,f,1,2.0808,2,1,9,1,1,,,,,
,1.55,,,,,,,,,f,blue,5d59d1c4f6a63300198681e8,2021-09-27_19h01.01.141,forced_choiceRT_color,2021.2.3,MacIntel,59.99160118,,,,,,,,8,Slow,short,f,1,2.1015,2,2,10,1,1,,,,,
,0.79,,,,,,,,,j,red,5d59d1c4f6a63300198681e8,2021-09-27_19h01.01.141,forced_choiceRT_color,2021.2.3,MacIntel,59.99160118,,,,,,,,8,Ontime,short,j,1,2.0968,2,3,11,2,1,,,,,
,1.21,,,,,,,,,f,blue,5d59d1c4f6a63300198681e8,2021-09-27_19h01.01.141,forced_choiceRT_color,2021.2.3,MacIntel,59.99160118,,,,,,,,8,Slow,short,f,1,2.2188,3,0,12,1,1,,,,,
,1.94,,,,,,,,,j,red,5d59d1c4f6a63300198681e8,2021-09-27_19h01.01.141,forced_choiceRT_color,2021.2.3,MacIntel,59.99160118,,,,,,,,8,Slow,short,j,1,2.7187,3,1,13,2,1,,,,,
,1.82,,,,,,,,,d,orange,5d59d1c4f6a63300198681e8,2021-09-27_19h01.01.141,forced_choiceRT_color,2021.2.3,MacIntel,59.99160118,,,,,,,,8,Slow,short,d,1,2.4329,3,2,14,0,1,,,,,
,0.53,,,,,,,,,f,blue,5d59d1c4f6a63300198681e8,2021-09-27_19h01.01.141,forced_choiceRT_color,2021.2.3,MacIntel,59.99160118,,,,,,,,8,Ontime,short,f,1,2.0689,3,3,15,1,1,,,,,
,0.36,,,,,,,,,j,red,5d59d1c4f6a63300198681e8,2021-09-27_19h01.01.141,forced_choiceRT_color,2021.2.3,MacIntel,59.99160118,,,,,,,,8,Ontime,short,j,1,2.0641,4,0,16,2,1,,,,,
,0.02,,,,,,,,,j,red,5d59d1c4f6a63300198681e8,2021-09-27_19h01.01.141,forced_choiceRT_color,2021.2.3,MacIntel,59.99160118,,,,,,,,8,Ontime,short,j,1,1.9328,4,1,17,2,1,,,,,
,1.35,,,,,,,,,j,red,5d59d1c4f6a63300198681e8,2021-09-27_19h01.01.141,forced_choiceRT_color,2021.2.3,MacIntel,59.99160118,,,,,,,,8,Ontime,short,j,1,2.0557,4,2,18,2,1,,,,,
,1.2,,,,,,,,,k,purple,5d59d1c4f6a63300198681e8,2021-09-27_19h01.01.141,forced_choiceRT_color,2021.2.3,MacIntel,59.99160118,,,,,,,,8,Ontime,short,k,1,1.9197,4,3,19,3,1,,,,,
,0.89,,,,,,,,,k,purple,5d59d1c4f6a63300198681e8,2021-09-27_19h01.01.141,forced_choiceRT_color,2021.2.3,MacIntel,59.99160118,,,,,,,,8,Fast,short,k,1,1.8659,5,0,20,3,1,,,,,
,1.49,,,,,,,,,d,orange,5d59d1c4f6a63300198681e8,2021-09-27_19h01.01.141,forced_choiceRT_color,2021.2.3,MacIntel,59.99160118,,,,,,,,8,Slow,short,d,1,2.1532,5,1,21,0,1,,,,,
,0.9,,,,,,,,,k,purple,5d59d1c4f6a63300198681e8,2021-09-27_19h01.01.141,forced_choiceRT_color,2021.2.3,MacIntel,59.99160118,,,,,,,,8,Ontime,short,k,1,1.9457,5,2,22,3,1,,,,,
,1.28,,,,,,,,,k,purple,5d59d1c4f6a63300198681e8,2021-09-27_19h01.01.141,forced_choiceRT_color,2021.2.3,MacIntel,59.99160118,,,,,,,,8,Ontime,short,k,1,1.971,5,3,23,3,1,,,,,
,0.74,,,,,,,,,j,red,5d59d1c4f6a63300198681e8,2021-09-27_19h01.01.141,forced_choiceRT_color,2021.2.3,MacIntel,59.99160118,,,,,,,,8,Ontime,short,j,1,2.0664,6,0,24,2,1,,,,,
,0.63,,,,,,,,,d,orange,5d59d1c4f6a63300198681e8,2021-09-27_19h01.01.141,forced_choiceRT_color,2021.2.3,MacIntel,59.99160118,,,,,,,,8,Ontime,short,d,1,2.0896,6,1,25,0,1,,,,,
,0.45,,,,,,,,,d,orange,5d59d1c4f6a63300198681e8,2021-09-27_19h01.01.141,forced_choiceRT_color,2021.2.3,MacIntel,59.99160118,,,,,,,,8,Ontime,short,d,1,2.0052,6,2,26,0,1,,,,,
,1.43,,,,,,,,,f,blue,5d59d1c4f6a63300198681e8,2021-09-27_19h01.01.141,forced_choiceRT_color,2021.2.3,MacIntel,59.99160118,,,,,,,,8,Ontime,short,f,1,2.0357,6,3,27,1,1,,,,,
,1.1,,,,,,,,,f,blue,5d59d1c4f6a63300198681e8,2021-09-27_19h01.01.141,forced_choiceRT_color,2021.2.3,MacIntel,59.99160118,,,,,,,,8,Ontime,short,f,1,1.9042,7,0,28,1,1,,,,,
,1.42,,,,,,,,,f,blue,5d59d1c4f6a63300198681e8,2021-09-27_19h01.01.141,forced_choiceRT_color,2021.2.3,MacIntel,59.99160118,,,,,,,,8,Fast,short,f,1,1.8201,7,1,29,1,1,,,,,
,1.76,,,,,,,,,j,red,5d59d1c4f6a63300198681e8,2021-09-27_19h01.01.141,forced_choiceRT_color,2021.2.3,MacIntel,59.99160118,,,,,,,,8,Slow,short,j,1,2.601,7,2,30,2,1,,,,,
,1.97,,,,,,,,,j,red,5d59d1c4f6a63300198681e8,2021-09-27_19h01.01.141,forced_choiceRT_color,2021.2.3,MacIntel,59.99160118,,,,,,,,8,Slow,short,j,1,2.4847,7,3,31,2,1,,,,,
,0.78,,,,,,,,,k,purple,5d59d1c4f6a63300198681e8,2021-09-27_19h01.01.141,forced_choiceRT_color,2021.2.3,MacIntel,59.99160118,,,,,,,,8,Slow,short,k,1,2.1379,8,0,32,3,1,,,,,
,0.83,,,,,,,,,d,orange,5d59d1c4f6a63300198681e8,2021-09-27_19h01.01.141,forced_choiceRT_color,2021.2.3,MacIntel,59.99160118,,,,,,,,8,Ontime,short,d,1,2.0641,8,1,33,0,1,,,,,
,0.1,,,,,,,,,j,red,5d59d1c4f6a63300198681e8,2021-09-27_19h01.01.141,forced_choiceRT_color,2021.2.3,MacIntel,59.99160118,,,,,,,,8,Ontime,short,j,1,2.022,8,2,34,2,1,,,,,
,1.56,,,,,,,,,f,blue,5d59d1c4f6a63300198681e8,2021-09-27_19h01.01.141,forced_choiceRT_color,2021.2.3,MacIntel,59.99160118,,,,,,,,8,Ontime,short,f,1,2.072,8,3,35,1,1,,,,,
,0.45,,,,,,,,,d,orange,5d59d1c4f6a63300198681e8,2021-09-27_19h01.01.141,forced_choiceRT_color,2021.2.3,MacIntel,59.99160118,,,,,,,,8,Fast,short,d,1,1.7878,9,0,36,0,1,,,,,
,1.08,,,,,,,,,d,orange,5d59d1c4f6a63300198681e8,2021-09-27_19h01.01.141,forced_choiceRT_color,2021.2.3,MacIntel,59.99160118,,,,,,,,8,Slow,short,d,1,2.2042,9,1,37,0,1,,,,,
,0.64,,,,,,,,,k,purple,5d59d1c4f6a63300198681e8,2021-09-27_19h01.01.141,forced_choiceRT_color,2021.2.3,MacIntel,59.99160118,,,,,,,,8,Slow,short,k,1,2.1536,9,2,38,3,1,,,,,
,0.3,,,,,,,,,k,purple,5d59d1c4f6a63300198681e8,2021-09-27_19h01.01.141,forced_choiceRT_color,2021.2.3,MacIntel,59.99160118,,,,,,,,8,Ontime,short,k,1,2.0959,9,3,39,3,1,,,,,
,,,,,,,,,,,,5d59d1c4f6a63300198681e8,2021-09-27_19h01.01.141,forced_choiceRT_color,2021.2.3,MacIntel,59.99160118,,,,,,,,,,,,,,,,,,,7,0,7,0,1
,1.51,,,,,,,,,k,purple,5d59d1c4f6a63300198681e8,2021-09-27_19h01.01.141,forced_choiceRT_color,2021.2.3,MacIntel,59.99160118,,,,,,,,9,Slow,short,k,1,2.1573,0,0,0,3,1,,,,,
,0.04,,,,,,,,,d,orange,5d59d1c4f6a63300198681e8,2021-09-27_19h01.01.141,forced_choiceRT_color,2021.2.3,MacIntel,59.99160118,,,,,,,,9,Fast,short,d,1,1.0273,0,1,1,0,1,,,,,
,0.96,,,,,,,,,f,blue,5d59d1c4f6a63300198681e8,2021-09-27_19h01.01.141,forced_choiceRT_color,2021.2.3,MacIntel,59.99160118,,,,,,,,9,Slow,short,f,1,2.1046,0,2,2,1,1,,,,,
,0.98,,,,,,,,,j,red,5d59d1c4f6a63300198681e8,2021-09-27_19h01.01.141,forced_choiceRT_color,2021.2.3,MacIntel,59.99160118,,,,,,,,9,Ontime,short,j,1,1.9837,0,3,3,2,1,,,,,
,0.75,,,,,,,,,k,purple,5d59d1c4f6a63300198681e8,2021-09-27_19h01.01.141,forced_choiceRT_color,2021.2.3,MacIntel,59.99160118,,,,,,,,9,Ontime,short,k,1,2.0862,1,0,4,3,1,,,,,
,0.15,,,,,,,,,j,red,5d59d1c4f6a63300198681e8,2021-09-27_19h01.01.141,forced_choiceRT_color,2021.2.3,MacIntel,59.99160118,,,,,,,,9,Ontime,short,j,1,2.017,1,1,5,2,1,,,,,
,0.13,,,,,,,,,k,purple,5d59d1c4f6a63300198681e8,2021-09-27_19h01.01.141,forced_choiceRT_color,2021.2.3,MacIntel,59.99160118,,,,,,,,9,Ontime,short,k,1,1.9399,1,2,6,3,1,,,,,
,1.89,,,,,,,,,d,orange,5d59d1c4f6a63300198681e8,2021-09-27_19h01.01.141,forced_choiceRT_color,2021.2.3,MacIntel,59.99160118,,,,,,,,9,Slow,short,j,0,2.6686,1,3,7,0,1,,,,,
,0.99,,,,,,,,,d,orange,5d59d1c4f6a63300198681e8,2021-09-27_19h01.01.141,forced_choiceRT_color,2021.2.3,MacIntel,59.99160118,,,,,,,,9,Ontime,short,d,1,2.0132,2,0,8,0,1,,,,,
,1.59,,,,,,,,,j,red,5d59d1c4f6a63300198681e8,2021-09-27_19h01.01.141,forced_choiceRT_color,2021.2.3,MacIntel,59.99160118,,,,,,,,9,Slow,short,j,1,2.137,2,1,9,2,1,,,,,
,0.81,,,,,,,,,j,red,5d59d1c4f6a63300198681e8,2021-09-27_19h01.01.141,forced_choiceRT_color,2021.2.3,MacIntel,59.99160118,,,,,,,,9,Fast,short,j,1,1.6328,2,2,10,2,1,,,,,
,1.73,,,,,,,,,f,blue,5d59d1c4f6a63300198681e8,2021-09-27_19h01.01.141,forced_choiceRT_color,2021.2.3,MacIntel,59.99160118,,,,,,,,9,Slow,short,f,1,2.152,2,3,11,1,1,,,,,
,0.3,,,,,,,,,f,blue,5d59d1c4f6a63300198681e8,2021-09-27_19h01.01.141,forced_choiceRT_color,2021.2.3,MacIntel,59.99160118,,,,,,,,9,Ontime,short,f,1,2.0304,3,0,12,1,1,,,,,
,0.43,,,,,,,,,k,purple,5d59d1c4f6a63300198681e8,2021-09-27_19h01.01.141,forced_choiceRT_color,2021.2.3,MacIntel,59.99160118,,,,,,,,9,Ontime,short,k,1,2.0022,3,1,13,3,1,,,,,
,1.97,,,,,,,,,j,red,5d59d1c4f6a63300198681e8,2021-09-27_19h01.01.141,forced_choiceRT_color,2021.2.3,MacIntel,59.99160118,,,,,,,,9,Slow,short,j,1,2.7866,3,2,14,2,1,,,,,
,1.49,,,,,,,,,d,orange,5d59d1c4f6a63300198681e8,2021-09-27_19h01.01.141,forced_choiceRT_color,2021.2.3,MacIntel,59.99160118,,,,,,,,9,Slow,short,d,1,2.3366,3,3,15,0,1,,,,,
,0.3,,,,,,,,,f,blue,5d59d1c4f6a63300198681e8,2021-09-27_19h01.01.141,forced_choiceRT_color,2021.2.3,MacIntel,59.99160118,,,,,,,,9,Ontime,short,f,1,1.9773,4,0,16,1,1,,,,,
,1.03,,,,,,,,,d,orange,5d59d1c4f6a63300198681e8,2021-09-27_19h01.01.141,forced_choiceRT_color,2021.2.3,MacIntel,59.99160118,,,,,,,,9,Ontime,short,d,1,2.0474,4,1,17,0,1,,,,,
,1.87,,,,,,,,,d,orange,5d59d1c4f6a63300198681e8,2021-09-27_19h01.01.141,forced_choiceRT_color,2021.2.3,MacIntel,59.99160118,,,,,,,,9,Slow,short,d,1,2.4723,4,2,18,0,1,,,,,
,0.22,,,,,,,,,k,purple,5d59d1c4f6a63300198681e8,2021-09-27_19h01.01.141,forced_choiceRT_color,2021.2.3,MacIntel,59.99160118,,,,,,,,9,Ontime,short,k,1,2.0533,4,3,19,3,1,,,,,
,1.72,,,,,,,,,f,blue,5d59d1c4f6a63300198681e8,2021-09-27_19h01.01.141,forced_choiceRT_color,2021.2.3,MacIntel,59.99160118,,,,,,,,9,Slow,short,j,0,2.2527,5,0,20,1,1,,,,,
,1.86,,,,,,,,,k,purple,5d59d1c4f6a63300198681e8,2021-09-27_19h01.01.141,forced_choiceRT_color,2021.2.3,MacIntel,59.99160118,,,,,,,,9,Slow,short,k,1,2.5309,5,1,21,3,1,,,,,
,1.36,,,,,,,,,j,red,5d59d1c4f6a63300198681e8,2021-09-27_19h01.01.141,forced_choiceRT_color,2021.2.3,MacIntel,59.99160118,,,,,,,,9,Ontime,short,j,1,1.9675,5,2,22,2,1,,,,,
,1.17,,,,,,,,,f,blue,5d59d1c4f6a63300198681e8,2021-09-27_19h01.01.141,forced_choiceRT_color,2021.2.3,MacIntel,59.99160118,,,,,,,,9,Ontime,short,f,1,1.9154,5,3,23,1,1,,,,,
,0.15,,,,,,,,,f,blue,5d59d1c4f6a63300198681e8,2021-09-27_19h01.01.141,forced_choiceRT_color,2021.2.3,MacIntel,59.99160118,,,,,,,,9,Ontime,short,f,1,2.0056,6,0,24,1,1,,,,,
,1.8,,,,,,,,,j,red,5d59d1c4f6a63300198681e8,2021-09-27_19h01.01.141,forced_choiceRT_color,2021.2.3,MacIntel,59.99160118,,,,,,,,9,Slow,short,j,1,2.5881,6,1,25,2,1,,,,,
,0.46,,,,,,,,,d,orange,5d59d1c4f6a63300198681e8,2021-09-27_19h01.01.141,forced_choiceRT_color,2021.2.3,MacIntel,59.99160118,,,,,,,,9,Ontime,short,d,1,1.994,6,2,26,0,1,,,,,
,1.61,,,,,,,,,d,orange,5d59d1c4f6a63300198681e8,2021-09-27_19h01.01.141,forced_choiceRT_color,2021.2.3,MacIntel,59.99160118,,,,,,,,9,Slow,short,d,1,2.2472,6,3,27,0,1,,,,,
,1.03,,,,,,,,,j,red,5d59d1c4f6a63300198681e8,2021-09-27_19h01.01.141,forced_choiceRT_color,2021.2.3,MacIntel,59.99160118,,,,,,,,9,Ontime,short,j,1,1.9334,7,0,28,2,1,,,,,
,0.77,,,,,,,,,k,purple,5d59d1c4f6a63300198681e8,2021-09-27_19h01.01.141,forced_choiceRT_color,2021.2.3,MacIntel,59.99160118,,,,,,,,9,Ontime,short,k,1,2.0047,7,1,29,3,1,,,,,
,1.25,,,,,,,,,j,red,5d59d1c4f6a63300198681e8,2021-09-27_19h01.01.141,forced_choiceRT_color,2021.2.3,MacIntel,59.99160118,,,,,,,,9,Ontime,short,j,1,1.9941,7,2,30,2,1,,,,,
,1.31,,,,,,,,,d,orange,5d59d1c4f6a63300198681e8,2021-09-27_19h01.01.141,forced_choiceRT_color,2021.2.3,MacIntel,59.99160118,,,,,,,,9,Ontime,short,d,1,1.9019,7,3,31,0,1,,,,,
,0.09,,,,,,,,,k,purple,5d59d1c4f6a63300198681e8,2021-09-27_19h01.01.141,forced_choiceRT_color,2021.2.3,MacIntel,59.99160118,,,,,,,,9,Fast,short,k,1,1.6544,8,0,32,3,1,,,,,
,0.17,,,,,,,,,d,orange,5d59d1c4f6a63300198681e8,2021-09-27_19h01.01.141,forced_choiceRT_color,2021.2.3,MacIntel,59.99160118,,,,,,,,9,Ontime,short,d,1,2.0181,8,1,33,0,1,,,,,
,1.03,,,,,,,,,k,purple,5d59d1c4f6a63300198681e8,2021-09-27_19h01.01.141,forced_choiceRT_color,2021.2.3,MacIntel,59.99160118,,,,,,,,9,Ontime,short,k,1,1.9515,8,2,34,3,1,,,,,
,0.86,,,,,,,,,f,blue,5d59d1c4f6a63300198681e8,2021-09-27_19h01.01.141,forced_choiceRT_color,2021.2.3,MacIntel,59.99160118,,,,,,,,9,Slow,short,f,1,2.1847,8,3,35,1,1,,,,,
,0.8,,,,,,,,,k,purple,5d59d1c4f6a63300198681e8,2021-09-27_19h01.01.141,forced_choiceRT_color,2021.2.3,MacIntel,59.99160118,,,,,,,,9,Ontime,short,k,1,2.0144,9,0,36,3,1,,,,,
,0.89,,,,,,,,,f,blue,5d59d1c4f6a63300198681e8,2021-09-27_19h01.01.141,forced_choiceRT_color,2021.2.3,MacIntel,59.99160118,,,,,,,,9,Ontime,short,f,1,2.0432,9,1,37,1,1,,,,,
,1.72,,,,,,,,,f,blue,5d59d1c4f6a63300198681e8,2021-09-27_19h01.01.141,forced_choiceRT_color,2021.2.3,MacIntel,59.99160118,,,,,,,,9,Slow,short,f,1,2.2674,9,2,38,1,1,,,,,
,0.98,,,,,,,,,j,red,5d59d1c4f6a63300198681e8,2021-09-27_19h01.01.141,forced_choiceRT_color,2021.2.3,MacIntel,59.99160118,,,,,,,,9,Fast,short,j,1,1.8519,9,3,39,2,1,,,,,
,,,,,,,,,,,,5d59d1c4f6a63300198681e8,2021-09-27_19h01.01.141,forced_choiceRT_color,2021.2.3,MacIntel,59.99160118,,,,,,,,,,,,,,,,,,,8,0,8,0,1
,0.75,,,,,,,,,j,red,5d59d1c4f6a63300198681e8,2021-09-27_19h01.01.141,forced_choiceRT_color,2021.2.3,MacIntel,59.99160118,,,,,,,,10,Fast,short,j,1,1.6753,0,0,0,2,1,,,,,
,0.83,,,,,,,,,d,orange,5d59d1c4f6a63300198681e8,2021-09-27_19h01.01.141,forced_choiceRT_color,2021.2.3,MacIntel,59.99160118,,,,,,,,10,Slow,short,d,1,2.1969,0,1,1,0,1,,,,,
,0.79,,,,,,,,,d,orange,5d59d1c4f6a63300198681e8,2021-09-27_19h01.01.141,forced_choiceRT_color,2021.2.3,MacIntel,59.99160118,,,,,,,,10,Fast,short,d,1,1.3122,0,2,2,0,1,,,,,
,1.54,,,,,,,,,k,purple,5d59d1c4f6a63300198681e8,2021-09-27_19h01.01.141,forced_choiceRT_color,2021.2.3,MacIntel,59.99160118,,,,,,,,10,Slow,short,k,1,2.1677,0,3,3,3,1,,,,,
,1,,,,,,,,,f,blue,5d59d1c4f6a63300198681e8,2021-09-27_19h01.01.141,forced_choiceRT_color,2021.2.3,MacIntel,59.99160118,,,,,,,,10,Fast,short,f,1,1.8979,1,0,4,1,1,,,,,
,1.49,,,,,,,,,f,blue,5d59d1c4f6a63300198681e8,2021-09-27_19h01.01.141,forced_choiceRT_color,2021.2.3,MacIntel,59.99160118,,,,,,,,10,Ontime,short,f,1,1.9342,1,1,5,1,1,,,,,
,1.4,,,,,,,,,k,purple,5d59d1c4f6a63300198681e8,2021-09-27_19h01.01.141,forced_choiceRT_color,2021.2.3,MacIntel,59.99160118,,,,,,,,10,Slow,short,k,1,2.154,1,2,6,3,1,,,,,
,0.47,,,,,,,,,j,red,5d59d1c4f6a63300198681e8,2021-09-27_19h01.01.141,forced_choiceRT_color,2021.2.3,MacIntel,59.99160118,,,,,,,,10,Ontime,short,j,1,2.0684,1,3,7,2,1,,,,,
,0.2,,,,,,,,,d,orange,5d59d1c4f6a63300198681e8,2021-09-27_19h01.01.141,forced_choiceRT_color,2021.2.3,MacIntel,59.99160118,,,,,,,,10,Ontime,short,d,1,2.0186,2,0,8,0,1,,,,,
,1.8,,,,,,,,,k,purple,5d59d1c4f6a63300198681e8,2021-09-27_19h01.01.141,forced_choiceRT_color,2021.2.3,MacIntel,59.99160118,,,,,,,,10,Slow,short,k,1,2.5023,2,1,9,3,1,,,,,
,1.63,,,,,,,,,f,blue,5d59d1c4f6a63300198681e8,2021-09-27_19h01.01.141,forced_choiceRT_color,2021.2.3,MacIntel,59.99160118,,,,,,,,10,Slow,short,f,1,2.267,2,2,10,1,1,,,,,
,1.33,,,,,,,,,j,red,5d59d1c4f6a63300198681e8,2021-09-27_19h01.01.141,forced_choiceRT_color,2021.2.3,MacIntel,59.99160118,,,,,,,,10,Ontime,short,j,1,1.9887,2,3,11,2,1,,,,,
,0.6,,,,,,,,,k,purple,5d59d1c4f6a63300198681e8,2021-09-27_19h01.01.141,forced_choiceRT_color,2021.2.3,MacIntel,59.99160118,,,,,,,,10,Ontime,short,k,1,2.0373,3,0,12,3,1,,,,,
,1.53,,,,,,,,,f,blue,5d59d1c4f6a63300198681e8,2021-09-27_19h01.01.141,forced_choiceRT_color,2021.2.3,MacIntel,59.99160118,,,,,,,,10,Ontime,short,f,1,2.0008,3,1,13,1,1,,,,,
,1.75,,,,,,,,,f,blue,5d59d1c4f6a63300198681e8,2021-09-27_19h01.01.141,forced_choiceRT_color,2021.2.3,MacIntel,59.99160118,,,,,,,,10,Slow,short,f,1,2.2493,3,2,14,1,1,,,,,
,1.64,,,,,,,,,k,purple,5d59d1c4f6a63300198681e8,2021-09-27_19h01.01.141,forced_choiceRT_color,2021.2.3,MacIntel,59.99160118,,,,,,,,10,Slow,short,k,1,2.4954,3,3,15,3,1,,,,,
,0.69,,,,,,,,,j,red,5d59d1c4f6a63300198681e8,2021-09-27_19h01.01.141,forced_choiceRT_color,2021.2.3,MacIntel,59.99160118,,,,,,,,10,Ontime,short,j,1,2.0473,4,0,16,2,1,,,,,
,1.99,,,,,,,,,f,blue,5d59d1c4f6a63300198681e8,2021-09-27_19h01.01.141,forced_choiceRT_color,2021.2.3,MacIntel,59.99160118,,,,,,,,10,Slow,short,f,1,2.5728,4,1,17,1,1,,,,,
,1.27,,,,,,,,,j,red,5d59d1c4f6a63300198681e8,2021-09-27_19h01.01.141,forced_choiceRT_color,2021.2.3,MacIntel,59.99160118,,,,,,,,10,Slow,short,j,1,2.2537,4,2,18,2,1,,,,,
,1.08,,,,,,,,,j,red,5d59d1c4f6a63300198681e8,2021-09-27_19h01.01.141,forced_choiceRT_color,2021.2.3,MacIntel,59.99160118,,,,,,,,10,Ontime,short,j,1,2.0365,4,3,19,2,1,,,,,
,0.88,,,,,,,,,f,blue,5d59d1c4f6a63300198681e8,2021-09-27_19h01.01.141,forced_choiceRT_color,2021.2.3,MacIntel,59.99160118,,,,,,,,10,Ontime,short,f,1,2.054,5,0,20,1,1,,,,,
,1.44,,,,,,,,,f,blue,5d59d1c4f6a63300198681e8,2021-09-27_19h01.01.141,forced_choiceRT_color,2021.2.3,MacIntel,59.99160118,,,,,,,,10,Slow,short,f,1,2.1884,5,1,21,1,1,,,,,
,0.48,,,,,,,,,d,orange,5d59d1c4f6a63300198681e8,2021-09-27_19h01.01.141,forced_choiceRT_color,2021.2.3,MacIntel,59.99160118,,,,,,,,10,Ontime,short,d,1,1.9898,5,2,22,0,1,,,,,
,1.59,,,,,,,,,j,red,5d59d1c4f6a63300198681e8,2021-09-27_19h01.01.141,forced_choiceRT_color,2021.2.3,MacIntel,59.99160118,,,,,,,,10,Slow,short,j,1,2.2343,5,3,23,2,1,,,,,
,1.28,,,,,,,,,k,purple,5d59d1c4f6a63300198681e8,2021-09-27_19h01.01.141,forced_choiceRT_color,2021.2.3,MacIntel,59.99160118,,,,,,,,10,Ontime,short,k,1,2.0642,6,0,24,3,1,,,,,
,0.31,,,,,,,,,k,purple,5d59d1c4f6a63300198681e8,2021-09-27_19h01.01.141,forced_choiceRT_color,2021.2.3,MacIntel,59.99160118,,,,,,,,10,Ontime,short,k,1,1.9853,6,1,25,3,1,,,,,
,1.33,,,,,,,,,d,orange,5d59d1c4f6a63300198681e8,2021-09-27_19h01.01.141,forced_choiceRT_color,2021.2.3,MacIntel,59.99160118,,,,,,,,10,Ontime,short,d,1,2.0524,6,2,26,0,1,,,,,
,1,,,,,,,,,f,blue,5d59d1c4f6a63300198681e8,2021-09-27_19h01.01.141,forced_choiceRT_color,2021.2.3,MacIntel,59.99160118,,,,,,,,10,Fast,short,f,1,1.8858,6,3,27,1,1,,,,,
,0.24,,,,,,,,,d,orange,5d59d1c4f6a63300198681e8,2021-09-27_19h01.01.141,forced_choiceRT_color,2021.2.3,MacIntel,59.99160118,,,,,,,,10,Ontime,short,d,1,1.9808,7,0,28,0,1,,,,,
,0.94,,,,,,,,,j,red,5d59d1c4f6a63300198681e8,2021-09-27_19h01.01.141,forced_choiceRT_color,2021.2.3,MacIntel,59.99160118,,,,,,,,10,Ontime,short,j,1,1.9181,7,1,29,2,1,,,,,
,1.75,,,,,,,,,k,purple,5d59d1c4f6a63300198681e8,2021-09-27_19h01.01.141,forced_choiceRT_color,2021.2.3,MacIntel,59.99160118,,,,,,,,10,Slow,short,k,1,2.3039,7,2,30,3,1,,,,,
,1.56,,,,,,,,,k,purple,5d59d1c4f6a63300198681e8,2021-09-27_19h01.01.141,forced_choiceRT_color,2021.2.3,MacIntel,59.99160118,,,,,,,,10,Ontime,short,k,1,2.0136,7,3,31,3,1,,,,,
,1.57,,,,,,,,,k,purple,5d59d1c4f6a63300198681e8,2021-09-27_19h01.01.141,forced_choiceRT_color,2021.2.3,MacIntel,59.99160118,,,,,,,,10,Ontime,short,k,1,1.998,8,0,32,3,1,,,,,
,0.44,,,,,,,,,j,red,5d59d1c4f6a63300198681e8,2021-09-27_19h01.01.141,forced_choiceRT_color,2021.2.3,MacIntel,59.99160118,,,,,,,,10,Ontime,short,j,1,2.0488,8,1,33,2,1,,,,,
,1.22,,,,,,,,,f,blue,5d59d1c4f6a63300198681e8,2021-09-27_19h01.01.141,forced_choiceRT_color,2021.2.3,MacIntel,59.99160118,,,,,,,,10,Fast,short,f,1,1.8861,8,2,34,1,1,,,,,
,1.28,,,,,,,,,d,orange,5d59d1c4f6a63300198681e8,2021-09-27_19h01.01.141,forced_choiceRT_color,2021.2.3,MacIntel,59.99160118,,,,,,,,10,Fast,short,d,1,1.8517,8,3,35,0,1,,,,,
,0.9,,,,,,,,,j,red,5d59d1c4f6a63300198681e8,2021-09-27_19h01.01.141,forced_choiceRT_color,2021.2.3,MacIntel,59.99160118,,,,,,,,10,Slow,short,j,1,2.1368,9,0,36,2,1,,,,,
,0.12,,,,,,,,,d,orange,5d59d1c4f6a63300198681e8,2021-09-27_19h01.01.141,forced_choiceRT_color,2021.2.3,MacIntel,59.99160118,,,,,,,,10,Ontime,short,d,1,2.0371,9,1,37,0,1,,,,,
,1.36,,,,,,,,,d,orange,5d59d1c4f6a63300198681e8,2021-09-27_19h01.01.141,forced_choiceRT_color,2021.2.3,MacIntel,59.99160118,,,,,,,,10,Fast,short,d,1,1.8681,9,2,38,0,1,,,,,
,0.08,,,,,,,,,d,orange,5d59d1c4f6a63300198681e8,2021-09-27_19h01.01.141,forced_choiceRT_color,2021.2.3,MacIntel,59.99160118,,,,,,,,10,Ontime,short,d,1,2.0841,9,3,39,0,1,,,,,
,,,,,,,,,,,,5d59d1c4f6a63300198681e8,2021-09-27_19h01.01.141,forced_choiceRT_color,2021.2.3,MacIntel,59.99160118,,,,,,,,,,,,,,,,,,,9,0,9,0,1
