IP_Addresss,target_onset,trial_resp_sp.keys,trial_resp_sp.corr,trial_resp_sp.rt,trials_train_loop.thisRepN,trials_train_loop.thisTrialN,trials_train_loop.thisN,trials_train_loop.thisIndex,trials_train_loop.ran,correct_key,color,participant,date,expName,psychopyVersion,OS,frameRate,trial_resp_timing.keys,trial_resp_timing.rt,trials_train_timing.thisRepN,trials_train_timing.thisTrialN,trials_train_timing.thisN,trials_train_timing.thisIndex,trials_train_timing.ran,block_id,ontime,feedback_cond,forcedRT_resp.keys,forcedRT_resp.corr,forcedRT_resp.rt,trials.thisRepN,trials.thisTrialN,trials.thisN,trials.thisIndex,trials.ran,blocks.thisRepN,blocks.thisTrialN,blocks.thisN,blocks.thisIndex,blocks.ran
97.91.86.22,0,j,1,1.7254,0,0,0,2,1,j,red,5d6ab68809f9270001dac666,2021-10-22_13h08.24.785,forced_choiceRT_color,2021.2.3,Win32,19.99760029,,,,,,,,,,,,,,,,,,,,,,,
,0,k,1,1.3719,0,1,1,3,1,k,purple,5d6ab68809f9270001dac666,2021-10-22_13h08.24.785,forced_choiceRT_color,2021.2.3,Win32,19.99760029,,,,,,,,,,,,,,,,,,,,,,,
,0,d,1,1.8757,0,2,2,0,1,d,orange,5d6ab68809f9270001dac666,2021-10-22_13h08.24.785,forced_choiceRT_color,2021.2.3,Win32,19.99760029,,,,,,,,,,,,,,,,,,,,,,,
,0,f,1,1.3895,0,3,3,1,1,f,blue,5d6ab68809f9270001dac666,2021-10-22_13h08.24.785,forced_choiceRT_color,2021.2.3,Win32,19.99760029,,,,,,,,,,,,,,,,,,,,,,,
,0,k,1,2.6685,1,0,4,3,1,k,purple,5d6ab68809f9270001dac666,2021-10-22_13h08.24.785,forced_choiceRT_color,2021.2.3,Win32,19.99760029,,,,,,,,,,,,,,,,,,,,,,,
,0,k,1,0.9114,1,1,5,3,1,k,purple,5d6ab68809f9270001dac666,2021-10-22_13h08.24.785,forced_choiceRT_color,2021.2.3,Win32,19.99760029,,,,,,,,,,,,,,,,,,,,,,,
,0,k,1,0.6616,1,2,6,3,1,k,purple,5d6ab68809f9270001dac666,2021-10-22_13h08.24.785,forced_choiceRT_color,2021.2.3,Win32,19.99760029,,,,,,,,,,,,,,,,,,,,,,,
,0,d,1,0.692,1,3,7,0,1,d,orange,5d6ab68809f9270001dac666,2021-10-22_13h08.24.785,forced_choiceRT_color,2021.2.3,Win32,19.99760029,,,,,,,,,,,,,,,,,,,,,,,
,0,f,1,0.829,2,0,8,1,1,f,blue,5d6ab68809f9270001dac666,2021-10-22_13h08.24.785,forced_choiceRT_color,2021.2.3,Win32,19.99760029,,,,,,,,,,,,,,,,,,,,,,,
,0,j,1,0.8769,2,1,9,2,1,j,red,5d6ab68809f9270001dac666,2021-10-22_13h08.24.785,forced_choiceRT_color,2021.2.3,Win32,19.99760029,,,,,,,,,,,,,,,,,,,,,,,
,0,d,1,0.6745,2,2,10,0,1,d,orange,5d6ab68809f9270001dac666,2021-10-22_13h08.24.785,forced_choiceRT_color,2021.2.3,Win32,19.99760029,,,,,,,,,,,,,,,,,,,,,,,
,0,f,1,0.7729,2,3,11,1,1,f,blue,5d6ab68809f9270001dac666,2021-10-22_13h08.24.785,forced_choiceRT_color,2021.2.3,Win32,19.99760029,,,,,,,,,,,,,,,,,,,,,,,
,0,d,1,0.6586,3,0,12,0,1,d,orange,5d6ab68809f9270001dac666,2021-10-22_13h08.24.785,forced_choiceRT_color,2021.2.3,Win32,19.99760029,,,,,,,,,,,,,,,,,,,,,,,
,0,j,1,1.1531,3,1,13,2,1,j,red,5d6ab68809f9270001dac666,2021-10-22_13h08.24.785,forced_choiceRT_color,2021.2.3,Win32,19.99760029,,,,,,,,,,,,,,,,,,,,,,,
,0,k,1,0.736,3,2,14,3,1,k,purple,5d6ab68809f9270001dac666,2021-10-22_13h08.24.785,forced_choiceRT_color,2021.2.3,Win32,19.99760029,,,,,,,,,,,,,,,,,,,,,,,
,0,f,1,0.7363,3,3,15,1,1,f,blue,5d6ab68809f9270001dac666,2021-10-22_13h08.24.785,forced_choiceRT_color,2021.2.3,Win32,19.99760029,,,,,,,,,,,,,,,,,,,,,,,
,0,j,1,0.9256,4,0,16,2,1,j,red,5d6ab68809f9270001dac666,2021-10-22_13h08.24.785,forced_choiceRT_color,2021.2.3,Win32,19.99760029,,,,,,,,,,,,,,,,,,,,,,,
,0,k,1,0.7255,4,1,17,3,1,k,purple,5d6ab68809f9270001dac666,2021-10-22_13h08.24.785,forced_choiceRT_color,2021.2.3,Win32,19.99760029,,,,,,,,,,,,,,,,,,,,,,,
,0,k,1,0.6703,4,2,18,3,1,k,purple,5d6ab68809f9270001dac666,2021-10-22_13h08.24.785,forced_choiceRT_color,2021.2.3,Win32,19.99760029,,,,,,,,,,,,,,,,,,,,,,,
,0,d,1,1.0075,4,3,19,0,1,d,orange,5d6ab68809f9270001dac666,2021-10-22_13h08.24.785,forced_choiceRT_color,2021.2.3,Win32,19.99760029,,,,,,,,,,,,,,,,,,,,,,,
,0,j,1,1.0179,5,0,20,2,1,j,red,5d6ab68809f9270001dac666,2021-10-22_13h08.24.785,forced_choiceRT_color,2021.2.3,Win32,19.99760029,,,,,,,,,,,,,,,,,,,,,,,
,0,f,1,0.7408,5,1,21,1,1,f,blue,5d6ab68809f9270001dac666,2021-10-22_13h08.24.785,forced_choiceRT_color,2021.2.3,Win32,19.99760029,,,,,,,,,,,,,,,,,,,,,,,
,0,j,1,1.1912,5,2,22,2,1,j,red,5d6ab68809f9270001dac666,2021-10-22_13h08.24.785,forced_choiceRT_color,2021.2.3,Win32,19.99760029,,,,,,,,,,,,,,,,,,,,,,,
,0,f,1,1.2009,5,3,23,1,1,f,blue,5d6ab68809f9270001dac666,2021-10-22_13h08.24.785,forced_choiceRT_color,2021.2.3,Win32,19.99760029,,,,,,,,,,,,,,,,,,,,,,,
,0,k,1,0.7003,6,0,24,3,1,k,purple,5d6ab68809f9270001dac666,2021-10-22_13h08.24.785,forced_choiceRT_color,2021.2.3,Win32,19.99760029,,,,,,,,,,,,,,,,,,,,,,,
,0,f,1,0.7475,6,1,25,1,1,f,blue,5d6ab68809f9270001dac666,2021-10-22_13h08.24.785,forced_choiceRT_color,2021.2.3,Win32,19.99760029,,,,,,,,,,,,,,,,,,,,,,,
,0,f,1,0.7367,6,2,26,1,1,f,blue,5d6ab68809f9270001dac666,2021-10-22_13h08.24.785,forced_choiceRT_color,2021.2.3,Win32,19.99760029,,,,,,,,,,,,,,,,,,,,,,,
,0,j,1,0.8155,6,3,27,2,1,j,red,5d6ab68809f9270001dac666,2021-10-22_13h08.24.785,forced_choiceRT_color,2021.2.3,Win32,19.99760029,,,,,,,,,,,,,,,,,,,,,,,
,0,d,1,0.831,7,0,28,0,1,d,orange,5d6ab68809f9270001dac666,2021-10-22_13h08.24.785,forced_choiceRT_color,2021.2.3,Win32,19.99760029,,,,,,,,,,,,,,,,,,,,,,,
,0,k,1,0.7879,7,1,29,3,1,k,purple,5d6ab68809f9270001dac666,2021-10-22_13h08.24.785,forced_choiceRT_color,2021.2.3,Win32,19.99760029,,,,,,,,,,,,,,,,,,,,,,,
,0,j,1,1.0233,7,2,30,2,1,j,red,5d6ab68809f9270001dac666,2021-10-22_13h08.24.785,forced_choiceRT_color,2021.2.3,Win32,19.99760029,,,,,,,,,,,,,,,,,,,,,,,
,0,k,1,0.7382,7,3,31,3,1,k,purple,5d6ab68809f9270001dac666,2021-10-22_13h08.24.785,forced_choiceRT_color,2021.2.3,Win32,19.99760029,,,,,,,,,,,,,,,,,,,,,,,
,0,d,1,0.7155,8,0,32,0,1,d,orange,5d6ab68809f9270001dac666,2021-10-22_13h08.24.785,forced_choiceRT_color,2021.2.3,Win32,19.99760029,,,,,,,,,,,,,,,,,,,,,,,
,0,d,1,0.6584,8,1,33,0,1,d,orange,5d6ab68809f9270001dac666,2021-10-22_13h08.24.785,forced_choiceRT_color,2021.2.3,Win32,19.99760029,,,,,,,,,,,,,,,,,,,,,,,
,0,f,1,0.714,8,2,34,1,1,f,blue,5d6ab68809f9270001dac666,2021-10-22_13h08.24.785,forced_choiceRT_color,2021.2.3,Win32,19.99760029,,,,,,,,,,,,,,,,,,,,,,,
,0,k,1,0.7894,8,3,35,3,1,k,purple,5d6ab68809f9270001dac666,2021-10-22_13h08.24.785,forced_choiceRT_color,2021.2.3,Win32,19.99760029,,,,,,,,,,,,,,,,,,,,,,,
,0,d,1,0.5716,9,0,36,0,1,d,orange,5d6ab68809f9270001dac666,2021-10-22_13h08.24.785,forced_choiceRT_color,2021.2.3,Win32,19.99760029,,,,,,,,,,,,,,,,,,,,,,,
,0,d,1,0.5742,9,1,37,0,1,d,orange,5d6ab68809f9270001dac666,2021-10-22_13h08.24.785,forced_choiceRT_color,2021.2.3,Win32,19.99760029,,,,,,,,,,,,,,,,,,,,,,,
,0,d,1,0.5293,9,2,38,0,1,d,orange,5d6ab68809f9270001dac666,2021-10-22_13h08.24.785,forced_choiceRT_color,2021.2.3,Win32,19.99760029,,,,,,,,,,,,,,,,,,,,,,,
,0,k,1,0.7449,9,3,39,3,1,k,purple,5d6ab68809f9270001dac666,2021-10-22_13h08.24.785,forced_choiceRT_color,2021.2.3,Win32,19.99760029,,,,,,,,,,,,,,,,,,,,,,,
,0,j,1,1.0121,10,0,40,2,1,j,red,5d6ab68809f9270001dac666,2021-10-22_13h08.24.785,forced_choiceRT_color,2021.2.3,Win32,19.99760029,,,,,,,,,,,,,,,,,,,,,,,
,0,d,1,0.6543,10,1,41,0,1,d,orange,5d6ab68809f9270001dac666,2021-10-22_13h08.24.785,forced_choiceRT_color,2021.2.3,Win32,19.99760029,,,,,,,,,,,,,,,,,,,,,,,
,0,j,1,0.7905,10,2,42,2,1,j,red,5d6ab68809f9270001dac666,2021-10-22_13h08.24.785,forced_choiceRT_color,2021.2.3,Win32,19.99760029,,,,,,,,,,,,,,,,,,,,,,,
,0,j,1,0.7756,10,3,43,2,1,j,red,5d6ab68809f9270001dac666,2021-10-22_13h08.24.785,forced_choiceRT_color,2021.2.3,Win32,19.99760029,,,,,,,,,,,,,,,,,,,,,,,
,0,k,1,0.79,11,0,44,3,1,k,purple,5d6ab68809f9270001dac666,2021-10-22_13h08.24.785,forced_choiceRT_color,2021.2.3,Win32,19.99760029,,,,,,,,,,,,,,,,,,,,,,,
,0,j,1,0.9288,11,1,45,2,1,j,red,5d6ab68809f9270001dac666,2021-10-22_13h08.24.785,forced_choiceRT_color,2021.2.3,Win32,19.99760029,,,,,,,,,,,,,,,,,,,,,,,
,0,j,1,0.7384,11,2,46,2,1,j,red,5d6ab68809f9270001dac666,2021-10-22_13h08.24.785,forced_choiceRT_color,2021.2.3,Win32,19.99760029,,,,,,,,,,,,,,,,,,,,,,,
,0,j,1,0.593,11,3,47,2,1,j,red,5d6ab68809f9270001dac666,2021-10-22_13h08.24.785,forced_choiceRT_color,2021.2.3,Win32,19.99760029,,,,,,,,,,,,,,,,,,,,,,,
,0,k,1,0.6961,12,0,48,3,1,k,purple,5d6ab68809f9270001dac666,2021-10-22_13h08.24.785,forced_choiceRT_color,2021.2.3,Win32,19.99760029,,,,,,,,,,,,,,,,,,,,,,,
,0,d,1,0.7452,12,1,49,0,1,d,orange,5d6ab68809f9270001dac666,2021-10-22_13h08.24.785,forced_choiceRT_color,2021.2.3,Win32,19.99760029,,,,,,,,,,,,,,,,,,,,,,,
,0,k,1,0.737,12,2,50,3,1,k,purple,5d6ab68809f9270001dac666,2021-10-22_13h08.24.785,forced_choiceRT_color,2021.2.3,Win32,19.99760029,,,,,,,,,,,,,,,,,,,,,,,
,0,f,1,0.7426,12,3,51,1,1,f,blue,5d6ab68809f9270001dac666,2021-10-22_13h08.24.785,forced_choiceRT_color,2021.2.3,Win32,19.99760029,,,,,,,,,,,,,,,,,,,,,,,
,0,d,1,0.6487,13,0,52,0,1,d,orange,5d6ab68809f9270001dac666,2021-10-22_13h08.24.785,forced_choiceRT_color,2021.2.3,Win32,19.99760029,,,,,,,,,,,,,,,,,,,,,,,
,0,d,1,0.5206,13,1,53,0,1,d,orange,5d6ab68809f9270001dac666,2021-10-22_13h08.24.785,forced_choiceRT_color,2021.2.3,Win32,19.99760029,,,,,,,,,,,,,,,,,,,,,,,
,0,f,1,0.6594,13,2,54,1,1,f,blue,5d6ab68809f9270001dac666,2021-10-22_13h08.24.785,forced_choiceRT_color,2021.2.3,Win32,19.99760029,,,,,,,,,,,,,,,,,,,,,,,
,0,j,1,0.691,13,3,55,2,1,j,red,5d6ab68809f9270001dac666,2021-10-22_13h08.24.785,forced_choiceRT_color,2021.2.3,Win32,19.99760029,,,,,,,,,,,,,,,,,,,,,,,
,0,f,1,0.8063,14,0,56,1,1,f,blue,5d6ab68809f9270001dac666,2021-10-22_13h08.24.785,forced_choiceRT_color,2021.2.3,Win32,19.99760029,,,,,,,,,,,,,,,,,,,,,,,
,0,f,1,0.6967,14,1,57,1,1,f,blue,5d6ab68809f9270001dac666,2021-10-22_13h08.24.785,forced_choiceRT_color,2021.2.3,Win32,19.99760029,,,,,,,,,,,,,,,,,,,,,,,
,0,f,1,0.5218,14,2,58,1,1,f,blue,5d6ab68809f9270001dac666,2021-10-22_13h08.24.785,forced_choiceRT_color,2021.2.3,Win32,19.99760029,,,,,,,,,,,,,,,,,,,,,,,
,0,f,1,0.5221,14,3,59,1,1,f,blue,5d6ab68809f9270001dac666,2021-10-22_13h08.24.785,forced_choiceRT_color,2021.2.3,Win32,19.99760029,,,,,,,,,,,,,,,,,,,,,,,
,,,,,,,,,,,,5d6ab68809f9270001dac666,2021-10-22_13h08.24.785,forced_choiceRT_color,2021.2.3,Win32,19.99760029,d,2.2678,0,0,0,0,1,,,,,,,,,,,,,,,,
,,,,,,,,,,,,5d6ab68809f9270001dac666,2021-10-22_13h08.24.785,forced_choiceRT_color,2021.2.3,Win32,19.99760029,d,2.1271,1,0,1,0,1,,,,,,,,,,,,,,,,
,,,,,,,,,,,,5d6ab68809f9270001dac666,2021-10-22_13h08.24.785,forced_choiceRT_color,2021.2.3,Win32,19.99760029,f,2.0483,2,0,2,0,1,,,,,,,,,,,,,,,,
,,,,,,,,,,,,5d6ab68809f9270001dac666,2021-10-22_13h08.24.785,forced_choiceRT_color,2021.2.3,Win32,19.99760029,f,2.011,3,0,3,0,1,,,,,,,,,,,,,,,,
,,,,,,,,,,,,5d6ab68809f9270001dac666,2021-10-22_13h08.24.785,forced_choiceRT_color,2021.2.3,Win32,19.99760029,f,2.0615,4,0,4,0,1,,,,,,,,,,,,,,,,
,,,,,,,,,,,,5d6ab68809f9270001dac666,2021-10-22_13h08.24.785,forced_choiceRT_color,2021.2.3,Win32,19.99760029,f,2.005,5,0,5,0,1,,,,,,,,,,,,,,,,
,,,,,,,,,,,,5d6ab68809f9270001dac666,2021-10-22_13h08.24.785,forced_choiceRT_color,2021.2.3,Win32,19.99760029,j,2.1014,6,0,6,0,1,,,,,,,,,,,,,,,,
,,,,,,,,,,,,5d6ab68809f9270001dac666,2021-10-22_13h08.24.785,forced_choiceRT_color,2021.2.3,Win32,19.99760029,j,2.0974,7,0,7,0,1,,,,,,,,,,,,,,,,
,,,,,,,,,,,,5d6ab68809f9270001dac666,2021-10-22_13h08.24.785,forced_choiceRT_color,2021.2.3,Win32,19.99760029,k,2.1851,8,0,8,0,1,,,,,,,,,,,,,,,,
,,,,,,,,,,,,5d6ab68809f9270001dac666,2021-10-22_13h08.24.785,forced_choiceRT_color,2021.2.3,Win32,19.99760029,k,2.047,9,0,9,0,1,,,,,,,,,,,,,,,,
,,,,,,,,,,,,5d6ab68809f9270001dac666,2021-10-22_13h08.24.785,forced_choiceRT_color,2021.2.3,Win32,19.99760029,d,2.1667,10,0,10,0,1,,,,,,,,,,,,,,,,
,,,,,,,,,,,,5d6ab68809f9270001dac666,2021-10-22_13h08.24.785,forced_choiceRT_color,2021.2.3,Win32,19.99760029,f,2.1395,11,0,11,0,1,,,,,,,,,,,,,,,,
,,,,,,,,,,,,5d6ab68809f9270001dac666,2021-10-22_13h08.24.785,forced_choiceRT_color,2021.2.3,Win32,19.99760029,f,2.0583,12,0,12,0,1,,,,,,,,,,,,,,,,
,,,,,,,,,,,,5d6ab68809f9270001dac666,2021-10-22_13h08.24.785,forced_choiceRT_color,2021.2.3,Win32,19.99760029,f,2.046,13,0,13,0,1,,,,,,,,,,,,,,,,
,,,,,,,,,,,,5d6ab68809f9270001dac666,2021-10-22_13h08.24.785,forced_choiceRT_color,2021.2.3,Win32,19.99760029,f,2.097,14,0,14,0,1,,,,,,,,,,,,,,,,
,,,,,,,,,,,,5d6ab68809f9270001dac666,2021-10-22_13h08.24.785,forced_choiceRT_color,2021.2.3,Win32,19.99760029,f,2.0971,15,0,15,0,1,,,,,,,,,,,,,,,,
,,,,,,,,,,,,5d6ab68809f9270001dac666,2021-10-22_13h08.24.785,forced_choiceRT_color,2021.2.3,Win32,19.99760029,f,2.1258,16,0,16,0,1,,,,,,,,,,,,,,,,
,,,,,,,,,,,,5d6ab68809f9270001dac666,2021-10-22_13h08.24.785,forced_choiceRT_color,2021.2.3,Win32,19.99760029,f,2.037,17,0,17,0,1,,,,,,,,,,,,,,,,
,,,,,,,,,,,,5d6ab68809f9270001dac666,2021-10-22_13h08.24.785,forced_choiceRT_color,2021.2.3,Win32,19.99760029,f,2.1192,18,0,18,0,1,,,,,,,,,,,,,,,,
,,,,,,,,,,,,5d6ab68809f9270001dac666,2021-10-22_13h08.24.785,forced_choiceRT_color,2021.2.3,Win32,19.99760029,f,2.1001,19,0,19,0,1,,,,,,,,,,,,,,,,
,0.6,,,,,,,,,f,blue,5d6ab68809f9270001dac666,2021-10-22_13h08.24.785,forced_choiceRT_color,2021.2.3,Win32,19.99760029,,,,,,,,1,Slow,short,f,1,2.1782,0,0,0,1,1,,,,,
,0.3,,,,,,,,,d,orange,5d6ab68809f9270001dac666,2021-10-22_13h08.24.785,forced_choiceRT_color,2021.2.3,Win32,19.99760029,,,,,,,,1,Ontime,short,d,1,2.0498,0,1,1,0,1,,,,,
,1.42,,,,,,,,,k,purple,5d6ab68809f9270001dac666,2021-10-22_13h08.24.785,forced_choiceRT_color,2021.2.3,Win32,19.99760029,,,,,,,,1,Slow,short,j,0,2.26,0,2,2,3,1,,,,,
,0.52,,,,,,,,,k,purple,5d6ab68809f9270001dac666,2021-10-22_13h08.24.785,forced_choiceRT_color,2021.2.3,Win32,19.99760029,,,,,,,,1,Slow,short,k,1,2.1166,0,3,3,3,1,,,,,
,0.12,,,,,,,,,f,blue,5d6ab68809f9270001dac666,2021-10-22_13h08.24.785,forced_choiceRT_color,2021.2.3,Win32,19.99760029,,,,,,,,1,Ontime,short,f,1,2.0805,1,0,4,1,1,,,,,
,1.16,,,,,,,,,k,purple,5d6ab68809f9270001dac666,2021-10-22_13h08.24.785,forced_choiceRT_color,2021.2.3,Win32,19.99760029,,,,,,,,1,Slow,short,k,1,2.2344,1,1,5,3,1,,,,,
,0.72,,,,,,,,,k,purple,5d6ab68809f9270001dac666,2021-10-22_13h08.24.785,forced_choiceRT_color,2021.2.3,Win32,19.99760029,,,,,,,,1,Ontime,short,k,1,2.0865,1,2,6,3,1,,,,,
,0.09,,,,,,,,,j,red,5d6ab68809f9270001dac666,2021-10-22_13h08.24.785,forced_choiceRT_color,2021.2.3,Win32,19.99760029,,,,,,,,1,Slow,short,f,0,2.2111,1,3,7,2,1,,,,,
,1.6,,,,,,,,,k,purple,5d6ab68809f9270001dac666,2021-10-22_13h08.24.785,forced_choiceRT_color,2021.2.3,Win32,19.99760029,,,,,,,,1,Ontime,short,j,0,2.028,2,0,8,3,1,,,,,
,1.05,,,,,,,,,f,blue,5d6ab68809f9270001dac666,2021-10-22_13h08.24.785,forced_choiceRT_color,2021.2.3,Win32,19.99760029,,,,,,,,1,Slow,short,f,1,2.2122,2,1,9,1,1,,,,,
,0.28,,,,,,,,,f,blue,5d6ab68809f9270001dac666,2021-10-22_13h08.24.785,forced_choiceRT_color,2021.2.3,Win32,19.99760029,,,,,,,,1,Slow,short,f,1,2.1293,2,2,10,1,1,,,,,
,1.45,,,,,,,,,f,blue,5d6ab68809f9270001dac666,2021-10-22_13h08.24.785,forced_choiceRT_color,2021.2.3,Win32,19.99760029,,,,,,,,1,Slow,short,f,1,2.1589,2,3,11,1,1,,,,,
,1.88,,,,,,,,,f,blue,5d6ab68809f9270001dac666,2021-10-22_13h08.24.785,forced_choiceRT_color,2021.2.3,Win32,19.99760029,,,,,,,,1,Slow,short,f,1,2.3324,3,0,12,1,1,,,,,
,1.1,,,,,,,,,d,orange,5d6ab68809f9270001dac666,2021-10-22_13h08.24.785,forced_choiceRT_color,2021.2.3,Win32,19.99760029,,,,,,,,1,Ontime,short,d,1,1.9773,3,1,13,0,1,,,,,
,1.99,,,,,,,,,d,orange,5d6ab68809f9270001dac666,2021-10-22_13h08.24.785,forced_choiceRT_color,2021.2.3,Win32,19.99760029,,,,,,,,1,Slow,short,d,1,2.4625,3,2,14,0,1,,,,,
,1.13,,,,,,,,,d,orange,5d6ab68809f9270001dac666,2021-10-22_13h08.24.785,forced_choiceRT_color,2021.2.3,Win32,19.99760029,,,,,,,,1,Slow,short,d,1,2.2,3,3,15,0,1,,,,,
,0.57,,,,,,,,,f,blue,5d6ab68809f9270001dac666,2021-10-22_13h08.24.785,forced_choiceRT_color,2021.2.3,Win32,19.99760029,,,,,,,,1,Slow,short,f,1,2.1369,4,0,16,1,1,,,,,
,1.24,,,,,,,,,d,orange,5d6ab68809f9270001dac666,2021-10-22_13h08.24.785,forced_choiceRT_color,2021.2.3,Win32,19.99760029,,,,,,,,1,Slow,short,d,1,2.1716,4,1,17,0,1,,,,,
,0.84,,,,,,,,,j,red,5d6ab68809f9270001dac666,2021-10-22_13h08.24.785,forced_choiceRT_color,2021.2.3,Win32,19.99760029,,,,,,,,1,Slow,short,j,1,2.1933,4,2,18,2,1,,,,,
,1.3,,,,,,,,,k,purple,5d6ab68809f9270001dac666,2021-10-22_13h08.24.785,forced_choiceRT_color,2021.2.3,Win32,19.99760029,,,,,,,,1,Ontime,short,k,1,1.9007,4,3,19,3,1,,,,,
,1.63,,,,,,,,,d,orange,5d6ab68809f9270001dac666,2021-10-22_13h08.24.785,forced_choiceRT_color,2021.2.3,Win32,19.99760029,,,,,,,,1,Slow,short,d,1,2.3693,5,0,20,0,1,,,,,
,1.64,,,,,,,,,f,blue,5d6ab68809f9270001dac666,2021-10-22_13h08.24.785,forced_choiceRT_color,2021.2.3,Win32,19.99760029,,,,,,,,1,Slow,short,f,1,2.2611,5,1,21,1,1,,,,,
,0.94,,,,,,,,,j,red,5d6ab68809f9270001dac666,2021-10-22_13h08.24.785,forced_choiceRT_color,2021.2.3,Win32,19.99760029,,,,,,,,1,Slow,short,j,1,2.1291,5,2,22,2,1,,,,,
,1.07,,,,,,,,,k,purple,5d6ab68809f9270001dac666,2021-10-22_13h08.24.785,forced_choiceRT_color,2021.2.3,Win32,19.99760029,,,,,,,,1,Slow,short,k,1,2.144,5,3,23,3,1,,,,,
,0.59,,,,,,,,,d,orange,5d6ab68809f9270001dac666,2021-10-22_13h08.24.785,forced_choiceRT_color,2021.2.3,Win32,19.99760029,,,,,,,,1,Slow,short,d,1,2.1684,6,0,24,0,1,,,,,
,0.78,,,,,,,,,k,purple,5d6ab68809f9270001dac666,2021-10-22_13h08.24.785,forced_choiceRT_color,2021.2.3,Win32,19.99760029,,,,,,,,1,Slow,short,k,1,2.1682,6,1,25,3,1,,,,,
,0.71,,,,,,,,,j,red,5d6ab68809f9270001dac666,2021-10-22_13h08.24.785,forced_choiceRT_color,2021.2.3,Win32,19.99760029,,,,,,,,1,Slow,short,j,1,2.2907,6,2,26,2,1,,,,,
,0.29,,,,,,,,,d,orange,5d6ab68809f9270001dac666,2021-10-22_13h08.24.785,forced_choiceRT_color,2021.2.3,Win32,19.99760029,,,,,,,,1,Ontime,short,d,1,2.0792,6,3,27,0,1,,,,,
,1.14,,,,,,,,,d,orange,5d6ab68809f9270001dac666,2021-10-22_13h08.24.785,forced_choiceRT_color,2021.2.3,Win32,19.99760029,,,,,,,,1,Slow,short,d,1,2.1177,7,0,28,0,1,,,,,
,0.83,,,,,,,,,f,blue,5d6ab68809f9270001dac666,2021-10-22_13h08.24.785,forced_choiceRT_color,2021.2.3,Win32,19.99760029,,,,,,,,1,Slow,short,f,1,2.1824,7,1,29,1,1,,,,,
,0.12,,,,,,,,,j,red,5d6ab68809f9270001dac666,2021-10-22_13h08.24.785,forced_choiceRT_color,2021.2.3,Win32,19.99760029,,,,,,,,1,Ontime,short,j,1,2.0706,7,2,30,2,1,,,,,
,0.12,,,,,,,,,d,orange,5d6ab68809f9270001dac666,2021-10-22_13h08.24.785,forced_choiceRT_color,2021.2.3,Win32,19.99760029,,,,,,,,1,Fast,short,d,1,1.8572,7,3,31,0,1,,,,,
,1.77,,,,,,,,,j,red,5d6ab68809f9270001dac666,2021-10-22_13h08.24.785,forced_choiceRT_color,2021.2.3,Win32,19.99760029,,,,,,,,1,Slow,short,f,0,2.3861,8,0,32,2,1,,,,,
,0.1,,,,,,,,,j,red,5d6ab68809f9270001dac666,2021-10-22_13h08.24.785,forced_choiceRT_color,2021.2.3,Win32,19.99760029,,,,,,,,1,Slow,short,j,1,2.1393,8,1,33,2,1,,,,,
,0.4,,,,,,,,,k,purple,5d6ab68809f9270001dac666,2021-10-22_13h08.24.785,forced_choiceRT_color,2021.2.3,Win32,19.99760029,,,,,,,,1,Slow,short,k,1,2.1784,8,2,34,3,1,,,,,
,1.15,,,,,,,,,j,red,5d6ab68809f9270001dac666,2021-10-22_13h08.24.785,forced_choiceRT_color,2021.2.3,Win32,19.99760029,,,,,,,,1,Slow,short,j,1,2.2295,8,3,35,2,1,,,,,
,0.36,,,,,,,,,f,blue,5d6ab68809f9270001dac666,2021-10-22_13h08.24.785,forced_choiceRT_color,2021.2.3,Win32,19.99760029,,,,,,,,1,Slow,short,f,1,2.1928,9,0,36,1,1,,,,,
,1.51,,,,,,,,,j,red,5d6ab68809f9270001dac666,2021-10-22_13h08.24.785,forced_choiceRT_color,2021.2.3,Win32,19.99760029,,,,,,,,1,Slow,short,j,1,2.2096,9,1,37,2,1,,,,,
,1.58,,,,,,,,,k,purple,5d6ab68809f9270001dac666,2021-10-22_13h08.24.785,forced_choiceRT_color,2021.2.3,Win32,19.99760029,,,,,,,,1,Slow,short,k,1,2.362,9,2,38,3,1,,,,,
,1.42,,,,,,,,,j,red,5d6ab68809f9270001dac666,2021-10-22_13h08.24.785,forced_choiceRT_color,2021.2.3,Win32,19.99760029,,,,,,,,1,Slow,short,j,1,2.1148,9,3,39,2,1,,,,,
,,,,,,,,,,,,5d6ab68809f9270001dac666,2021-10-22_13h08.24.785,forced_choiceRT_color,2021.2.3,Win32,19.99760029,,,,,,,,,,,,,,,,,,,0,0,0,0,1
,1.95,,,,,,,,,j,red,5d6ab68809f9270001dac666,2021-10-22_13h08.24.785,forced_choiceRT_color,2021.2.3,Win32,19.99760029,,,,,,,,2,Slow,short,j,1,2.3291,0,0,0,2,1,,,,,
,1.46,,,,,,,,,k,purple,5d6ab68809f9270001dac666,2021-10-22_13h08.24.785,forced_choiceRT_color,2021.2.3,Win32,19.99760029,,,,,,,,2,Fast,short,j,0,1.879,0,1,1,3,1,,,,,
,1.2,,,,,,,,,k,purple,5d6ab68809f9270001dac666,2021-10-22_13h08.24.785,forced_choiceRT_color,2021.2.3,Win32,19.99760029,,,,,,,,2,Ontime,short,k,1,2.0591,0,2,2,3,1,,,,,
,0.57,,,,,,,,,j,red,5d6ab68809f9270001dac666,2021-10-22_13h08.24.785,forced_choiceRT_color,2021.2.3,Win32,19.99760029,,,,,,,,2,Slow,short,j,1,2.2332,0,3,3,2,1,,,,,
,0.9,,,,,,,,,d,orange,5d6ab68809f9270001dac666,2021-10-22_13h08.24.785,forced_choiceRT_color,2021.2.3,Win32,19.99760029,,,,,,,,2,Slow,short,d,1,2.1165,1,0,4,0,1,,,,,
,0.89,,,,,,,,,f,blue,5d6ab68809f9270001dac666,2021-10-22_13h08.24.785,forced_choiceRT_color,2021.2.3,Win32,19.99760029,,,,,,,,2,Ontime,short,f,1,2.0047,1,1,5,1,1,,,,,
,1.23,,,,,,,,,j,red,5d6ab68809f9270001dac666,2021-10-22_13h08.24.785,forced_choiceRT_color,2021.2.3,Win32,19.99760029,,,,,,,,2,Ontime,short,j,1,2.0696,1,2,6,2,1,,,,,
,1.32,,,,,,,,,f,blue,5d6ab68809f9270001dac666,2021-10-22_13h08.24.785,forced_choiceRT_color,2021.2.3,Win32,19.99760029,,,,,,,,2,Ontime,short,j,0,2.0152,1,3,7,1,1,,,,,
,0.25,,,,,,,,,k,purple,5d6ab68809f9270001dac666,2021-10-22_13h08.24.785,forced_choiceRT_color,2021.2.3,Win32,19.99760029,,,,,,,,2,Fast,short,f,0,0.0269,2,0,8,3,1,,,,,
,1.21,,,,,,,,,f,blue,5d6ab68809f9270001dac666,2021-10-22_13h08.24.785,forced_choiceRT_color,2021.2.3,Win32,19.99760029,,,,,,,,2,Slow,short,f,1,2.2111,2,1,9,1,1,,,,,
,0.1,,,,,,,,,k,purple,5d6ab68809f9270001dac666,2021-10-22_13h08.24.785,forced_choiceRT_color,2021.2.3,Win32,19.99760029,,,,,,,,2,Slow,short,k,1,2.1917,2,2,10,3,1,,,,,
,0.17,,,,,,,,,f,blue,5d6ab68809f9270001dac666,2021-10-22_13h08.24.785,forced_choiceRT_color,2021.2.3,Win32,19.99760029,,,,,,,,2,Slow,short,f,1,2.1161,2,3,11,1,1,,,,,
,1.09,,,,,,,,,d,orange,5d6ab68809f9270001dac666,2021-10-22_13h08.24.785,forced_choiceRT_color,2021.2.3,Win32,19.99760029,,,,,,,,2,Slow,short,d,1,2.1628,3,0,12,0,1,,,,,
,1.82,,,,,,,,,d,orange,5d6ab68809f9270001dac666,2021-10-22_13h08.24.785,forced_choiceRT_color,2021.2.3,Win32,19.99760029,,,,,,,,2,Slow,short,j,0,2.1875,3,1,13,0,1,,,,,
,1.83,,,,,,,,,d,orange,5d6ab68809f9270001dac666,2021-10-22_13h08.24.785,forced_choiceRT_color,2021.2.3,Win32,19.99760029,,,,,,,,2,Slow,short,d,1,2.1287,3,2,14,0,1,,,,,
,0.04,,,,,,,,,f,blue,5d6ab68809f9270001dac666,2021-10-22_13h08.24.785,forced_choiceRT_color,2021.2.3,Win32,19.99760029,,,,,,,,2,Slow,short,f,1,2.1381,3,3,15,1,1,,,,,
,0.24,,,,,,,,,f,blue,5d6ab68809f9270001dac666,2021-10-22_13h08.24.785,forced_choiceRT_color,2021.2.3,Win32,19.99760029,,,,,,,,2,Ontime,short,f,1,2.0597,4,0,16,1,1,,,,,
,1.49,,,,,,,,,j,red,5d6ab68809f9270001dac666,2021-10-22_13h08.24.785,forced_choiceRT_color,2021.2.3,Win32,19.99760029,,,,,,,,2,Slow,short,j,1,2.2236,4,1,17,2,1,,,,,
,1.45,,,,,,,,,k,purple,5d6ab68809f9270001dac666,2021-10-22_13h08.24.785,forced_choiceRT_color,2021.2.3,Win32,19.99760029,,,,,,,,2,Ontime,short,k,1,2.0511,4,2,18,3,1,,,,,
,1.87,,,,,,,,,d,orange,5d6ab68809f9270001dac666,2021-10-22_13h08.24.785,forced_choiceRT_color,2021.2.3,Win32,19.99760029,,,,,,,,2,Slow,short,d,1,2.3417,4,3,19,0,1,,,,,
,0.08,,,,,,,,,d,orange,5d6ab68809f9270001dac666,2021-10-22_13h08.24.785,forced_choiceRT_color,2021.2.3,Win32,19.99760029,,,,,,,,2,Ontime,short,d,1,2.0614,5,0,20,0,1,,,,,
,1.37,,,,,,,,,j,red,5d6ab68809f9270001dac666,2021-10-22_13h08.24.785,forced_choiceRT_color,2021.2.3,Win32,19.99760029,,,,,,,,2,Ontime,short,f,0,2.0061,5,1,21,2,1,,,,,
,1.9,,,,,,,,,d,orange,5d6ab68809f9270001dac666,2021-10-22_13h08.24.785,forced_choiceRT_color,2021.2.3,Win32,19.99760029,,,,,,,,2,Slow,short,j,0,2.1739,5,2,22,0,1,,,,,
,1.64,,,,,,,,,d,orange,5d6ab68809f9270001dac666,2021-10-22_13h08.24.785,forced_choiceRT_color,2021.2.3,Win32,19.99760029,,,,,,,,2,Ontime,short,k,0,1.997,5,3,23,0,1,,,,,
,1.05,,,,,,,,,k,purple,5d6ab68809f9270001dac666,2021-10-22_13h08.24.785,forced_choiceRT_color,2021.2.3,Win32,19.99760029,,,,,,,,2,Slow,short,k,1,2.1531,6,0,24,3,1,,,,,
,1.22,,,,,,,,,d,orange,5d6ab68809f9270001dac666,2021-10-22_13h08.24.785,forced_choiceRT_color,2021.2.3,Win32,19.99760029,,,,,,,,2,Slow,short,d,1,2.1512,6,1,25,0,1,,,,,
,0.66,,,,,,,,,f,blue,5d6ab68809f9270001dac666,2021-10-22_13h08.24.785,forced_choiceRT_color,2021.2.3,Win32,19.99760029,,,,,,,,2,Ontime,short,f,1,2.0945,6,2,26,1,1,,,,,
,1.75,,,,,,,,,j,red,5d6ab68809f9270001dac666,2021-10-22_13h08.24.785,forced_choiceRT_color,2021.2.3,Win32,19.99760029,,,,,,,,2,Slow,short,j,1,2.13,6,3,27,2,1,,,,,
,1.12,,,,,,,,,j,red,5d6ab68809f9270001dac666,2021-10-22_13h08.24.785,forced_choiceRT_color,2021.2.3,Win32,19.99760029,,,,,,,,2,Slow,short,j,1,2.1389,7,0,28,2,1,,,,,
,0.61,,,,,,,,,j,red,5d6ab68809f9270001dac666,2021-10-22_13h08.24.785,forced_choiceRT_color,2021.2.3,Win32,19.99760029,,,,,,,,2,Ontime,short,j,1,2.0221,7,1,29,2,1,,,,,
,1.27,,,,,,,,,j,red,5d6ab68809f9270001dac666,2021-10-22_13h08.24.785,forced_choiceRT_color,2021.2.3,Win32,19.99760029,,,,,,,,2,Slow,short,j,1,2.145,7,2,30,2,1,,,,,
,1.68,,,,,,,,,k,purple,5d6ab68809f9270001dac666,2021-10-22_13h08.24.785,forced_choiceRT_color,2021.2.3,Win32,19.99760029,,,,,,,,2,Slow,short,k,1,2.2377,7,3,31,3,1,,,,,
,0.65,,,,,,,,,j,red,5d6ab68809f9270001dac666,2021-10-22_13h08.24.785,forced_choiceRT_color,2021.2.3,Win32,19.99760029,,,,,,,,2,Ontime,short,j,1,2.0822,8,0,32,2,1,,,,,
,0.66,,,,,,,,,k,purple,5d6ab68809f9270001dac666,2021-10-22_13h08.24.785,forced_choiceRT_color,2021.2.3,Win32,19.99760029,,,,,,,,2,Ontime,short,k,1,2.0772,8,1,33,3,1,,,,,
,0.54,,,,,,,,,f,blue,5d6ab68809f9270001dac666,2021-10-22_13h08.24.785,forced_choiceRT_color,2021.2.3,Win32,19.99760029,,,,,,,,2,Fast,short,f,1,1.8261,8,2,34,1,1,,,,,
,0.49,,,,,,,,,k,purple,5d6ab68809f9270001dac666,2021-10-22_13h08.24.785,forced_choiceRT_color,2021.2.3,Win32,19.99760029,,,,,,,,2,Ontime,short,k,1,2.0441,8,3,35,3,1,,,,,
,1.86,,,,,,,,,f,blue,5d6ab68809f9270001dac666,2021-10-22_13h08.24.785,forced_choiceRT_color,2021.2.3,Win32,19.99760029,,,,,,,,2,Slow,short,k,0,2.3675,9,0,36,1,1,,,,,
,1.29,,,,,,,,,k,purple,5d6ab68809f9270001dac666,2021-10-22_13h08.24.785,forced_choiceRT_color,2021.2.3,Win32,19.99760029,,,,,,,,2,Ontime,short,k,1,2.0762,9,1,37,3,1,,,,,
,0.75,,,,,,,,,d,orange,5d6ab68809f9270001dac666,2021-10-22_13h08.24.785,forced_choiceRT_color,2021.2.3,Win32,19.99760029,,,,,,,,2,Ontime,short,d,1,2.0955,9,2,38,0,1,,,,,
,0.8,,,,,,,,,f,blue,5d6ab68809f9270001dac666,2021-10-22_13h08.24.785,forced_choiceRT_color,2021.2.3,Win32,19.99760029,,,,,,,,2,Ontime,short,f,1,2.0496,9,3,39,1,1,,,,,
,,,,,,,,,,,,5d6ab68809f9270001dac666,2021-10-22_13h08.24.785,forced_choiceRT_color,2021.2.3,Win32,19.99760029,,,,,,,,,,,,,,,,,,,1,0,1,0,1
,1.28,,,,,,,,,j,red,5d6ab68809f9270001dac666,2021-10-22_13h08.24.785,forced_choiceRT_color,2021.2.3,Win32,19.99760029,,,,,,,,3,Slow,short,j,1,2.2159,0,0,0,2,1,,,,,
,1.33,,,,,,,,,j,red,5d6ab68809f9270001dac666,2021-10-22_13h08.24.785,forced_choiceRT_color,2021.2.3,Win32,19.99760029,,,,,,,,3,Ontime,short,j,1,2.0544,0,1,1,2,1,,,,,
,1.66,,,,,,,,,d,orange,5d6ab68809f9270001dac666,2021-10-22_13h08.24.785,forced_choiceRT_color,2021.2.3,Win32,19.99760029,,,,,,,,3,Slow,short,d,1,2.2477,0,2,2,0,1,,,,,
,1.27,,,,,,,,,j,red,5d6ab68809f9270001dac666,2021-10-22_13h08.24.785,forced_choiceRT_color,2021.2.3,Win32,19.99760029,,,,,,,,3,Slow,short,j,1,2.1139,0,3,3,2,1,,,,,
,0.47,,,,,,,,,j,red,5d6ab68809f9270001dac666,2021-10-22_13h08.24.785,forced_choiceRT_color,2021.2.3,Win32,19.99760029,,,,,,,,3,Ontime,short,j,1,1.9942,1,0,4,2,1,,,,,
,1.84,,,,,,,,,d,orange,5d6ab68809f9270001dac666,2021-10-22_13h08.24.785,forced_choiceRT_color,2021.2.3,Win32,19.99760029,,,,,,,,3,Slow,short,d,1,3.5333,1,1,5,0,1,,,,,
,1.17,,,,,,,,,k,purple,5d6ab68809f9270001dac666,2021-10-22_13h08.24.785,forced_choiceRT_color,2021.2.3,Win32,19.99760029,,,,,,,,3,Ontime,short,k,1,1.9909,1,2,6,3,1,,,,,
,1.83,,,,,,,,,f,blue,5d6ab68809f9270001dac666,2021-10-22_13h08.24.785,forced_choiceRT_color,2021.2.3,Win32,19.99760029,,,,,,,,3,Slow,short,d,0,2.7317,1,3,7,1,1,,,,,
,1.09,,,,,,,,,k,purple,5d6ab68809f9270001dac666,2021-10-22_13h08.24.785,forced_choiceRT_color,2021.2.3,Win32,19.99760029,,,,,,,,3,Slow,short,f,0,2.142,2,0,8,3,1,,,,,
,0.88,,,,,,,,,d,orange,5d6ab68809f9270001dac666,2021-10-22_13h08.24.785,forced_choiceRT_color,2021.2.3,Win32,19.99760029,,,,,,,,3,Ontime,short,d,1,1.9854,2,1,9,0,1,,,,,
,0.91,,,,,,,,,d,orange,5d6ab68809f9270001dac666,2021-10-22_13h08.24.785,forced_choiceRT_color,2021.2.3,Win32,19.99760029,,,,,,,,3,Ontime,short,d,1,2.0916,2,2,10,0,1,,,,,
,0.55,,,,,,,,,f,blue,5d6ab68809f9270001dac666,2021-10-22_13h08.24.785,forced_choiceRT_color,2021.2.3,Win32,19.99760029,,,,,,,,3,Ontime,short,f,1,1.9969,2,3,11,1,1,,,,,
,0,,,,,,,,,d,orange,5d6ab68809f9270001dac666,2021-10-22_13h08.24.785,forced_choiceRT_color,2021.2.3,Win32,19.99760029,,,,,,,,3,Fast,short,d,1,1.7502,3,0,12,0,1,,,,,
,1.22,,,,,,,,,k,purple,5d6ab68809f9270001dac666,2021-10-22_13h08.24.785,forced_choiceRT_color,2021.2.3,Win32,19.99760029,,,,,,,,3,Slow,short,j,0,2.1147,3,1,13,3,1,,,,,
,0.6,,,,,,,,,f,blue,5d6ab68809f9270001dac666,2021-10-22_13h08.24.785,forced_choiceRT_color,2021.2.3,Win32,19.99760029,,,,,,,,3,Ontime,short,f,1,2.0804,3,2,14,1,1,,,,,
,1.93,,,,,,,,,f,blue,5d6ab68809f9270001dac666,2021-10-22_13h08.24.785,forced_choiceRT_color,2021.2.3,Win32,19.99760029,,,,,,,,3,Slow,short,f,1,2.6437,3,3,15,1,1,,,,,
,1.01,,,,,,,,,j,red,5d6ab68809f9270001dac666,2021-10-22_13h08.24.785,forced_choiceRT_color,2021.2.3,Win32,19.99760029,,,,,,,,3,Ontime,short,j,1,2.0814,4,0,16,2,1,,,,,
,0.72,,,,,,,,,j,red,5d6ab68809f9270001dac666,2021-10-22_13h08.24.785,forced_choiceRT_color,2021.2.3,Win32,19.99760029,,,,,,,,3,Ontime,short,j,1,2.0807,4,1,17,2,1,,,,,
,0.87,,,,,,,,,d,orange,5d6ab68809f9270001dac666,2021-10-22_13h08.24.785,forced_choiceRT_color,2021.2.3,Win32,19.99760029,,,,,,,,3,Ontime,short,d,1,2.0792,4,2,18,0,1,,,,,
,0.77,,,,,,,,,k,purple,5d6ab68809f9270001dac666,2021-10-22_13h08.24.785,forced_choiceRT_color,2021.2.3,Win32,19.99760029,,,,,,,,3,Slow,short,k,1,2.187,4,3,19,3,1,,,,,
,1.52,,,,,,,,,d,orange,5d6ab68809f9270001dac666,2021-10-22_13h08.24.785,forced_choiceRT_color,2021.2.3,Win32,19.99760029,,,,,,,,3,Slow,short,d,1,2.148,5,0,20,0,1,,,,,
,0.45,,,,,,,,,j,red,5d6ab68809f9270001dac666,2021-10-22_13h08.24.785,forced_choiceRT_color,2021.2.3,Win32,19.99760029,,,,,,,,3,Ontime,short,j,1,2.0838,5,1,21,2,1,,,,,
,1.46,,,,,,,,,f,blue,5d6ab68809f9270001dac666,2021-10-22_13h08.24.785,forced_choiceRT_color,2021.2.3,Win32,19.99760029,,,,,,,,3,Slow,short,j,0,2.2214,5,2,22,1,1,,,,,
,0.39,,,,,,,,,k,purple,5d6ab68809f9270001dac666,2021-10-22_13h08.24.785,forced_choiceRT_color,2021.2.3,Win32,19.99760029,,,,,,,,3,Ontime,short,k,1,2.0547,5,3,23,3,1,,,,,
,1.42,,,,,,,,,j,red,5d6ab68809f9270001dac666,2021-10-22_13h08.24.785,forced_choiceRT_color,2021.2.3,Win32,19.99760029,,,,,,,,3,Slow,short,j,1,2.1924,6,0,24,2,1,,,,,
,1.35,,,,,,,,,f,blue,5d6ab68809f9270001dac666,2021-10-22_13h08.24.785,forced_choiceRT_color,2021.2.3,Win32,19.99760029,,,,,,,,3,Slow,short,f,1,2.1634,6,1,25,1,1,,,,,
,1.87,,,,,,,,,f,blue,5d6ab68809f9270001dac666,2021-10-22_13h08.24.785,forced_choiceRT_color,2021.2.3,Win32,19.99760029,,,,,,,,3,Slow,short,f,1,2.4114,6,2,26,1,1,,,,,
,0.77,,,,,,,,,f,blue,5d6ab68809f9270001dac666,2021-10-22_13h08.24.785,forced_choiceRT_color,2021.2.3,Win32,19.99760029,,,,,,,,3,Ontime,short,f,1,2.0993,6,3,27,1,1,,,,,
,0.12,,,,,,,,,f,blue,5d6ab68809f9270001dac666,2021-10-22_13h08.24.785,forced_choiceRT_color,2021.2.3,Win32,19.99760029,,,,,,,,3,Ontime,short,f,1,2.0723,7,0,28,1,1,,,,,
,1.03,,,,,,,,,f,blue,5d6ab68809f9270001dac666,2021-10-22_13h08.24.785,forced_choiceRT_color,2021.2.3,Win32,19.99760029,,,,,,,,3,Ontime,short,f,1,2.0722,7,1,29,1,1,,,,,
,1.26,,,,,,,,,j,red,5d6ab68809f9270001dac666,2021-10-22_13h08.24.785,forced_choiceRT_color,2021.2.3,Win32,19.99760029,,,,,,,,3,Slow,short,j,1,2.1686,7,2,30,2,1,,,,,
,1.91,,,,,,,,,k,purple,5d6ab68809f9270001dac666,2021-10-22_13h08.24.785,forced_choiceRT_color,2021.2.3,Win32,19.99760029,,,,,,,,3,Slow,short,j,0,2.1794,7,3,31,3,1,,,,,
,0.35,,,,,,,,,k,purple,5d6ab68809f9270001dac666,2021-10-22_13h08.24.785,forced_choiceRT_color,2021.2.3,Win32,19.99760029,,,,,,,,3,Ontime,short,k,1,2.0509,8,0,32,3,1,,,,,
,1.65,,,,,,,,,j,red,5d6ab68809f9270001dac666,2021-10-22_13h08.24.785,forced_choiceRT_color,2021.2.3,Win32,19.99760029,,,,,,,,3,Slow,short,f,0,2.2029,8,1,33,2,1,,,,,
,0.15,,,,,,,,,k,purple,5d6ab68809f9270001dac666,2021-10-22_13h08.24.785,forced_choiceRT_color,2021.2.3,Win32,19.99760029,,,,,,,,3,Ontime,short,k,1,2.0594,8,2,34,3,1,,,,,
,0.34,,,,,,,,,d,orange,5d6ab68809f9270001dac666,2021-10-22_13h08.24.785,forced_choiceRT_color,2021.2.3,Win32,19.99760029,,,,,,,,3,Ontime,short,d,1,2.09,8,3,35,0,1,,,,,
,1.99,,,,,,,,,k,purple,5d6ab68809f9270001dac666,2021-10-22_13h08.24.785,forced_choiceRT_color,2021.2.3,Win32,19.99760029,,,,,,,,3,Slow,short,j,0,2.1504,9,0,36,3,1,,,,,
,1.61,,,,,,,,,k,purple,5d6ab68809f9270001dac666,2021-10-22_13h08.24.785,forced_choiceRT_color,2021.2.3,Win32,19.99760029,,,,,,,,3,Slow,short,k,1,2.3341,9,1,37,3,1,,,,,
,0.53,,,,,,,,,d,orange,5d6ab68809f9270001dac666,2021-10-22_13h08.24.785,forced_choiceRT_color,2021.2.3,Win32,19.99760029,,,,,,,,3,Slow,short,d,1,2.1114,9,2,38,0,1,,,,,
,0.74,,,,,,,,,d,orange,5d6ab68809f9270001dac666,2021-10-22_13h08.24.785,forced_choiceRT_color,2021.2.3,Win32,19.99760029,,,,,,,,3,Ontime,short,d,1,2.0917,9,3,39,0,1,,,,,
,,,,,,,,,,,,5d6ab68809f9270001dac666,2021-10-22_13h08.24.785,forced_choiceRT_color,2021.2.3,Win32,19.99760029,,,,,,,,,,,,,,,,,,,2,0,2,0,1
,0.81,,,,,,,,,k,purple,5d6ab68809f9270001dac666,2021-10-22_13h08.24.785,forced_choiceRT_color,2021.2.3,Win32,19.99760029,,,,,,,,4,Ontime,short,k,1,1.9933,0,0,0,3,1,,,,,
,1.43,,,,,,,,,d,orange,5d6ab68809f9270001dac666,2021-10-22_13h08.24.785,forced_choiceRT_color,2021.2.3,Win32,19.99760029,,,,,,,,4,Slow,short,d,1,2.2001,0,1,1,0,1,,,,,
,1,,,,,,,,,d,orange,5d6ab68809f9270001dac666,2021-10-22_13h08.24.785,forced_choiceRT_color,2021.2.3,Win32,19.99760029,,,,,,,,4,Ontime,short,d,1,2.0993,0,2,2,0,1,,,,,
,1.72,,,,,,,,,j,red,5d6ab68809f9270001dac666,2021-10-22_13h08.24.785,forced_choiceRT_color,2021.2.3,Win32,19.99760029,,,,,,,,4,Slow,short,d,0,2.1137,0,3,3,2,1,,,,,
,1.48,,,,,,,,,k,purple,5d6ab68809f9270001dac666,2021-10-22_13h08.24.785,forced_choiceRT_color,2021.2.3,Win32,19.99760029,,,,,,,,4,Slow,short,j,0,2.178,1,0,4,3,1,,,,,
,0.02,,,,,,,,,f,blue,5d6ab68809f9270001dac666,2021-10-22_13h08.24.785,forced_choiceRT_color,2021.2.3,Win32,19.99760029,,,,,,,,4,Slow,short,f,1,2.1098,1,1,5,1,1,,,,,
,0.18,,,,,,,,,k,purple,5d6ab68809f9270001dac666,2021-10-22_13h08.24.785,forced_choiceRT_color,2021.2.3,Win32,19.99760029,,,,,,,,4,Slow,short,k,1,2.2165,1,2,6,3,1,,,,,
,0.83,,,,,,,,,d,orange,5d6ab68809f9270001dac666,2021-10-22_13h08.24.785,forced_choiceRT_color,2021.2.3,Win32,19.99760029,,,,,,,,4,Slow,short,d,1,2.1434,1,3,7,0,1,,,,,
,0.72,,,,,,,,,k,purple,5d6ab68809f9270001dac666,2021-10-22_13h08.24.785,forced_choiceRT_color,2021.2.3,Win32,19.99760029,,,,,,,,4,Ontime,short,k,1,2.0874,2,0,8,3,1,,,,,
,0.73,,,,,,,,,f,blue,5d6ab68809f9270001dac666,2021-10-22_13h08.24.785,forced_choiceRT_color,2021.2.3,Win32,19.99760029,,,,,,,,4,Slow,short,d,0,2.1391,2,1,9,1,1,,,,,
,1.47,,,,,,,,,f,blue,5d6ab68809f9270001dac666,2021-10-22_13h08.24.785,forced_choiceRT_color,2021.2.3,Win32,19.99760029,,,,,,,,4,Slow,short,f,1,2.181,2,2,10,1,1,,,,,
,1.03,,,,,,,,,k,purple,5d6ab68809f9270001dac666,2021-10-22_13h08.24.785,forced_choiceRT_color,2021.2.3,Win32,19.99760029,,,,,,,,4,Slow,short,k,1,2.1487,2,3,11,3,1,,,,,
,0.81,,,,,,,,,k,purple,5d6ab68809f9270001dac666,2021-10-22_13h08.24.785,forced_choiceRT_color,2021.2.3,Win32,19.99760029,,,,,,,,4,Slow,short,k,1,2.1031,3,0,12,3,1,,,,,
,0.36,,,,,,,,,k,purple,5d6ab68809f9270001dac666,2021-10-22_13h08.24.785,forced_choiceRT_color,2021.2.3,Win32,19.99760029,,,,,,,,4,Ontime,short,k,1,2.0572,3,1,13,3,1,,,,,
,1.73,,,,,,,,,f,blue,5d6ab68809f9270001dac666,2021-10-22_13h08.24.785,forced_choiceRT_color,2021.2.3,Win32,19.99760029,,,,,,,,4,Slow,short,k,0,2.283,3,2,14,1,1,,,,,
,1.86,,,,,,,,,k,purple,5d6ab68809f9270001dac666,2021-10-22_13h08.24.785,forced_choiceRT_color,2021.2.3,Win32,19.99760029,,,,,,,,4,Slow,short,f,0,2.1804,3,3,15,3,1,,,,,
,1.23,,,,,,,,,j,red,5d6ab68809f9270001dac666,2021-10-22_13h08.24.785,forced_choiceRT_color,2021.2.3,Win32,19.99760029,,,,,,,,4,Ontime,short,f,0,1.9712,4,0,16,2,1,,,,,
,1.45,,,,,,,,,d,orange,5d6ab68809f9270001dac666,2021-10-22_13h08.24.785,forced_choiceRT_color,2021.2.3,Win32,19.99760029,,,,,,,,4,Slow,short,d,1,2.1755,4,1,17,0,1,,,,,
,0.82,,,,,,,,,f,blue,5d6ab68809f9270001dac666,2021-10-22_13h08.24.785,forced_choiceRT_color,2021.2.3,Win32,19.99760029,,,,,,,,4,Slow,short,f,1,2.1189,4,2,18,1,1,,,,,
,1.78,,,,,,,,,d,orange,5d6ab68809f9270001dac666,2021-10-22_13h08.24.785,forced_choiceRT_color,2021.2.3,Win32,19.99760029,,,,,,,,4,Slow,short,f,0,2.3091,4,3,19,0,1,,,,,
,1.3,,,,,,,,,d,orange,5d6ab68809f9270001dac666,2021-10-22_13h08.24.785,forced_choiceRT_color,2021.2.3,Win32,19.99760029,,,,,,,,4,Slow,short,d,1,2.1746,5,0,20,0,1,,,,,
,0,,,,,,,,,f,blue,5d6ab68809f9270001dac666,2021-10-22_13h08.24.785,forced_choiceRT_color,2021.2.3,Win32,19.99760029,,,,,,,,4,Slow,short,f,1,2.1314,5,1,21,1,1,,,,,
,1.27,,,,,,,,,j,red,5d6ab68809f9270001dac666,2021-10-22_13h08.24.785,forced_choiceRT_color,2021.2.3,Win32,19.99760029,,,,,,,,4,Slow,short,f,0,2.2547,5,2,22,2,1,,,,,
,1.26,,,,,,,,,k,purple,5d6ab68809f9270001dac666,2021-10-22_13h08.24.785,forced_choiceRT_color,2021.2.3,Win32,19.99760029,,,,,,,,4,Slow,short,k,1,2.2247,5,3,23,3,1,,,,,
,1.24,,,,,,,,,d,orange,5d6ab68809f9270001dac666,2021-10-22_13h08.24.785,forced_choiceRT_color,2021.2.3,Win32,19.99760029,,,,,,,,4,Ontime,short,d,1,1.9768,6,0,24,0,1,,,,,
,1.23,,,,,,,,,d,orange,5d6ab68809f9270001dac666,2021-10-22_13h08.24.785,forced_choiceRT_color,2021.2.3,Win32,19.99760029,,,,,,,,4,Slow,short,d,1,2.1343,6,1,25,0,1,,,,,
,0.43,,,,,,,,,j,red,5d6ab68809f9270001dac666,2021-10-22_13h08.24.785,forced_choiceRT_color,2021.2.3,Win32,19.99760029,,,,,,,,4,Slow,short,j,1,2.1411,6,2,26,2,1,,,,,
,1.74,,,,,,,,,j,red,5d6ab68809f9270001dac666,2021-10-22_13h08.24.785,forced_choiceRT_color,2021.2.3,Win32,19.99760029,,,,,,,,4,Slow,short,f,0,2.4304,6,3,27,2,1,,,,,
,1.59,,,,,,,,,f,blue,5d6ab68809f9270001dac666,2021-10-22_13h08.24.785,forced_choiceRT_color,2021.2.3,Win32,19.99760029,,,,,,,,4,Slow,short,f,1,2.7312,7,0,28,1,1,,,,,
,0.36,,,,,,,,,j,red,5d6ab68809f9270001dac666,2021-10-22_13h08.24.785,forced_choiceRT_color,2021.2.3,Win32,19.99760029,,,,,,,,4,Slow,short,j,1,2.175,7,1,29,2,1,,,,,
,1.31,,,,,,,,,f,blue,5d6ab68809f9270001dac666,2021-10-22_13h08.24.785,forced_choiceRT_color,2021.2.3,Win32,19.99760029,,,,,,,,4,Slow,short,f,1,2.3178,7,2,30,1,1,,,,,
,0.52,,,,,,,,,d,orange,5d6ab68809f9270001dac666,2021-10-22_13h08.24.785,forced_choiceRT_color,2021.2.3,Win32,19.99760029,,,,,,,,4,Slow,short,k,0,2.2689,7,3,31,0,1,,,,,
,1.86,,,,,,,,,j,red,5d6ab68809f9270001dac666,2021-10-22_13h08.24.785,forced_choiceRT_color,2021.2.3,Win32,19.99760029,,,,,,,,4,Slow,short,f,0,2.5236,8,0,32,2,1,,,,,
,1.83,,,,,,,,,j,red,5d6ab68809f9270001dac666,2021-10-22_13h08.24.785,forced_choiceRT_color,2021.2.3,Win32,19.99760029,,,,,,,,4,Slow,short,j,1,2.5789,8,1,33,2,1,,,,,
,1.31,,,,,,,,,j,red,5d6ab68809f9270001dac666,2021-10-22_13h08.24.785,forced_choiceRT_color,2021.2.3,Win32,19.99760029,,,,,,,,4,Ontime,short,j,1,1.9146,8,2,34,2,1,,,,,
,0.58,,,,,,,,,j,red,5d6ab68809f9270001dac666,2021-10-22_13h08.24.785,forced_choiceRT_color,2021.2.3,Win32,19.99760029,,,,,,,,4,Slow,short,j,1,2.1977,8,3,35,2,1,,,,,
,0.08,,,,,,,,,f,blue,5d6ab68809f9270001dac666,2021-10-22_13h08.24.785,forced_choiceRT_color,2021.2.3,Win32,19.99760029,,,,,,,,4,Ontime,short,f,1,2.0206,9,0,36,1,1,,,,,
,0.14,,,,,,,,,f,blue,5d6ab68809f9270001dac666,2021-10-22_13h08.24.785,forced_choiceRT_color,2021.2.3,Win32,19.99760029,,,,,,,,4,Ontime,short,f,1,2.0624,9,1,37,1,1,,,,,
,0.54,,,,,,,,,d,orange,5d6ab68809f9270001dac666,2021-10-22_13h08.24.785,forced_choiceRT_color,2021.2.3,Win32,19.99760029,,,,,,,,4,Ontime,short,d,1,2.0786,9,2,38,0,1,,,,,
,0.67,,,,,,,,,k,purple,5d6ab68809f9270001dac666,2021-10-22_13h08.24.785,forced_choiceRT_color,2021.2.3,Win32,19.99760029,,,,,,,,4,Slow,short,k,1,2.1145,9,3,39,3,1,,,,,
,,,,,,,,,,,,5d6ab68809f9270001dac666,2021-10-22_13h08.24.785,forced_choiceRT_color,2021.2.3,Win32,19.99760029,,,,,,,,,,,,,,,,,,,3,0,3,0,1
,1.82,,,,,,,,,f,blue,5d6ab68809f9270001dac666,2021-10-22_13h08.24.785,forced_choiceRT_color,2021.2.3,Win32,19.99760029,,,,,,,,5,Slow,short,f,1,2.1116,0,0,0,1,1,,,,,
,0.25,,,,,,,,,j,red,5d6ab68809f9270001dac666,2021-10-22_13h08.24.785,forced_choiceRT_color,2021.2.3,Win32,19.99760029,,,,,,,,5,Slow,short,f,0,2.1873,0,1,1,2,1,,,,,
,0.66,,,,,,,,,f,blue,5d6ab68809f9270001dac666,2021-10-22_13h08.24.785,forced_choiceRT_color,2021.2.3,Win32,19.99760029,,,,,,,,5,Slow,short,f,1,2.3793,0,2,2,1,1,,,,,
,1.33,,,,,,,,,f,blue,5d6ab68809f9270001dac666,2021-10-22_13h08.24.785,forced_choiceRT_color,2021.2.3,Win32,19.99760029,,,,,,,,5,Ontime,short,f,1,2.0139,0,3,3,1,1,,,,,
,0.53,,,,,,,,,d,orange,5d6ab68809f9270001dac666,2021-10-22_13h08.24.785,forced_choiceRT_color,2021.2.3,Win32,19.99760029,,,,,,,,5,Ontime,short,d,1,2.0795,1,0,4,0,1,,,,,
,1.16,,,,,,,,,d,orange,5d6ab68809f9270001dac666,2021-10-22_13h08.24.785,forced_choiceRT_color,2021.2.3,Win32,19.99760029,,,,,,,,5,Slow,short,d,1,2.1184,1,1,5,0,1,,,,,
,1.73,,,,,,,,,d,orange,5d6ab68809f9270001dac666,2021-10-22_13h08.24.785,forced_choiceRT_color,2021.2.3,Win32,19.99760029,,,,,,,,5,Slow,short,d,1,2.264,1,2,6,0,1,,,,,
,1.2,,,,,,,,,j,red,5d6ab68809f9270001dac666,2021-10-22_13h08.24.785,forced_choiceRT_color,2021.2.3,Win32,19.99760029,,,,,,,,5,Ontime,short,j,1,1.9479,1,3,7,2,1,,,,,
,0.06,,,,,,,,,j,red,5d6ab68809f9270001dac666,2021-10-22_13h08.24.785,forced_choiceRT_color,2021.2.3,Win32,19.99760029,,,,,,,,5,Ontime,short,j,1,2.077,2,0,8,2,1,,,,,
,1.12,,,,,,,,,f,blue,5d6ab68809f9270001dac666,2021-10-22_13h08.24.785,forced_choiceRT_color,2021.2.3,Win32,19.99760029,,,,,,,,5,Slow,short,f,1,2.1514,2,1,9,1,1,,,,,
,1.36,,,,,,,,,k,purple,5d6ab68809f9270001dac666,2021-10-22_13h08.24.785,forced_choiceRT_color,2021.2.3,Win32,19.99760029,,,,,,,,5,Ontime,short,k,1,2.0524,2,2,10,3,1,,,,,
,1.96,,,,,,,,,k,purple,5d6ab68809f9270001dac666,2021-10-22_13h08.24.785,forced_choiceRT_color,2021.2.3,Win32,19.99760029,,,,,,,,5,Slow,short,k,1,2.4647,2,3,11,3,1,,,,,
,0.91,,,,,,,,,j,red,5d6ab68809f9270001dac666,2021-10-22_13h08.24.785,forced_choiceRT_color,2021.2.3,Win32,19.99760029,,,,,,,,5,Slow,short,j,1,2.4288,3,0,12,2,1,,,,,
,1,,,,,,,,,k,purple,5d6ab68809f9270001dac666,2021-10-22_13h08.24.785,forced_choiceRT_color,2021.2.3,Win32,19.99760029,,,,,,,,5,Ontime,short,k,1,2.0288,3,1,13,3,1,,,,,
,1.29,,,,,,,,,f,blue,5d6ab68809f9270001dac666,2021-10-22_13h08.24.785,forced_choiceRT_color,2021.2.3,Win32,19.99760029,,,,,,,,5,Slow,short,f,1,2.2154,3,2,14,1,1,,,,,
,1.67,,,,,,,,,j,red,5d6ab68809f9270001dac666,2021-10-22_13h08.24.785,forced_choiceRT_color,2021.2.3,Win32,19.99760029,,,,,,,,5,Slow,short,j,1,2.9965,3,3,15,2,1,,,,,
,0.17,,,,,,,,,d,orange,5d6ab68809f9270001dac666,2021-10-22_13h08.24.785,forced_choiceRT_color,2021.2.3,Win32,19.99760029,,,,,,,,5,Ontime,short,d,1,2.012,4,0,16,0,1,,,,,
,0.73,,,,,,,,,d,orange,5d6ab68809f9270001dac666,2021-10-22_13h08.24.785,forced_choiceRT_color,2021.2.3,Win32,19.99760029,,,,,,,,5,Ontime,short,d,1,2.0302,4,1,17,0,1,,,,,
,1.45,,,,,,,,,k,purple,5d6ab68809f9270001dac666,2021-10-22_13h08.24.785,forced_choiceRT_color,2021.2.3,Win32,19.99760029,,,,,,,,5,Ontime,short,j,0,2.0057,4,2,18,3,1,,,,,
,1.36,,,,,,,,,k,purple,5d6ab68809f9270001dac666,2021-10-22_13h08.24.785,forced_choiceRT_color,2021.2.3,Win32,19.99760029,,,,,,,,5,Fast,short,k,1,0.1444,4,3,19,3,1,,,,,
,0.38,,,,,,,,,f,blue,5d6ab68809f9270001dac666,2021-10-22_13h08.24.785,forced_choiceRT_color,2021.2.3,Win32,19.99760029,,,,,,,,5,Ontime,short,f,1,2.048,5,0,20,1,1,,,,,
,0.39,,,,,,,,,k,purple,5d6ab68809f9270001dac666,2021-10-22_13h08.24.785,forced_choiceRT_color,2021.2.3,Win32,19.99760029,,,,,,,,5,Ontime,short,k,1,2.0542,5,1,21,3,1,,,,,
,0.15,,,,,,,,,d,orange,5d6ab68809f9270001dac666,2021-10-22_13h08.24.785,forced_choiceRT_color,2021.2.3,Win32,19.99760029,,,,,,,,5,Ontime,short,d,1,2.0959,5,2,22,0,1,,,,,
,0.14,,,,,,,,,d,orange,5d6ab68809f9270001dac666,2021-10-22_13h08.24.785,forced_choiceRT_color,2021.2.3,Win32,19.99760029,,,,,,,,5,Ontime,short,d,1,1.9716,5,3,23,0,1,,,,,
,0.34,,,,,,,,,f,blue,5d6ab68809f9270001dac666,2021-10-22_13h08.24.785,forced_choiceRT_color,2021.2.3,Win32,19.99760029,,,,,,,,5,Ontime,short,f,1,2.0808,6,0,24,1,1,,,,,
,0.89,,,,,,,,,d,orange,5d6ab68809f9270001dac666,2021-10-22_13h08.24.785,forced_choiceRT_color,2021.2.3,Win32,19.99760029,,,,,,,,5,Ontime,short,d,1,2.0948,6,1,25,0,1,,,,,
,0.48,,,,,,,,,k,purple,5d6ab68809f9270001dac666,2021-10-22_13h08.24.785,forced_choiceRT_color,2021.2.3,Win32,19.99760029,,,,,,,,5,Ontime,short,k,1,2.0553,6,2,26,3,1,,,,,
,0.4,,,,,,,,,j,red,5d6ab68809f9270001dac666,2021-10-22_13h08.24.785,forced_choiceRT_color,2021.2.3,Win32,19.99760029,,,,,,,,5,Ontime,short,j,1,2.0947,6,3,27,2,1,,,,,
,0.49,,,,,,,,,j,red,5d6ab68809f9270001dac666,2021-10-22_13h08.24.785,forced_choiceRT_color,2021.2.3,Win32,19.99760029,,,,,,,,5,Ontime,short,j,1,1.9962,7,0,28,2,1,,,,,
,1.35,,,,,,,,,k,purple,5d6ab68809f9270001dac666,2021-10-22_13h08.24.785,forced_choiceRT_color,2021.2.3,Win32,19.99760029,,,,,,,,5,Ontime,short,k,1,2.0409,7,1,29,3,1,,,,,
,0.57,,,,,,,,,j,red,5d6ab68809f9270001dac666,2021-10-22_13h08.24.785,forced_choiceRT_color,2021.2.3,Win32,19.99760029,,,,,,,,5,Ontime,short,j,1,2.0534,7,2,30,2,1,,,,,
,0.79,,,,,,,,,f,blue,5d6ab68809f9270001dac666,2021-10-22_13h08.24.785,forced_choiceRT_color,2021.2.3,Win32,19.99760029,,,,,,,,5,Slow,short,f,1,2.1411,7,3,31,1,1,,,,,
,1.97,,,,,,,,,k,purple,5d6ab68809f9270001dac666,2021-10-22_13h08.24.785,forced_choiceRT_color,2021.2.3,Win32,19.99760029,,,,,,,,5,Slow,short,k,1,2.2655,8,0,32,3,1,,,,,
,1.22,,,,,,,,,d,orange,5d6ab68809f9270001dac666,2021-10-22_13h08.24.785,forced_choiceRT_color,2021.2.3,Win32,19.99760029,,,,,,,,5,Slow,short,d,1,2.1244,8,1,33,0,1,,,,,
,0.16,,,,,,,,,j,red,5d6ab68809f9270001dac666,2021-10-22_13h08.24.785,forced_choiceRT_color,2021.2.3,Win32,19.99760029,,,,,,,,5,Ontime,short,j,1,2.0529,8,2,34,2,1,,,,,
,1.38,,,,,,,,,k,purple,5d6ab68809f9270001dac666,2021-10-22_13h08.24.785,forced_choiceRT_color,2021.2.3,Win32,19.99760029,,,,,,,,5,Slow,short,k,1,2.1496,8,3,35,3,1,,,,,
,0.6,,,,,,,,,f,blue,5d6ab68809f9270001dac666,2021-10-22_13h08.24.785,forced_choiceRT_color,2021.2.3,Win32,19.99760029,,,,,,,,5,Ontime,short,f,1,2.0419,9,0,36,1,1,,,,,
,0.12,,,,,,,,,j,red,5d6ab68809f9270001dac666,2021-10-22_13h08.24.785,forced_choiceRT_color,2021.2.3,Win32,19.99760029,,,,,,,,5,Ontime,short,k,0,1.9899,9,1,37,2,1,,,,,
,0.56,,,,,,,,,d,orange,5d6ab68809f9270001dac666,2021-10-22_13h08.24.785,forced_choiceRT_color,2021.2.3,Win32,19.99760029,,,,,,,,5,Ontime,short,d,1,2.0419,9,2,38,0,1,,,,,
,0.52,,,,,,,,,f,blue,5d6ab68809f9270001dac666,2021-10-22_13h08.24.785,forced_choiceRT_color,2021.2.3,Win32,19.99760029,,,,,,,,5,Ontime,short,f,1,1.9883,9,3,39,1,1,,,,,
,,,,,,,,,,,,5d6ab68809f9270001dac666,2021-10-22_13h08.24.785,forced_choiceRT_color,2021.2.3,Win32,19.99760029,,,,,,,,,,,,,,,,,,,4,0,4,0,1
,1.69,,,,,,,,,d,orange,5d6ab68809f9270001dac666,2021-10-22_13h08.24.785,forced_choiceRT_color,2021.2.3,Win32,19.99760029,,,,,,,,6,Slow,short,d,1,2.2937,0,0,0,0,1,,,,,
,0.58,,,,,,,,,f,blue,5d6ab68809f9270001dac666,2021-10-22_13h08.24.785,forced_choiceRT_color,2021.2.3,Win32,19.99760029,,,,,,,,6,Ontime,short,f,1,2.0374,0,1,1,1,1,,,,,
,1.92,,,,,,,,,k,purple,5d6ab68809f9270001dac666,2021-10-22_13h08.24.785,forced_choiceRT_color,2021.2.3,Win32,19.99760029,,,,,,,,6,Slow,short,k,1,2.5567,0,2,2,3,1,,,,,
,1.65,,,,,,,,,f,blue,5d6ab68809f9270001dac666,2021-10-22_13h08.24.785,forced_choiceRT_color,2021.2.3,Win32,19.99760029,,,,,,,,6,Slow,short,j,0,2.4627,0,3,3,1,1,,,,,
,0.64,,,,,,,,,d,orange,5d6ab68809f9270001dac666,2021-10-22_13h08.24.785,forced_choiceRT_color,2021.2.3,Win32,19.99760029,,,,,,,,6,Slow,short,d,1,2.1184,1,0,4,0,1,,,,,
,0.54,,,,,,,,,f,blue,5d6ab68809f9270001dac666,2021-10-22_13h08.24.785,forced_choiceRT_color,2021.2.3,Win32,19.99760029,,,,,,,,6,Ontime,short,f,1,2.0795,1,1,5,1,1,,,,,
,0.38,,,,,,,,,j,red,5d6ab68809f9270001dac666,2021-10-22_13h08.24.785,forced_choiceRT_color,2021.2.3,Win32,19.99760029,,,,,,,,6,Ontime,short,j,1,2.0055,1,2,6,2,1,,,,,
,0.26,,,,,,,,,j,red,5d6ab68809f9270001dac666,2021-10-22_13h08.24.785,forced_choiceRT_color,2021.2.3,Win32,19.99760029,,,,,,,,6,Ontime,short,j,1,1.923,1,3,7,2,1,,,,,
,1.01,,,,,,,,,d,orange,5d6ab68809f9270001dac666,2021-10-22_13h08.24.785,forced_choiceRT_color,2021.2.3,Win32,19.99760029,,,,,,,,6,Ontime,short,d,1,2.0403,2,0,8,0,1,,,,,
,1.38,,,,,,,,,k,purple,5d6ab68809f9270001dac666,2021-10-22_13h08.24.785,forced_choiceRT_color,2021.2.3,Win32,19.99760029,,,,,,,,6,Slow,short,k,1,2.1064,2,1,9,3,1,,,,,
,0.06,,,,,,,,,j,red,5d6ab68809f9270001dac666,2021-10-22_13h08.24.785,forced_choiceRT_color,2021.2.3,Win32,19.99760029,,,,,,,,6,Ontime,short,j,1,1.9839,2,2,10,2,1,,,,,
,1.03,,,,,,,,,d,orange,5d6ab68809f9270001dac666,2021-10-22_13h08.24.785,forced_choiceRT_color,2021.2.3,Win32,19.99760029,,,,,,,,6,Ontime,short,d,1,2.0528,2,3,11,0,1,,,,,
,0.85,,,,,,,,,j,red,5d6ab68809f9270001dac666,2021-10-22_13h08.24.785,forced_choiceRT_color,2021.2.3,Win32,19.99760029,,,,,,,,6,Ontime,short,j,1,1.9863,3,0,12,2,1,,,,,
,0.23,,,,,,,,,k,purple,5d6ab68809f9270001dac666,2021-10-22_13h08.24.785,forced_choiceRT_color,2021.2.3,Win32,19.99760029,,,,,,,,6,Ontime,short,k,1,1.9241,3,1,13,3,1,,,,,
,1.04,,,,,,,,,f,blue,5d6ab68809f9270001dac666,2021-10-22_13h08.24.785,forced_choiceRT_color,2021.2.3,Win32,19.99760029,,,,,,,,6,Ontime,short,f,1,2.0302,3,2,14,1,1,,,,,
,0.28,,,,,,,,,f,blue,5d6ab68809f9270001dac666,2021-10-22_13h08.24.785,forced_choiceRT_color,2021.2.3,Win32,19.99760029,,,,,,,,6,Fast,short,f,1,1.797,3,3,15,1,1,,,,,
,0.27,,,,,,,,,j,red,5d6ab68809f9270001dac666,2021-10-22_13h08.24.785,forced_choiceRT_color,2021.2.3,Win32,19.99760029,,,,,,,,6,Ontime,short,j,1,1.9739,4,0,16,2,1,,,,,
,1.11,,,,,,,,,d,orange,5d6ab68809f9270001dac666,2021-10-22_13h08.24.785,forced_choiceRT_color,2021.2.3,Win32,19.99760029,,,,,,,,6,Fast,short,d,1,1.8907,4,1,17,0,1,,,,,
,0.93,,,,,,,,,k,purple,5d6ab68809f9270001dac666,2021-10-22_13h08.24.785,forced_choiceRT_color,2021.2.3,Win32,19.99760029,,,,,,,,6,Slow,short,k,1,2.1391,4,2,18,3,1,,,,,
,1.12,,,,,,,,,j,red,5d6ab68809f9270001dac666,2021-10-22_13h08.24.785,forced_choiceRT_color,2021.2.3,Win32,19.99760029,,,,,,,,6,Fast,short,j,1,1.8837,4,3,19,2,1,,,,,
,0.94,,,,,,,,,j,red,5d6ab68809f9270001dac666,2021-10-22_13h08.24.785,forced_choiceRT_color,2021.2.3,Win32,19.99760029,,,,,,,,6,Slow,short,j,1,2.1214,5,0,20,2,1,,,,,
,0.14,,,,,,,,,f,blue,5d6ab68809f9270001dac666,2021-10-22_13h08.24.785,forced_choiceRT_color,2021.2.3,Win32,19.99760029,,,,,,,,6,Slow,short,f,1,2.1483,5,1,21,1,1,,,,,
,1.04,,,,,,,,,d,orange,5d6ab68809f9270001dac666,2021-10-22_13h08.24.785,forced_choiceRT_color,2021.2.3,Win32,19.99760029,,,,,,,,6,Ontime,short,d,1,2.0782,5,2,22,0,1,,,,,
,0.43,,,,,,,,,f,blue,5d6ab68809f9270001dac666,2021-10-22_13h08.24.785,forced_choiceRT_color,2021.2.3,Win32,19.99760029,,,,,,,,6,Slow,short,f,1,2.1765,5,3,23,1,1,,,,,
,0.37,,,,,,,,,j,red,5d6ab68809f9270001dac666,2021-10-22_13h08.24.785,forced_choiceRT_color,2021.2.3,Win32,19.99760029,,,,,,,,6,Ontime,short,j,1,2.0997,6,0,24,2,1,,,,,
,1.86,,,,,,,,,f,blue,5d6ab68809f9270001dac666,2021-10-22_13h08.24.785,forced_choiceRT_color,2021.2.3,Win32,19.99760029,,,,,,,,6,Slow,short,f,1,2.6995,6,1,25,1,1,,,,,
,1.52,,,,,,,,,k,purple,5d6ab68809f9270001dac666,2021-10-22_13h08.24.785,forced_choiceRT_color,2021.2.3,Win32,19.99760029,,,,,,,,6,Slow,short,k,1,2.1526,6,2,26,3,1,,,,,
,0.49,,,,,,,,,j,red,5d6ab68809f9270001dac666,2021-10-22_13h08.24.785,forced_choiceRT_color,2021.2.3,Win32,19.99760029,,,,,,,,6,Slow,short,f,0,2.1853,6,3,27,2,1,,,,,
,0.01,,,,,,,,,d,orange,5d6ab68809f9270001dac666,2021-10-22_13h08.24.785,forced_choiceRT_color,2021.2.3,Win32,19.99760029,,,,,,,,6,Ontime,short,d,1,2.0082,7,0,28,0,1,,,,,
,1.81,,,,,,,,,k,purple,5d6ab68809f9270001dac666,2021-10-22_13h08.24.785,forced_choiceRT_color,2021.2.3,Win32,19.99760029,,,,,,,,6,Slow,short,k,1,2.6662,7,1,29,3,1,,,,,
,0.09,,,,,,,,,k,purple,5d6ab68809f9270001dac666,2021-10-22_13h08.24.785,forced_choiceRT_color,2021.2.3,Win32,19.99760029,,,,,,,,6,Ontime,short,k,1,2.0557,7,2,30,3,1,,,,,
,0.19,,,,,,,,,j,red,5d6ab68809f9270001dac666,2021-10-22_13h08.24.785,forced_choiceRT_color,2021.2.3,Win32,19.99760029,,,,,,,,6,Slow,short,j,1,2.1531,7,3,31,2,1,,,,,
,1.15,,,,,,,,,d,orange,5d6ab68809f9270001dac666,2021-10-22_13h08.24.785,forced_choiceRT_color,2021.2.3,Win32,19.99760029,,,,,,,,6,Slow,short,d,1,2.1942,8,0,32,0,1,,,,,
,0.11,,,,,,,,,k,purple,5d6ab68809f9270001dac666,2021-10-22_13h08.24.785,forced_choiceRT_color,2021.2.3,Win32,19.99760029,,,,,,,,6,Ontime,short,k,1,2.028,8,1,33,3,1,,,,,
,0.24,,,,,,,,,d,orange,5d6ab68809f9270001dac666,2021-10-22_13h08.24.785,forced_choiceRT_color,2021.2.3,Win32,19.99760029,,,,,,,,6,Ontime,short,d,1,2.0994,8,2,34,0,1,,,,,
,0.72,,,,,,,,,k,purple,5d6ab68809f9270001dac666,2021-10-22_13h08.24.785,forced_choiceRT_color,2021.2.3,Win32,19.99760029,,,,,,,,6,Slow,short,k,1,2.1608,8,3,35,3,1,,,,,
,1.26,,,,,,,,,f,blue,5d6ab68809f9270001dac666,2021-10-22_13h08.24.785,forced_choiceRT_color,2021.2.3,Win32,19.99760029,,,,,,,,6,Ontime,short,f,1,2.0228,9,0,36,1,1,,,,,
,1.42,,,,,,,,,k,purple,5d6ab68809f9270001dac666,2021-10-22_13h08.24.785,forced_choiceRT_color,2021.2.3,Win32,19.99760029,,,,,,,,6,Slow,short,j,0,2.1353,9,1,37,3,1,,,,,
,1.27,,,,,,,,,f,blue,5d6ab68809f9270001dac666,2021-10-22_13h08.24.785,forced_choiceRT_color,2021.2.3,Win32,19.99760029,,,,,,,,6,Slow,short,f,1,2.2155,9,2,38,1,1,,,,,
,1.41,,,,,,,,,d,orange,5d6ab68809f9270001dac666,2021-10-22_13h08.24.785,forced_choiceRT_color,2021.2.3,Win32,19.99760029,,,,,,,,6,Ontime,short,d,1,2.0608,9,3,39,0,1,,,,,
,,,,,,,,,,,,5d6ab68809f9270001dac666,2021-10-22_13h08.24.785,forced_choiceRT_color,2021.2.3,Win32,19.99760029,,,,,,,,,,,,,,,,,,,5,0,5,0,1
,1.67,,,,,,,,,k,purple,5d6ab68809f9270001dac666,2021-10-22_13h08.24.785,forced_choiceRT_color,2021.2.3,Win32,19.99760029,,,,,,,,7,Slow,short,j,0,2.3582,0,0,0,3,1,,,,,
,0.62,,,,,,,,,f,blue,5d6ab68809f9270001dac666,2021-10-22_13h08.24.785,forced_choiceRT_color,2021.2.3,Win32,19.99760029,,,,,,,,7,Ontime,short,f,1,2.0985,0,1,1,1,1,,,,,
,0.1,,,,,,,,,d,orange,5d6ab68809f9270001dac666,2021-10-22_13h08.24.785,forced_choiceRT_color,2021.2.3,Win32,19.99760029,,,,,,,,7,Ontime,short,d,1,2.0797,0,2,2,0,1,,,,,
,1.11,,,,,,,,,j,red,5d6ab68809f9270001dac666,2021-10-22_13h08.24.785,forced_choiceRT_color,2021.2.3,Win32,19.99760029,,,,,,,,7,Slow,short,j,1,2.1492,0,3,3,2,1,,,,,
,0.17,,,,,,,,,k,purple,5d6ab68809f9270001dac666,2021-10-22_13h08.24.785,forced_choiceRT_color,2021.2.3,Win32,19.99760029,,,,,,,,7,Slow,short,k,1,2.1546,1,0,4,3,1,,,,,
,1.85,,,,,,,,,k,purple,5d6ab68809f9270001dac666,2021-10-22_13h08.24.785,forced_choiceRT_color,2021.2.3,Win32,19.99760029,,,,,,,,7,Slow,short,k,1,2.3915,1,1,5,3,1,,,,,
,0.04,,,,,,,,,d,orange,5d6ab68809f9270001dac666,2021-10-22_13h08.24.785,forced_choiceRT_color,2021.2.3,Win32,19.99760029,,,,,,,,7,Slow,short,d,1,2.1026,1,2,6,0,1,,,,,
,1.56,,,,,,,,,d,orange,5d6ab68809f9270001dac666,2021-10-22_13h08.24.785,forced_choiceRT_color,2021.2.3,Win32,19.99760029,,,,,,,,7,Slow,short,d,1,2.2763,1,3,7,0,1,,,,,
,1.88,,,,,,,,,f,blue,5d6ab68809f9270001dac666,2021-10-22_13h08.24.785,forced_choiceRT_color,2021.2.3,Win32,19.99760029,,,,,,,,7,Slow,short,f,1,2.6101,2,0,8,1,1,,,,,
,0.81,,,,,,,,,f,blue,5d6ab68809f9270001dac666,2021-10-22_13h08.24.785,forced_choiceRT_color,2021.2.3,Win32,19.99760029,,,,,,,,7,Fast,short,f,1,1.4842,2,1,9,1,1,,,,,
,1.86,,,,,,,,,f,blue,5d6ab68809f9270001dac666,2021-10-22_13h08.24.785,forced_choiceRT_color,2021.2.3,Win32,19.99760029,,,,,,,,7,Slow,short,f,1,2.4359,2,2,10,1,1,,,,,
,0.71,,,,,,,,,d,orange,5d6ab68809f9270001dac666,2021-10-22_13h08.24.785,forced_choiceRT_color,2021.2.3,Win32,19.99760029,,,,,,,,7,Slow,short,d,1,2.1163,2,3,11,0,1,,,,,
,0.89,,,,,,,,,j,red,5d6ab68809f9270001dac666,2021-10-22_13h08.24.785,forced_choiceRT_color,2021.2.3,Win32,19.99760029,,,,,,,,7,Ontime,short,k,0,1.9949,3,0,12,2,1,,,,,
,1.68,,,,,,,,,d,orange,5d6ab68809f9270001dac666,2021-10-22_13h08.24.785,forced_choiceRT_color,2021.2.3,Win32,19.99760029,,,,,,,,7,Slow,short,d,1,2.4768,3,1,13,0,1,,,,,
,0.8,,,,,,,,,j,red,5d6ab68809f9270001dac666,2021-10-22_13h08.24.785,forced_choiceRT_color,2021.2.3,Win32,19.99760029,,,,,,,,7,Fast,short,j,1,1.8546,3,2,14,2,1,,,,,
,1.7,,,,,,,,,j,red,5d6ab68809f9270001dac666,2021-10-22_13h08.24.785,forced_choiceRT_color,2021.2.3,Win32,19.99760029,,,,,,,,7,Slow,short,j,1,2.133,3,3,15,2,1,,,,,
,0.68,,,,,,,,,j,red,5d6ab68809f9270001dac666,2021-10-22_13h08.24.785,forced_choiceRT_color,2021.2.3,Win32,19.99760029,,,,,,,,7,Slow,short,j,1,2.3174,4,0,16,2,1,,,,,
,0.95,,,,,,,,,k,purple,5d6ab68809f9270001dac666,2021-10-22_13h08.24.785,forced_choiceRT_color,2021.2.3,Win32,19.99760029,,,,,,,,7,Slow,short,k,1,2.1916,4,1,17,3,1,,,,,
,0.98,,,,,,,,,k,purple,5d6ab68809f9270001dac666,2021-10-22_13h08.24.785,forced_choiceRT_color,2021.2.3,Win32,19.99760029,,,,,,,,7,Slow,short,k,1,2.213,4,2,18,3,1,,,,,
,1.17,,,,,,,,,f,blue,5d6ab68809f9270001dac666,2021-10-22_13h08.24.785,forced_choiceRT_color,2021.2.3,Win32,19.99760029,,,,,,,,7,Slow,short,f,1,2.189,4,3,19,1,1,,,,,
,0.67,,,,,,,,,j,red,5d6ab68809f9270001dac666,2021-10-22_13h08.24.785,forced_choiceRT_color,2021.2.3,Win32,19.99760029,,,,,,,,7,Ontime,short,j,1,2.0865,5,0,20,2,1,,,,,
,0.43,,,,,,,,,j,red,5d6ab68809f9270001dac666,2021-10-22_13h08.24.785,forced_choiceRT_color,2021.2.3,Win32,19.99760029,,,,,,,,7,Ontime,short,j,1,2.0713,5,1,21,2,1,,,,,
,1.18,,,,,,,,,d,orange,5d6ab68809f9270001dac666,2021-10-22_13h08.24.785,forced_choiceRT_color,2021.2.3,Win32,19.99760029,,,,,,,,7,Slow,short,d,1,2.1794,5,2,22,0,1,,,,,
,0.78,,,,,,,,,d,orange,5d6ab68809f9270001dac666,2021-10-22_13h08.24.785,forced_choiceRT_color,2021.2.3,Win32,19.99760029,,,,,,,,7,Ontime,short,d,1,2.0045,5,3,23,0,1,,,,,
,1.72,,,,,,,,,k,purple,5d6ab68809f9270001dac666,2021-10-22_13h08.24.785,forced_choiceRT_color,2021.2.3,Win32,19.99760029,,,,,,,,7,Slow,short,j,0,2.307,6,0,24,3,1,,,,,
,0.1,,,,,,,,,k,purple,5d6ab68809f9270001dac666,2021-10-22_13h08.24.785,forced_choiceRT_color,2021.2.3,Win32,19.99760029,,,,,,,,7,Ontime,short,k,1,1.9715,6,1,25,3,1,,,,,
,0.56,,,,,,,,,j,red,5d6ab68809f9270001dac666,2021-10-22_13h08.24.785,forced_choiceRT_color,2021.2.3,Win32,19.99760029,,,,,,,,7,Slow,short,j,1,2.384,6,2,26,2,1,,,,,
,1.67,,,,,,,,,f,blue,5d6ab68809f9270001dac666,2021-10-22_13h08.24.785,forced_choiceRT_color,2021.2.3,Win32,19.99760029,,,,,,,,7,Slow,short,k,0,2.1974,6,3,27,1,1,,,,,
,0.41,,,,,,,,,d,orange,5d6ab68809f9270001dac666,2021-10-22_13h08.24.785,forced_choiceRT_color,2021.2.3,Win32,19.99760029,,,,,,,,7,Slow,short,d,1,2.3439,7,0,28,0,1,,,,,
,1.03,,,,,,,,,k,purple,5d6ab68809f9270001dac666,2021-10-22_13h08.24.785,forced_choiceRT_color,2021.2.3,Win32,19.99760029,,,,,,,,7,Ontime,short,k,1,2.0826,7,1,29,3,1,,,,,
,0.45,,,,,,,,,f,blue,5d6ab68809f9270001dac666,2021-10-22_13h08.24.785,forced_choiceRT_color,2021.2.3,Win32,19.99760029,,,,,,,,7,Ontime,short,f,1,2.0803,7,2,30,1,1,,,,,
,1.16,,,,,,,,,f,blue,5d6ab68809f9270001dac666,2021-10-22_13h08.24.785,forced_choiceRT_color,2021.2.3,Win32,19.99760029,,,,,,,,7,Slow,short,f,1,2.1505,7,3,31,1,1,,,,,
,0.06,,,,,,,,,f,blue,5d6ab68809f9270001dac666,2021-10-22_13h08.24.785,forced_choiceRT_color,2021.2.3,Win32,19.99760029,,,,,,,,7,Ontime,short,f,1,2.0556,8,0,32,1,1,,,,,
,0.54,,,,,,,,,j,red,5d6ab68809f9270001dac666,2021-10-22_13h08.24.785,forced_choiceRT_color,2021.2.3,Win32,19.99760029,,,,,,,,7,Ontime,short,j,1,2.069,8,1,33,2,1,,,,,
,1.36,,,,,,,,,j,red,5d6ab68809f9270001dac666,2021-10-22_13h08.24.785,forced_choiceRT_color,2021.2.3,Win32,19.99760029,,,,,,,,7,Ontime,short,j,1,2.0753,8,2,34,2,1,,,,,
,0.23,,,,,,,,,d,orange,5d6ab68809f9270001dac666,2021-10-22_13h08.24.785,forced_choiceRT_color,2021.2.3,Win32,19.99760029,,,,,,,,7,Ontime,short,d,1,2.056,8,3,35,0,1,,,,,
,1.69,,,,,,,,,k,purple,5d6ab68809f9270001dac666,2021-10-22_13h08.24.785,forced_choiceRT_color,2021.2.3,Win32,19.99760029,,,,,,,,7,Ontime,short,j,0,2.0654,9,0,36,3,1,,,,,
,0.47,,,,,,,,,k,purple,5d6ab68809f9270001dac666,2021-10-22_13h08.24.785,forced_choiceRT_color,2021.2.3,Win32,19.99760029,,,,,,,,7,Slow,short,k,1,2.2099,9,1,37,3,1,,,,,
,0.56,,,,,,,,,d,orange,5d6ab68809f9270001dac666,2021-10-22_13h08.24.785,forced_choiceRT_color,2021.2.3,Win32,19.99760029,,,,,,,,7,Ontime,short,d,1,1.9581,9,2,38,0,1,,,,,
,1.65,,,,,,,,,f,blue,5d6ab68809f9270001dac666,2021-10-22_13h08.24.785,forced_choiceRT_color,2021.2.3,Win32,19.99760029,,,,,,,,7,Slow,short,d,0,2.1891,9,3,39,1,1,,,,,
,,,,,,,,,,,,5d6ab68809f9270001dac666,2021-10-22_13h08.24.785,forced_choiceRT_color,2021.2.3,Win32,19.99760029,,,,,,,,,,,,,,,,,,,6,0,6,0,1
,0.58,,,,,,,,,d,orange,5d6ab68809f9270001dac666,2021-10-22_13h08.24.785,forced_choiceRT_color,2021.2.3,Win32,19.99760029,,,,,,,,8,Slow,short,d,1,2.1284,0,0,0,0,1,,,,,
,0.68,,,,,,,,,d,orange,5d6ab68809f9270001dac666,2021-10-22_13h08.24.785,forced_choiceRT_color,2021.2.3,Win32,19.99760029,,,,,,,,8,Slow,short,d,1,2.8224,0,1,1,0,1,,,,,
,1.89,,,,,,,,,f,blue,5d6ab68809f9270001dac666,2021-10-22_13h08.24.785,forced_choiceRT_color,2021.2.3,Win32,19.99760029,,,,,,,,8,Slow,short,f,1,2.1058,0,2,2,1,1,,,,,
,0.44,,,,,,,,,j,red,5d6ab68809f9270001dac666,2021-10-22_13h08.24.785,forced_choiceRT_color,2021.2.3,Win32,19.99760029,,,,,,,,8,Slow,short,j,1,2.164,0,3,3,2,1,,,,,
,1.59,,,,,,,,,j,red,5d6ab68809f9270001dac666,2021-10-22_13h08.24.785,forced_choiceRT_color,2021.2.3,Win32,19.99760029,,,,,,,,8,Slow,short,j,1,2.1773,1,0,4,2,1,,,,,
,0.25,,,,,,,,,k,purple,5d6ab68809f9270001dac666,2021-10-22_13h08.24.785,forced_choiceRT_color,2021.2.3,Win32,19.99760029,,,,,,,,8,Slow,short,k,1,2.1458,1,1,5,3,1,,,,,
,0.81,,,,,,,,,j,red,5d6ab68809f9270001dac666,2021-10-22_13h08.24.785,forced_choiceRT_color,2021.2.3,Win32,19.99760029,,,,,,,,8,Ontime,short,j,1,2.0063,1,2,6,2,1,,,,,
,0.2,,,,,,,,,k,purple,5d6ab68809f9270001dac666,2021-10-22_13h08.24.785,forced_choiceRT_color,2021.2.3,Win32,19.99760029,,,,,,,,8,Ontime,short,k,1,2.0077,1,3,7,3,1,,,,,
,0.37,,,,,,,,,k,purple,5d6ab68809f9270001dac666,2021-10-22_13h08.24.785,forced_choiceRT_color,2021.2.3,Win32,19.99760029,,,,,,,,8,Slow,short,k,1,2.1101,2,0,8,3,1,,,,,
,0.78,,,,,,,,,j,red,5d6ab68809f9270001dac666,2021-10-22_13h08.24.785,forced_choiceRT_color,2021.2.3,Win32,19.99760029,,,,,,,,8,Ontime,short,j,1,2.073,2,1,9,2,1,,,,,
,1.32,,,,,,,,,f,blue,5d6ab68809f9270001dac666,2021-10-22_13h08.24.785,forced_choiceRT_color,2021.2.3,Win32,19.99760029,,,,,,,,8,Slow,short,f,1,2.1783,2,2,10,1,1,,,,,
,1.9,,,,,,,,,f,blue,5d6ab68809f9270001dac666,2021-10-22_13h08.24.785,forced_choiceRT_color,2021.2.3,Win32,19.99760029,,,,,,,,8,Slow,short,f,1,2.1854,2,3,11,1,1,,,,,
,1.19,,,,,,,,,j,red,5d6ab68809f9270001dac666,2021-10-22_13h08.24.785,forced_choiceRT_color,2021.2.3,Win32,19.99760029,,,,,,,,8,Slow,short,j,1,2.2271,3,0,12,2,1,,,,,
,1.94,,,,,,,,,f,blue,5d6ab68809f9270001dac666,2021-10-22_13h08.24.785,forced_choiceRT_color,2021.2.3,Win32,19.99760029,,,,,,,,8,Slow,short,j,0,2.1796,3,1,13,1,1,,,,,
,0.41,,,,,,,,,k,purple,5d6ab68809f9270001dac666,2021-10-22_13h08.24.785,forced_choiceRT_color,2021.2.3,Win32,19.99760029,,,,,,,,8,Ontime,short,k,1,2.0961,3,2,14,3,1,,,,,
,0.73,,,,,,,,,d,orange,5d6ab68809f9270001dac666,2021-10-22_13h08.24.785,forced_choiceRT_color,2021.2.3,Win32,19.99760029,,,,,,,,8,Slow,short,d,1,2.1464,3,3,15,0,1,,,,,
,1.79,,,,,,,,,k,purple,5d6ab68809f9270001dac666,2021-10-22_13h08.24.785,forced_choiceRT_color,2021.2.3,Win32,19.99760029,,,,,,,,8,Slow,short,f,0,2.1122,4,0,16,3,1,,,,,
,0.52,,,,,,,,,f,blue,5d6ab68809f9270001dac666,2021-10-22_13h08.24.785,forced_choiceRT_color,2021.2.3,Win32,19.99760029,,,,,,,,8,Slow,short,j,0,2.1178,4,1,17,1,1,,,,,
,0.76,,,,,,,,,d,orange,5d6ab68809f9270001dac666,2021-10-22_13h08.24.785,forced_choiceRT_color,2021.2.3,Win32,19.99760029,,,,,,,,8,Slow,short,d,1,2.2626,4,2,18,0,1,,,,,
,0.38,,,,,,,,,j,red,5d6ab68809f9270001dac666,2021-10-22_13h08.24.785,forced_choiceRT_color,2021.2.3,Win32,19.99760029,,,,,,,,8,Ontime,short,j,1,2.0424,4,3,19,2,1,,,,,
,0.55,,,,,,,,,f,blue,5d6ab68809f9270001dac666,2021-10-22_13h08.24.785,forced_choiceRT_color,2021.2.3,Win32,19.99760029,,,,,,,,8,Ontime,short,f,1,2.099,5,0,20,1,1,,,,,
,0.37,,,,,,,,,f,blue,5d6ab68809f9270001dac666,2021-10-22_13h08.24.785,forced_choiceRT_color,2021.2.3,Win32,19.99760029,,,,,,,,8,Ontime,short,f,1,2.0101,5,1,21,1,1,,,,,
,0.47,,,,,,,,,j,red,5d6ab68809f9270001dac666,2021-10-22_13h08.24.785,forced_choiceRT_color,2021.2.3,Win32,19.99760029,,,,,,,,8,Ontime,short,j,1,2.0104,5,2,22,2,1,,,,,
,0.83,,,,,,,,,j,red,5d6ab68809f9270001dac666,2021-10-22_13h08.24.785,forced_choiceRT_color,2021.2.3,Win32,19.99760029,,,,,,,,8,Ontime,short,j,1,2.0258,5,3,23,2,1,,,,,
,1.75,,,,,,,,,k,purple,5d6ab68809f9270001dac666,2021-10-22_13h08.24.785,forced_choiceRT_color,2021.2.3,Win32,19.99760029,,,,,,,,8,Ontime,short,j,0,1.9496,6,0,24,3,1,,,,,
,1.33,,,,,,,,,d,orange,5d6ab68809f9270001dac666,2021-10-22_13h08.24.785,forced_choiceRT_color,2021.2.3,Win32,19.99760029,,,,,,,,8,Ontime,short,d,1,1.9489,6,1,25,0,1,,,,,
,1.08,,,,,,,,,k,purple,5d6ab68809f9270001dac666,2021-10-22_13h08.24.785,forced_choiceRT_color,2021.2.3,Win32,19.99760029,,,,,,,,8,Slow,short,d,0,2.1048,6,2,26,3,1,,,,,
,1.42,,,,,,,,,j,red,5d6ab68809f9270001dac666,2021-10-22_13h08.24.785,forced_choiceRT_color,2021.2.3,Win32,19.99760029,,,,,,,,8,Fast,short,k,0,1.8483,6,3,27,2,1,,,,,
,0.23,,,,,,,,,f,blue,5d6ab68809f9270001dac666,2021-10-22_13h08.24.785,forced_choiceRT_color,2021.2.3,Win32,19.99760029,,,,,,,,8,Ontime,short,f,1,2.0927,7,0,28,1,1,,,,,
,1.77,,,,,,,,,d,orange,5d6ab68809f9270001dac666,2021-10-22_13h08.24.785,forced_choiceRT_color,2021.2.3,Win32,19.99760029,,,,,,,,8,Slow,short,f,0,2.1296,7,1,29,0,1,,,,,
,0.32,,,,,,,,,k,purple,5d6ab68809f9270001dac666,2021-10-22_13h08.24.785,forced_choiceRT_color,2021.2.3,Win32,19.99760029,,,,,,,,8,Ontime,short,k,1,2.0174,7,2,30,3,1,,,,,
,0.48,,,,,,,,,d,orange,5d6ab68809f9270001dac666,2021-10-22_13h08.24.785,forced_choiceRT_color,2021.2.3,Win32,19.99760029,,,,,,,,8,Slow,short,d,1,2.1243,7,3,31,0,1,,,,,
,1.35,,,,,,,,,d,orange,5d6ab68809f9270001dac666,2021-10-22_13h08.24.785,forced_choiceRT_color,2021.2.3,Win32,19.99760029,,,,,,,,8,Slow,short,d,1,2.1218,8,0,32,0,1,,,,,
,1.11,,,,,,,,,j,red,5d6ab68809f9270001dac666,2021-10-22_13h08.24.785,forced_choiceRT_color,2021.2.3,Win32,19.99760029,,,,,,,,8,Slow,short,f,0,2.1819,8,1,33,2,1,,,,,
,1.69,,,,,,,,,k,purple,5d6ab68809f9270001dac666,2021-10-22_13h08.24.785,forced_choiceRT_color,2021.2.3,Win32,19.99760029,,,,,,,,8,Slow,short,d,0,2.1202,8,2,34,3,1,,,,,
,1.27,,,,,,,,,d,orange,5d6ab68809f9270001dac666,2021-10-22_13h08.24.785,forced_choiceRT_color,2021.2.3,Win32,19.99760029,,,,,,,,8,Slow,short,k,0,2.3519,8,3,35,0,1,,,,,
,1.62,,,,,,,,,f,blue,5d6ab68809f9270001dac666,2021-10-22_13h08.24.785,forced_choiceRT_color,2021.2.3,Win32,19.99760029,,,,,,,,8,Slow,short,j,0,2.2213,9,0,36,1,1,,,,,
,0.4,,,,,,,,,d,orange,5d6ab68809f9270001dac666,2021-10-22_13h08.24.785,forced_choiceRT_color,2021.2.3,Win32,19.99760029,,,,,,,,8,Ontime,short,d,1,2.032,9,1,37,0,1,,,,,
,1.86,,,,,,,,,f,blue,5d6ab68809f9270001dac666,2021-10-22_13h08.24.785,forced_choiceRT_color,2021.2.3,Win32,19.99760029,,,,,,,,8,Slow,short,f,1,2.4874,9,2,38,1,1,,,,,
,0.32,,,,,,,,,k,purple,5d6ab68809f9270001dac666,2021-10-22_13h08.24.785,forced_choiceRT_color,2021.2.3,Win32,19.99760029,,,,,,,,8,Ontime,short,k,1,2.054,9,3,39,3,1,,,,,
,,,,,,,,,,,,5d6ab68809f9270001dac666,2021-10-22_13h08.24.785,forced_choiceRT_color,2021.2.3,Win32,19.99760029,,,,,,,,,,,,,,,,,,,7,0,7,0,1
,1.25,,,,,,,,,f,blue,5d6ab68809f9270001dac666,2021-10-22_13h08.24.785,forced_choiceRT_color,2021.2.3,Win32,19.99760029,,,,,,,,9,Slow,short,f,1,2.1624,0,0,0,1,1,,,,,
,1.48,,,,,,,,,k,purple,5d6ab68809f9270001dac666,2021-10-22_13h08.24.785,forced_choiceRT_color,2021.2.3,Win32,19.99760029,,,,,,,,9,Slow,short,j,0,2.1888,0,1,1,3,1,,,,,
,0.15,,,,,,,,,j,red,5d6ab68809f9270001dac666,2021-10-22_13h08.24.785,forced_choiceRT_color,2021.2.3,Win32,19.99760029,,,,,,,,9,Slow,short,k,0,2.1401,0,2,2,2,1,,,,,
,0.34,,,,,,,,,j,red,5d6ab68809f9270001dac666,2021-10-22_13h08.24.785,forced_choiceRT_color,2021.2.3,Win32,19.99760029,,,,,,,,9,Slow,short,j,1,2.3716,0,3,3,2,1,,,,,
,0.3,,,,,,,,,d,orange,5d6ab68809f9270001dac666,2021-10-22_13h08.24.785,forced_choiceRT_color,2021.2.3,Win32,19.99760029,,,,,,,,9,Ontime,short,d,1,2.0622,1,0,4,0,1,,,,,
,1.77,,,,,,,,,f,blue,5d6ab68809f9270001dac666,2021-10-22_13h08.24.785,forced_choiceRT_color,2021.2.3,Win32,19.99760029,,,,,,,,9,Ontime,short,j,0,2.0936,1,1,5,1,1,,,,,
,1.93,,,,,,,,,d,orange,5d6ab68809f9270001dac666,2021-10-22_13h08.24.785,forced_choiceRT_color,2021.2.3,Win32,19.99760029,,,,,,,,9,Slow,short,f,0,2.1358,1,2,6,0,1,,,,,
,0.98,,,,,,,,,k,purple,5d6ab68809f9270001dac666,2021-10-22_13h08.24.785,forced_choiceRT_color,2021.2.3,Win32,19.99760029,,,,,,,,9,Fast,short,j,0,1.8977,1,3,7,3,1,,,,,
,0.03,,,,,,,,,d,orange,5d6ab68809f9270001dac666,2021-10-22_13h08.24.785,forced_choiceRT_color,2021.2.3,Win32,19.99760029,,,,,,,,9,Ontime,short,d,1,2.0589,2,0,8,0,1,,,,,
,0.33,,,,,,,,,k,purple,5d6ab68809f9270001dac666,2021-10-22_13h08.24.785,forced_choiceRT_color,2021.2.3,Win32,19.99760029,,,,,,,,9,Ontime,short,k,1,2.096,2,1,9,3,1,,,,,
,0.67,,,,,,,,,d,orange,5d6ab68809f9270001dac666,2021-10-22_13h08.24.785,forced_choiceRT_color,2021.2.3,Win32,19.99760029,,,,,,,,9,Ontime,short,d,1,2.0637,2,2,10,0,1,,,,,
,0.99,,,,,,,,,k,purple,5d6ab68809f9270001dac666,2021-10-22_13h08.24.785,forced_choiceRT_color,2021.2.3,Win32,19.99760029,,,,,,,,9,Slow,short,k,1,2.1622,2,3,11,3,1,,,,,
,1.84,,,,,,,,,k,purple,5d6ab68809f9270001dac666,2021-10-22_13h08.24.785,forced_choiceRT_color,2021.2.3,Win32,19.99760029,,,,,,,,9,Ontime,short,d,0,2.0952,3,0,12,3,1,,,,,
,1.63,,,,,,,,,k,purple,5d6ab68809f9270001dac666,2021-10-22_13h08.24.785,forced_choiceRT_color,2021.2.3,Win32,19.99760029,,,,,,,,9,Slow,short,k,1,2.284,3,1,13,3,1,,,,,
,1.68,,,,,,,,,f,blue,5d6ab68809f9270001dac666,2021-10-22_13h08.24.785,forced_choiceRT_color,2021.2.3,Win32,19.99760029,,,,,,,,9,Slow,short,f,1,2.4762,3,2,14,1,1,,,,,
,1.02,,,,,,,,,j,red,5d6ab68809f9270001dac666,2021-10-22_13h08.24.785,forced_choiceRT_color,2021.2.3,Win32,19.99760029,,,,,,,,9,Slow,short,j,1,2.3472,3,3,15,2,1,,,,,
,1.39,,,,,,,,,f,blue,5d6ab68809f9270001dac666,2021-10-22_13h08.24.785,forced_choiceRT_color,2021.2.3,Win32,19.99760029,,,,,,,,9,Ontime,short,d,0,2.0856,4,0,16,1,1,,,,,
,0.91,,,,,,,,,j,red,5d6ab68809f9270001dac666,2021-10-22_13h08.24.785,forced_choiceRT_color,2021.2.3,Win32,19.99760029,,,,,,,,9,Fast,short,f,0,0.0634,4,1,17,2,1,,,,,
,0.01,,,,,,,,,d,orange,5d6ab68809f9270001dac666,2021-10-22_13h08.24.785,forced_choiceRT_color,2021.2.3,Win32,19.99760029,,,,,,,,9,Ontime,short,d,1,2.0744,4,2,18,0,1,,,,,
,1.72,,,,,,,,,j,red,5d6ab68809f9270001dac666,2021-10-22_13h08.24.785,forced_choiceRT_color,2021.2.3,Win32,19.99760029,,,,,,,,9,Slow,short,k,0,2.3344,4,3,19,2,1,,,,,
,0.45,,,,,,,,,j,red,5d6ab68809f9270001dac666,2021-10-22_13h08.24.785,forced_choiceRT_color,2021.2.3,Win32,19.99760029,,,,,,,,9,Ontime,short,j,1,2.0799,5,0,20,2,1,,,,,
,1.05,,,,,,,,,f,blue,5d6ab68809f9270001dac666,2021-10-22_13h08.24.785,forced_choiceRT_color,2021.2.3,Win32,19.99760029,,,,,,,,9,Slow,short,f,1,2.2487,5,1,21,1,1,,,,,
,1.7,,,,,,,,,d,orange,5d6ab68809f9270001dac666,2021-10-22_13h08.24.785,forced_choiceRT_color,2021.2.3,Win32,19.99760029,,,,,,,,9,Slow,short,d,1,2.3272,5,2,22,0,1,,,,,
,0.04,,,,,,,,,k,purple,5d6ab68809f9270001dac666,2021-10-22_13h08.24.785,forced_choiceRT_color,2021.2.3,Win32,19.99760029,,,,,,,,9,Ontime,short,k,1,2.0226,5,3,23,3,1,,,,,
,0.94,,,,,,,,,j,red,5d6ab68809f9270001dac666,2021-10-22_13h08.24.785,forced_choiceRT_color,2021.2.3,Win32,19.99760029,,,,,,,,9,Slow,short,j,1,2.249,6,0,24,2,1,,,,,
,1.42,,,,,,,,,k,purple,5d6ab68809f9270001dac666,2021-10-22_13h08.24.785,forced_choiceRT_color,2021.2.3,Win32,19.99760029,,,,,,,,9,Slow,short,k,1,2.1749,6,1,25,3,1,,,,,
,1.03,,,,,,,,,f,blue,5d6ab68809f9270001dac666,2021-10-22_13h08.24.785,forced_choiceRT_color,2021.2.3,Win32,19.99760029,,,,,,,,9,Slow,short,f,1,2.1314,6,2,26,1,1,,,,,
,1.15,,,,,,,,,f,blue,5d6ab68809f9270001dac666,2021-10-22_13h08.24.785,forced_choiceRT_color,2021.2.3,Win32,19.99760029,,,,,,,,9,Ontime,short,f,1,2.0743,6,3,27,1,1,,,,,
,0.4,,,,,,,,,d,orange,5d6ab68809f9270001dac666,2021-10-22_13h08.24.785,forced_choiceRT_color,2021.2.3,Win32,19.99760029,,,,,,,,9,Ontime,short,d,1,2.0947,7,0,28,0,1,,,,,
,0.65,,,,,,,,,j,red,5d6ab68809f9270001dac666,2021-10-22_13h08.24.785,forced_choiceRT_color,2021.2.3,Win32,19.99760029,,,,,,,,9,Ontime,short,k,0,2.0226,7,1,29,2,1,,,,,
,0.15,,,,,,,,,f,blue,5d6ab68809f9270001dac666,2021-10-22_13h08.24.785,forced_choiceRT_color,2021.2.3,Win32,19.99760029,,,,,,,,9,Ontime,short,f,1,2.0684,7,2,30,1,1,,,,,
,1.97,,,,,,,,,d,orange,5d6ab68809f9270001dac666,2021-10-22_13h08.24.785,forced_choiceRT_color,2021.2.3,Win32,19.99760029,,,,,,,,9,Slow,short,f,0,2.2236,7,3,31,0,1,,,,,
,1.14,,,,,,,,,d,orange,5d6ab68809f9270001dac666,2021-10-22_13h08.24.785,forced_choiceRT_color,2021.2.3,Win32,19.99760029,,,,,,,,9,Slow,short,d,1,2.1413,8,0,32,0,1,,,,,
,1.1,,,,,,,,,d,orange,5d6ab68809f9270001dac666,2021-10-22_13h08.24.785,forced_choiceRT_color,2021.2.3,Win32,19.99760029,,,,,,,,9,Ontime,short,d,1,2.0672,8,1,33,0,1,,,,,
,0.12,,,,,,,,,k,purple,5d6ab68809f9270001dac666,2021-10-22_13h08.24.785,forced_choiceRT_color,2021.2.3,Win32,19.99760029,,,,,,,,9,Slow,short,k,1,2.1186,8,2,34,3,1,,,,,
,1,,,,,,,,,k,purple,5d6ab68809f9270001dac666,2021-10-22_13h08.24.785,forced_choiceRT_color,2021.2.3,Win32,19.99760029,,,,,,,,9,Ontime,short,k,1,2.0478,8,3,35,3,1,,,,,
,0.63,,,,,,,,,j,red,5d6ab68809f9270001dac666,2021-10-22_13h08.24.785,forced_choiceRT_color,2021.2.3,Win32,19.99760029,,,,,,,,9,Ontime,short,j,1,2.0666,9,0,36,2,1,,,,,
,1.66,,,,,,,,,f,blue,5d6ab68809f9270001dac666,2021-10-22_13h08.24.785,forced_choiceRT_color,2021.2.3,Win32,19.99760029,,,,,,,,9,Ontime,short,k,0,2.0327,9,1,37,1,1,,,,,
,1.67,,,,,,,,,f,blue,5d6ab68809f9270001dac666,2021-10-22_13h08.24.785,forced_choiceRT_color,2021.2.3,Win32,19.99760029,,,,,,,,9,Ontime,short,d,0,2.0455,9,2,38,1,1,,,,,
,1.31,,,,,,,,,j,red,5d6ab68809f9270001dac666,2021-10-22_13h08.24.785,forced_choiceRT_color,2021.2.3,Win32,19.99760029,,,,,,,,9,Slow,short,k,0,2.1905,9,3,39,2,1,,,,,
,,,,,,,,,,,,5d6ab68809f9270001dac666,2021-10-22_13h08.24.785,forced_choiceRT_color,2021.2.3,Win32,19.99760029,,,,,,,,,,,,,,,,,,,8,0,8,0,1
,1.4,,,,,,,,,d,orange,5d6ab68809f9270001dac666,2021-10-22_13h08.24.785,forced_choiceRT_color,2021.2.3,Win32,19.99760029,,,,,,,,10,Slow,short,d,1,2.1321,0,0,0,0,1,,,,,
,0.16,,,,,,,,,f,blue,5d6ab68809f9270001dac666,2021-10-22_13h08.24.785,forced_choiceRT_color,2021.2.3,Win32,19.99760029,,,,,,,,10,Slow,short,f,1,2.1042,0,1,1,1,1,,,,,
,1.08,,,,,,,,,f,blue,5d6ab68809f9270001dac666,2021-10-22_13h08.24.785,forced_choiceRT_color,2021.2.3,Win32,19.99760029,,,,,,,,10,Ontime,short,f,1,2.0516,0,2,2,1,1,,,,,
,0.04,,,,,,,,,f,blue,5d6ab68809f9270001dac666,2021-10-22_13h08.24.785,forced_choiceRT_color,2021.2.3,Win32,19.99760029,,,,,,,,10,Ontime,short,f,1,1.9731,0,3,3,1,1,,,,,
,1.95,,,,,,,,,d,orange,5d6ab68809f9270001dac666,2021-10-22_13h08.24.785,forced_choiceRT_color,2021.2.3,Win32,19.99760029,,,,,,,,10,Ontime,short,f,0,2.0597,1,0,4,0,1,,,,,
,0.61,,,,,,,,,k,purple,5d6ab68809f9270001dac666,2021-10-22_13h08.24.785,forced_choiceRT_color,2021.2.3,Win32,19.99760029,,,,,,,,10,Slow,short,f,0,2.1308,1,1,5,3,1,,,,,
,0.51,,,,,,,,,k,purple,5d6ab68809f9270001dac666,2021-10-22_13h08.24.785,forced_choiceRT_color,2021.2.3,Win32,19.99760029,,,,,,,,10,Slow,short,f,0,2.1245,1,2,6,3,1,,,,,
,0.15,,,,,,,,,d,orange,5d6ab68809f9270001dac666,2021-10-22_13h08.24.785,forced_choiceRT_color,2021.2.3,Win32,19.99760029,,,,,,,,10,Slow,short,d,1,2.2185,1,3,7,0,1,,,,,
,0.25,,,,,,,,,j,red,5d6ab68809f9270001dac666,2021-10-22_13h08.24.785,forced_choiceRT_color,2021.2.3,Win32,19.99760029,,,,,,,,10,Ontime,short,j,1,2.0932,2,0,8,2,1,,,,,
,0.25,,,,,,,,,j,red,5d6ab68809f9270001dac666,2021-10-22_13h08.24.785,forced_choiceRT_color,2021.2.3,Win32,19.99760029,,,,,,,,10,Ontime,short,j,1,2.051,2,1,9,2,1,,,,,
,1.18,,,,,,,,,f,blue,5d6ab68809f9270001dac666,2021-10-22_13h08.24.785,forced_choiceRT_color,2021.2.3,Win32,19.99760029,,,,,,,,10,Slow,short,f,1,2.1477,2,2,10,1,1,,,,,
,1.62,,,,,,,,,f,blue,5d6ab68809f9270001dac666,2021-10-22_13h08.24.785,forced_choiceRT_color,2021.2.3,Win32,19.99760029,,,,,,,,10,Slow,short,f,1,2.2814,2,3,11,1,1,,,,,
,0.98,,,,,,,,,j,red,5d6ab68809f9270001dac666,2021-10-22_13h08.24.785,forced_choiceRT_color,2021.2.3,Win32,19.99760029,,,,,,,,10,Ontime,short,j,1,2.0999,3,0,12,2,1,,,,,
,1.92,,,,,,,,,j,red,5d6ab68809f9270001dac666,2021-10-22_13h08.24.785,forced_choiceRT_color,2021.2.3,Win32,19.99760029,,,,,,,,10,Ontime,short,k,0,2.0859,3,1,13,2,1,,,,,
,1.19,,,,,,,,,d,orange,5d6ab68809f9270001dac666,2021-10-22_13h08.24.785,forced_choiceRT_color,2021.2.3,Win32,19.99760029,,,,,,,,10,Slow,short,d,1,2.1539,3,2,14,0,1,,,,,
,1.36,,,,,,,,,j,red,5d6ab68809f9270001dac666,2021-10-22_13h08.24.785,forced_choiceRT_color,2021.2.3,Win32,19.99760029,,,,,,,,10,Slow,short,f,0,2.105,3,3,15,2,1,,,,,
,1.6,,,,,,,,,d,orange,5d6ab68809f9270001dac666,2021-10-22_13h08.24.785,forced_choiceRT_color,2021.2.3,Win32,19.99760029,,,,,,,,10,Ontime,short,d,1,2.0546,4,0,16,0,1,,,,,
,0.55,,,,,,,,,f,blue,5d6ab68809f9270001dac666,2021-10-22_13h08.24.785,forced_choiceRT_color,2021.2.3,Win32,19.99760029,,,,,,,,10,Slow,short,f,1,2.2004,4,1,17,1,1,,,,,
,0.14,,,,,,,,,k,purple,5d6ab68809f9270001dac666,2021-10-22_13h08.24.785,forced_choiceRT_color,2021.2.3,Win32,19.99760029,,,,,,,,10,Slow,short,k,1,2.1399,4,2,18,3,1,,,,,
,0.92,,,,,,,,,j,red,5d6ab68809f9270001dac666,2021-10-22_13h08.24.785,forced_choiceRT_color,2021.2.3,Win32,19.99760029,,,,,,,,10,Ontime,short,j,1,2.0859,4,3,19,2,1,,,,,
,1.97,,,,,,,,,d,orange,5d6ab68809f9270001dac666,2021-10-22_13h08.24.785,forced_choiceRT_color,2021.2.3,Win32,19.99760029,,,,,,,,10,Slow,short,k,0,2.2716,5,0,20,0,1,,,,,
,0.83,,,,,,,,,f,blue,5d6ab68809f9270001dac666,2021-10-22_13h08.24.785,forced_choiceRT_color,2021.2.3,Win32,19.99760029,,,,,,,,10,Slow,short,j,0,2.3288,5,1,21,1,1,,,,,
,0.65,,,,,,,,,f,blue,5d6ab68809f9270001dac666,2021-10-22_13h08.24.785,forced_choiceRT_color,2021.2.3,Win32,19.99760029,,,,,,,,10,Ontime,short,f,1,2.0883,5,2,22,1,1,,,,,
,0.41,,,,,,,,,k,purple,5d6ab68809f9270001dac666,2021-10-22_13h08.24.785,forced_choiceRT_color,2021.2.3,Win32,19.99760029,,,,,,,,10,Ontime,short,k,1,2.0833,5,3,23,3,1,,,,,
,1.62,,,,,,,,,j,red,5d6ab68809f9270001dac666,2021-10-22_13h08.24.785,forced_choiceRT_color,2021.2.3,Win32,19.99760029,,,,,,,,10,Ontime,short,j,1,2.0163,6,0,24,2,1,,,,,
,0.9,,,,,,,,,k,purple,5d6ab68809f9270001dac666,2021-10-22_13h08.24.785,forced_choiceRT_color,2021.2.3,Win32,19.99760029,,,,,,,,10,Slow,short,k,1,2.1,6,1,25,3,1,,,,,
,1.22,,,,,,,,,k,purple,5d6ab68809f9270001dac666,2021-10-22_13h08.24.785,forced_choiceRT_color,2021.2.3,Win32,19.99760029,,,,,,,,10,Ontime,short,k,1,2.0932,6,2,26,3,1,,,,,
,0.34,,,,,,,,,d,orange,5d6ab68809f9270001dac666,2021-10-22_13h08.24.785,forced_choiceRT_color,2021.2.3,Win32,19.99760029,,,,,,,,10,Slow,short,d,1,2.1623,6,3,27,0,1,,,,,
,0.74,,,,,,,,,k,purple,5d6ab68809f9270001dac666,2021-10-22_13h08.24.785,forced_choiceRT_color,2021.2.3,Win32,19.99760029,,,,,,,,10,Ontime,short,k,1,2.0192,7,0,28,3,1,,,,,
,1.09,,,,,,,,,j,red,5d6ab68809f9270001dac666,2021-10-22_13h08.24.785,forced_choiceRT_color,2021.2.3,Win32,19.99760029,,,,,,,,10,Slow,short,j,1,2.1754,7,1,29,2,1,,,,,
,0.17,,,,,,,,,k,purple,5d6ab68809f9270001dac666,2021-10-22_13h08.24.785,forced_choiceRT_color,2021.2.3,Win32,19.99760029,,,,,,,,10,Ontime,short,k,1,2.0474,7,2,30,3,1,,,,,
,0.9,,,,,,,,,d,orange,5d6ab68809f9270001dac666,2021-10-22_13h08.24.785,forced_choiceRT_color,2021.2.3,Win32,19.99760029,,,,,,,,10,Ontime,short,d,1,2.0966,7,3,31,0,1,,,,,
,0.66,,,,,,,,,j,red,5d6ab68809f9270001dac666,2021-10-22_13h08.24.785,forced_choiceRT_color,2021.2.3,Win32,19.99760029,,,,,,,,10,Slow,short,f,0,2.1229,8,0,32,2,1,,,,,
,1.92,,,,,,,,,d,orange,5d6ab68809f9270001dac666,2021-10-22_13h08.24.785,forced_choiceRT_color,2021.2.3,Win32,19.99760029,,,,,,,,10,Ontime,short,k,0,2.0638,8,1,33,0,1,,,,,
,1.54,,,,,,,,,k,purple,5d6ab68809f9270001dac666,2021-10-22_13h08.24.785,forced_choiceRT_color,2021.2.3,Win32,19.99760029,,,,,,,,10,Slow,short,d,0,2.2008,8,2,34,3,1,,,,,
,1.62,,,,,,,,,f,blue,5d6ab68809f9270001dac666,2021-10-22_13h08.24.785,forced_choiceRT_color,2021.2.3,Win32,19.99760029,,,,,,,,10,Slow,short,k,0,2.109,8,3,35,1,1,,,,,
,1.02,,,,,,,,,j,red,5d6ab68809f9270001dac666,2021-10-22_13h08.24.785,forced_choiceRT_color,2021.2.3,Win32,19.99760029,,,,,,,,10,Slow,short,j,1,2.1593,9,0,36,2,1,,,,,
,1.65,,,,,,,,,f,blue,5d6ab68809f9270001dac666,2021-10-22_13h08.24.785,forced_choiceRT_color,2021.2.3,Win32,19.99760029,,,,,,,,10,Ontime,short,k,0,1.9397,9,1,37,1,1,,,,,
,0.51,,,,,,,,,k,purple,5d6ab68809f9270001dac666,2021-10-22_13h08.24.785,forced_choiceRT_color,2021.2.3,Win32,19.99760029,,,,,,,,10,Ontime,short,k,1,2.0483,9,2,38,3,1,,,,,
,1.19,,,,,,,,,d,orange,5d6ab68809f9270001dac666,2021-10-22_13h08.24.785,forced_choiceRT_color,2021.2.3,Win32,19.99760029,,,,,,,,10,Slow,short,d,1,2.1039,9,3,39,0,1,,,,,
,,,,,,,,,,,,5d6ab68809f9270001dac666,2021-10-22_13h08.24.785,forced_choiceRT_color,2021.2.3,Win32,19.99760029,,,,,,,,,,,,,,,,,,,9,0,9,0,1
