IP_Addresss,target_onset,trial_resp_sp.keys,trial_resp_sp.corr,trial_resp_sp.rt,trials_train_loop.thisRepN,trials_train_loop.thisTrialN,trials_train_loop.thisN,trials_train_loop.thisIndex,trials_train_loop.ran,correct_key,color,participant,date,expName,psychopyVersion,OS,frameRate,trial_resp_timing.keys,trial_resp_timing.rt,trials_train_timing.thisRepN,trials_train_timing.thisTrialN,trials_train_timing.thisN,trials_train_timing.thisIndex,trials_train_timing.ran,block_id,ontime,feedback_cond,forcedRT_resp.keys,forcedRT_resp.corr,forcedRT_resp.rt,trials.thisRepN,trials.thisTrialN,trials.thisN,trials.thisIndex,trials.ran,blocks.thisRepN,blocks.thisTrialN,blocks.thisN,blocks.thisIndex,blocks.ran
65.95.168.203,0,f,1,1.9733,0,0,0,1,1,f,blue,5d74fcd6515c8b0001ed0c30,2021-09-27_12h50.31.507,forced_choiceRT_color,2021.2.3,Win32,59.68367651,,,,,,,,,,,,,,,,,,,,,,,
,0,k,1,1.0413,0,1,1,3,1,k,purple,5d74fcd6515c8b0001ed0c30,2021-09-27_12h50.31.507,forced_choiceRT_color,2021.2.3,Win32,59.68367651,,,,,,,,,,,,,,,,,,,,,,,
,0,f,1,0.7271,0,2,2,1,1,f,blue,5d74fcd6515c8b0001ed0c30,2021-09-27_12h50.31.507,forced_choiceRT_color,2021.2.3,Win32,59.68367651,,,,,,,,,,,,,,,,,,,,,,,
,0,d,1,0.8987,0,3,3,0,1,d,orange,5d74fcd6515c8b0001ed0c30,2021-09-27_12h50.31.507,forced_choiceRT_color,2021.2.3,Win32,59.68367651,,,,,,,,,,,,,,,,,,,,,,,
,0,j,1,0.948,1,0,4,2,1,j,red,5d74fcd6515c8b0001ed0c30,2021-09-27_12h50.31.507,forced_choiceRT_color,2021.2.3,Win32,59.68367651,,,,,,,,,,,,,,,,,,,,,,,
,0,j,1,0.6941,1,1,5,2,1,j,red,5d74fcd6515c8b0001ed0c30,2021-09-27_12h50.31.507,forced_choiceRT_color,2021.2.3,Win32,59.68367651,,,,,,,,,,,,,,,,,,,,,,,
,0,j,1,0.6848,1,2,6,2,1,j,red,5d74fcd6515c8b0001ed0c30,2021-09-27_12h50.31.507,forced_choiceRT_color,2021.2.3,Win32,59.68367651,,,,,,,,,,,,,,,,,,,,,,,
,0,d,1,1.0985,1,3,7,0,1,d,orange,5d74fcd6515c8b0001ed0c30,2021-09-27_12h50.31.507,forced_choiceRT_color,2021.2.3,Win32,59.68367651,,,,,,,,,,,,,,,,,,,,,,,
,0,j,1,0.9805,2,0,8,2,1,j,red,5d74fcd6515c8b0001ed0c30,2021-09-27_12h50.31.507,forced_choiceRT_color,2021.2.3,Win32,59.68367651,,,,,,,,,,,,,,,,,,,,,,,
,0,f,1,0.9019,2,1,9,1,1,f,blue,5d74fcd6515c8b0001ed0c30,2021-09-27_12h50.31.507,forced_choiceRT_color,2021.2.3,Win32,59.68367651,,,,,,,,,,,,,,,,,,,,,,,
,0,k,1,0.8959,2,2,10,3,1,k,purple,5d74fcd6515c8b0001ed0c30,2021-09-27_12h50.31.507,forced_choiceRT_color,2021.2.3,Win32,59.68367651,,,,,,,,,,,,,,,,,,,,,,,
,0,d,1,1.0344,2,3,11,0,1,d,orange,5d74fcd6515c8b0001ed0c30,2021-09-27_12h50.31.507,forced_choiceRT_color,2021.2.3,Win32,59.68367651,,,,,,,,,,,,,,,,,,,,,,,
,0,j,1,0.7145,3,0,12,2,1,j,red,5d74fcd6515c8b0001ed0c30,2021-09-27_12h50.31.507,forced_choiceRT_color,2021.2.3,Win32,59.68367651,,,,,,,,,,,,,,,,,,,,,,,
,0,f,1,0.9827,3,1,13,1,1,f,blue,5d74fcd6515c8b0001ed0c30,2021-09-27_12h50.31.507,forced_choiceRT_color,2021.2.3,Win32,59.68367651,,,,,,,,,,,,,,,,,,,,,,,
,0,k,1,0.6434,3,2,14,3,1,k,purple,5d74fcd6515c8b0001ed0c30,2021-09-27_12h50.31.507,forced_choiceRT_color,2021.2.3,Win32,59.68367651,,,,,,,,,,,,,,,,,,,,,,,
,0,k,1,0.55,3,3,15,3,1,k,purple,5d74fcd6515c8b0001ed0c30,2021-09-27_12h50.31.507,forced_choiceRT_color,2021.2.3,Win32,59.68367651,,,,,,,,,,,,,,,,,,,,,,,
,0,k,1,0.6484,4,0,16,3,1,k,purple,5d74fcd6515c8b0001ed0c30,2021-09-27_12h50.31.507,forced_choiceRT_color,2021.2.3,Win32,59.68367651,,,,,,,,,,,,,,,,,,,,,,,
,0,k,1,0.6315,4,1,17,3,1,k,purple,5d74fcd6515c8b0001ed0c30,2021-09-27_12h50.31.507,forced_choiceRT_color,2021.2.3,Win32,59.68367651,,,,,,,,,,,,,,,,,,,,,,,
,0,k,1,0.7523,4,2,18,3,1,k,purple,5d74fcd6515c8b0001ed0c30,2021-09-27_12h50.31.507,forced_choiceRT_color,2021.2.3,Win32,59.68367651,,,,,,,,,,,,,,,,,,,,,,,
,0,d,1,1.0087,4,3,19,0,1,d,orange,5d74fcd6515c8b0001ed0c30,2021-09-27_12h50.31.507,forced_choiceRT_color,2021.2.3,Win32,59.68367651,,,,,,,,,,,,,,,,,,,,,,,
,0,d,1,1.0957,5,0,20,0,1,d,orange,5d74fcd6515c8b0001ed0c30,2021-09-27_12h50.31.507,forced_choiceRT_color,2021.2.3,Win32,59.68367651,,,,,,,,,,,,,,,,,,,,,,,
,0,d,1,0.6489,5,1,21,0,1,d,orange,5d74fcd6515c8b0001ed0c30,2021-09-27_12h50.31.507,forced_choiceRT_color,2021.2.3,Win32,59.68367651,,,,,,,,,,,,,,,,,,,,,,,
,0,f,1,1.2665,5,2,22,1,1,f,blue,5d74fcd6515c8b0001ed0c30,2021-09-27_12h50.31.507,forced_choiceRT_color,2021.2.3,Win32,59.68367651,,,,,,,,,,,,,,,,,,,,,,,
,0,k,1,0.7865,5,3,23,3,1,k,purple,5d74fcd6515c8b0001ed0c30,2021-09-27_12h50.31.507,forced_choiceRT_color,2021.2.3,Win32,59.68367651,,,,,,,,,,,,,,,,,,,,,,,
,0,k,1,0.6203,6,0,24,3,1,k,purple,5d74fcd6515c8b0001ed0c30,2021-09-27_12h50.31.507,forced_choiceRT_color,2021.2.3,Win32,59.68367651,,,,,,,,,,,,,,,,,,,,,,,
,0,k,1,0.4555,6,1,25,3,1,k,purple,5d74fcd6515c8b0001ed0c30,2021-09-27_12h50.31.507,forced_choiceRT_color,2021.2.3,Win32,59.68367651,,,,,,,,,,,,,,,,,,,,,,,
,0,d,1,0.8148,6,2,26,0,1,d,orange,5d74fcd6515c8b0001ed0c30,2021-09-27_12h50.31.507,forced_choiceRT_color,2021.2.3,Win32,59.68367651,,,,,,,,,,,,,,,,,,,,,,,
,0,d,1,0.6846,6,3,27,0,1,d,orange,5d74fcd6515c8b0001ed0c30,2021-09-27_12h50.31.507,forced_choiceRT_color,2021.2.3,Win32,59.68367651,,,,,,,,,,,,,,,,,,,,,,,
,0,f,1,0.7255,7,0,28,1,1,f,blue,5d74fcd6515c8b0001ed0c30,2021-09-27_12h50.31.507,forced_choiceRT_color,2021.2.3,Win32,59.68367651,,,,,,,,,,,,,,,,,,,,,,,
,0,j,1,0.5682,7,1,29,2,1,j,red,5d74fcd6515c8b0001ed0c30,2021-09-27_12h50.31.507,forced_choiceRT_color,2021.2.3,Win32,59.68367651,,,,,,,,,,,,,,,,,,,,,,,
,0,k,1,0.5256,7,2,30,3,1,k,purple,5d74fcd6515c8b0001ed0c30,2021-09-27_12h50.31.507,forced_choiceRT_color,2021.2.3,Win32,59.68367651,,,,,,,,,,,,,,,,,,,,,,,
,0,d,1,0.8664,7,3,31,0,1,d,orange,5d74fcd6515c8b0001ed0c30,2021-09-27_12h50.31.507,forced_choiceRT_color,2021.2.3,Win32,59.68367651,,,,,,,,,,,,,,,,,,,,,,,
,0,f,1,0.6923,8,0,32,1,1,f,blue,5d74fcd6515c8b0001ed0c30,2021-09-27_12h50.31.507,forced_choiceRT_color,2021.2.3,Win32,59.68367651,,,,,,,,,,,,,,,,,,,,,,,
,0,f,1,0.6812,8,1,33,1,1,f,blue,5d74fcd6515c8b0001ed0c30,2021-09-27_12h50.31.507,forced_choiceRT_color,2021.2.3,Win32,59.68367651,,,,,,,,,,,,,,,,,,,,,,,
,0,f,1,0.5694,8,2,34,1,1,f,blue,5d74fcd6515c8b0001ed0c30,2021-09-27_12h50.31.507,forced_choiceRT_color,2021.2.3,Win32,59.68367651,,,,,,,,,,,,,,,,,,,,,,,
,0,d,1,0.6468,8,3,35,0,1,d,orange,5d74fcd6515c8b0001ed0c30,2021-09-27_12h50.31.507,forced_choiceRT_color,2021.2.3,Win32,59.68367651,,,,,,,,,,,,,,,,,,,,,,,
,0,j,1,0.5927,9,0,36,2,1,j,red,5d74fcd6515c8b0001ed0c30,2021-09-27_12h50.31.507,forced_choiceRT_color,2021.2.3,Win32,59.68367651,,,,,,,,,,,,,,,,,,,,,,,
,0,j,1,0.646,9,1,37,2,1,j,red,5d74fcd6515c8b0001ed0c30,2021-09-27_12h50.31.507,forced_choiceRT_color,2021.2.3,Win32,59.68367651,,,,,,,,,,,,,,,,,,,,,,,
,0,d,1,1.1071,9,2,38,0,1,d,orange,5d74fcd6515c8b0001ed0c30,2021-09-27_12h50.31.507,forced_choiceRT_color,2021.2.3,Win32,59.68367651,,,,,,,,,,,,,,,,,,,,,,,
,0,j,1,0.6634,9,3,39,2,1,j,red,5d74fcd6515c8b0001ed0c30,2021-09-27_12h50.31.507,forced_choiceRT_color,2021.2.3,Win32,59.68367651,,,,,,,,,,,,,,,,,,,,,,,
,0,j,1,0.6668,10,0,40,2,1,j,red,5d74fcd6515c8b0001ed0c30,2021-09-27_12h50.31.507,forced_choiceRT_color,2021.2.3,Win32,59.68367651,,,,,,,,,,,,,,,,,,,,,,,
,0,d,1,0.6473,10,1,41,0,1,d,orange,5d74fcd6515c8b0001ed0c30,2021-09-27_12h50.31.507,forced_choiceRT_color,2021.2.3,Win32,59.68367651,,,,,,,,,,,,,,,,,,,,,,,
,0,f,1,1.0837,10,2,42,1,1,f,blue,5d74fcd6515c8b0001ed0c30,2021-09-27_12h50.31.507,forced_choiceRT_color,2021.2.3,Win32,59.68367651,,,,,,,,,,,,,,,,,,,,,,,
,0,j,1,1.0459,10,3,43,2,1,j,red,5d74fcd6515c8b0001ed0c30,2021-09-27_12h50.31.507,forced_choiceRT_color,2021.2.3,Win32,59.68367651,,,,,,,,,,,,,,,,,,,,,,,
,0,f,1,0.897,11,0,44,1,1,f,blue,5d74fcd6515c8b0001ed0c30,2021-09-27_12h50.31.507,forced_choiceRT_color,2021.2.3,Win32,59.68367651,,,,,,,,,,,,,,,,,,,,,,,
,0,f,1,0.5336,11,1,45,1,1,f,blue,5d74fcd6515c8b0001ed0c30,2021-09-27_12h50.31.507,forced_choiceRT_color,2021.2.3,Win32,59.68367651,,,,,,,,,,,,,,,,,,,,,,,
,0,j,1,0.7449,11,2,46,2,1,j,red,5d74fcd6515c8b0001ed0c30,2021-09-27_12h50.31.507,forced_choiceRT_color,2021.2.3,Win32,59.68367651,,,,,,,,,,,,,,,,,,,,,,,
,0,f,1,0.9221,11,3,47,1,1,f,blue,5d74fcd6515c8b0001ed0c30,2021-09-27_12h50.31.507,forced_choiceRT_color,2021.2.3,Win32,59.68367651,,,,,,,,,,,,,,,,,,,,,,,
,0,f,1,0.4985,12,0,48,1,1,f,blue,5d74fcd6515c8b0001ed0c30,2021-09-27_12h50.31.507,forced_choiceRT_color,2021.2.3,Win32,59.68367651,,,,,,,,,,,,,,,,,,,,,,,
,0,d,1,0.5687,12,1,49,0,1,d,orange,5d74fcd6515c8b0001ed0c30,2021-09-27_12h50.31.507,forced_choiceRT_color,2021.2.3,Win32,59.68367651,,,,,,,,,,,,,,,,,,,,,,,
,0,d,1,0.583,12,2,50,0,1,d,orange,5d74fcd6515c8b0001ed0c30,2021-09-27_12h50.31.507,forced_choiceRT_color,2021.2.3,Win32,59.68367651,,,,,,,,,,,,,,,,,,,,,,,
,0,j,1,0.7503,12,3,51,2,1,j,red,5d74fcd6515c8b0001ed0c30,2021-09-27_12h50.31.507,forced_choiceRT_color,2021.2.3,Win32,59.68367651,,,,,,,,,,,,,,,,,,,,,,,
,0,j,1,0.5652,13,0,52,2,1,j,red,5d74fcd6515c8b0001ed0c30,2021-09-27_12h50.31.507,forced_choiceRT_color,2021.2.3,Win32,59.68367651,,,,,,,,,,,,,,,,,,,,,,,
,0,k,1,1.2235,13,1,53,3,1,k,purple,5d74fcd6515c8b0001ed0c30,2021-09-27_12h50.31.507,forced_choiceRT_color,2021.2.3,Win32,59.68367651,,,,,,,,,,,,,,,,,,,,,,,
,0,j,1,0.7319,13,2,54,2,1,j,red,5d74fcd6515c8b0001ed0c30,2021-09-27_12h50.31.507,forced_choiceRT_color,2021.2.3,Win32,59.68367651,,,,,,,,,,,,,,,,,,,,,,,
,0,k,1,0.4807,13,3,55,3,1,k,purple,5d74fcd6515c8b0001ed0c30,2021-09-27_12h50.31.507,forced_choiceRT_color,2021.2.3,Win32,59.68367651,,,,,,,,,,,,,,,,,,,,,,,
,0,f,1,0.6813,14,0,56,1,1,f,blue,5d74fcd6515c8b0001ed0c30,2021-09-27_12h50.31.507,forced_choiceRT_color,2021.2.3,Win32,59.68367651,,,,,,,,,,,,,,,,,,,,,,,
,0,d,1,0.472,14,1,57,0,1,d,orange,5d74fcd6515c8b0001ed0c30,2021-09-27_12h50.31.507,forced_choiceRT_color,2021.2.3,Win32,59.68367651,,,,,,,,,,,,,,,,,,,,,,,
,0,k,1,0.8015,14,2,58,3,1,k,purple,5d74fcd6515c8b0001ed0c30,2021-09-27_12h50.31.507,forced_choiceRT_color,2021.2.3,Win32,59.68367651,,,,,,,,,,,,,,,,,,,,,,,
,0,k,1,0.5088,14,3,59,3,1,k,purple,5d74fcd6515c8b0001ed0c30,2021-09-27_12h50.31.507,forced_choiceRT_color,2021.2.3,Win32,59.68367651,,,,,,,,,,,,,,,,,,,,,,,
,,,,,,,,,,,,5d74fcd6515c8b0001ed0c30,2021-09-27_12h50.31.507,forced_choiceRT_color,2021.2.3,Win32,59.68367651,j,1.829,0,0,0,0,1,,,,,,,,,,,,,,,,
,,,,,,,,,,,,5d74fcd6515c8b0001ed0c30,2021-09-27_12h50.31.507,forced_choiceRT_color,2021.2.3,Win32,59.68367651,j,4.9351,1,0,1,0,1,,,,,,,,,,,,,,,,
,,,,,,,,,,,,5d74fcd6515c8b0001ed0c30,2021-09-27_12h50.31.507,forced_choiceRT_color,2021.2.3,Win32,59.68367651,j,1.8053,2,0,2,0,1,,,,,,,,,,,,,,,,
,,,,,,,,,,,,5d74fcd6515c8b0001ed0c30,2021-09-27_12h50.31.507,forced_choiceRT_color,2021.2.3,Win32,59.68367651,j,2.1046,3,0,3,0,1,,,,,,,,,,,,,,,,
,,,,,,,,,,,,5d74fcd6515c8b0001ed0c30,2021-09-27_12h50.31.507,forced_choiceRT_color,2021.2.3,Win32,59.68367651,f,2.0275,4,0,4,0,1,,,,,,,,,,,,,,,,
,,,,,,,,,,,,5d74fcd6515c8b0001ed0c30,2021-09-27_12h50.31.507,forced_choiceRT_color,2021.2.3,Win32,59.68367651,f,2.1187,5,0,5,0,1,,,,,,,,,,,,,,,,
,,,,,,,,,,,,5d74fcd6515c8b0001ed0c30,2021-09-27_12h50.31.507,forced_choiceRT_color,2021.2.3,Win32,59.68367651,d,2.1459,6,0,6,0,1,,,,,,,,,,,,,,,,
,,,,,,,,,,,,5d74fcd6515c8b0001ed0c30,2021-09-27_12h50.31.507,forced_choiceRT_color,2021.2.3,Win32,59.68367651,k,1.8519,7,0,7,0,1,,,,,,,,,,,,,,,,
,,,,,,,,,,,,5d74fcd6515c8b0001ed0c30,2021-09-27_12h50.31.507,forced_choiceRT_color,2021.2.3,Win32,59.68367651,j,2.1142,8,0,8,0,1,,,,,,,,,,,,,,,,
,,,,,,,,,,,,5d74fcd6515c8b0001ed0c30,2021-09-27_12h50.31.507,forced_choiceRT_color,2021.2.3,Win32,59.68367651,k,1.9681,9,0,9,0,1,,,,,,,,,,,,,,,,
,,,,,,,,,,,,5d74fcd6515c8b0001ed0c30,2021-09-27_12h50.31.507,forced_choiceRT_color,2021.2.3,Win32,59.68367651,k,1.9048,10,0,10,0,1,,,,,,,,,,,,,,,,
,,,,,,,,,,,,5d74fcd6515c8b0001ed0c30,2021-09-27_12h50.31.507,forced_choiceRT_color,2021.2.3,Win32,59.68367651,j,1.6891,11,0,11,0,1,,,,,,,,,,,,,,,,
,,,,,,,,,,,,5d74fcd6515c8b0001ed0c30,2021-09-27_12h50.31.507,forced_choiceRT_color,2021.2.3,Win32,59.68367651,k,1.8731,12,0,12,0,1,,,,,,,,,,,,,,,,
,,,,,,,,,,,,5d74fcd6515c8b0001ed0c30,2021-09-27_12h50.31.507,forced_choiceRT_color,2021.2.3,Win32,59.68367651,j,2.2582,13,0,13,0,1,,,,,,,,,,,,,,,,
,,,,,,,,,,,,5d74fcd6515c8b0001ed0c30,2021-09-27_12h50.31.507,forced_choiceRT_color,2021.2.3,Win32,59.68367651,j,1.6721,14,0,14,0,1,,,,,,,,,,,,,,,,
,,,,,,,,,,,,5d74fcd6515c8b0001ed0c30,2021-09-27_12h50.31.507,forced_choiceRT_color,2021.2.3,Win32,59.68367651,f,2.0176,15,0,15,0,1,,,,,,,,,,,,,,,,
,,,,,,,,,,,,5d74fcd6515c8b0001ed0c30,2021-09-27_12h50.31.507,forced_choiceRT_color,2021.2.3,Win32,59.68367651,f,2.1469,16,0,16,0,1,,,,,,,,,,,,,,,,
,,,,,,,,,,,,5d74fcd6515c8b0001ed0c30,2021-09-27_12h50.31.507,forced_choiceRT_color,2021.2.3,Win32,59.68367651,f,1.7187,17,0,17,0,1,,,,,,,,,,,,,,,,
,,,,,,,,,,,,5d74fcd6515c8b0001ed0c30,2021-09-27_12h50.31.507,forced_choiceRT_color,2021.2.3,Win32,59.68367651,f,1.8286,18,0,18,0,1,,,,,,,,,,,,,,,,
,,,,,,,,,,,,5d74fcd6515c8b0001ed0c30,2021-09-27_12h50.31.507,forced_choiceRT_color,2021.2.3,Win32,59.68367651,f,2.1854,19,0,19,0,1,,,,,,,,,,,,,,,,
,1.11,,,,,,,,,f,blue,5d74fcd6515c8b0001ed0c30,2021-09-27_12h50.31.507,forced_choiceRT_color,2021.2.3,Win32,59.68367651,,,,,,,,1,Fast,short,j,0,1.4184,0,0,0,1,1,,,,,
,0.78,,,,,,,,,k,purple,5d74fcd6515c8b0001ed0c30,2021-09-27_12h50.31.507,forced_choiceRT_color,2021.2.3,Win32,59.68367651,,,,,,,,1,Fast,short,f,0,1.3123,0,1,1,3,1,,,,,
,0.32,,,,,,,,,d,orange,5d74fcd6515c8b0001ed0c30,2021-09-27_12h50.31.507,forced_choiceRT_color,2021.2.3,Win32,59.68367651,,,,,,,,1,Fast,short,d,1,0.9945,0,2,2,0,1,,,,,
,0.58,,,,,,,,,f,blue,5d74fcd6515c8b0001ed0c30,2021-09-27_12h50.31.507,forced_choiceRT_color,2021.2.3,Win32,59.68367651,,,,,,,,1,Fast,short,j,0,1.1259,0,3,3,1,1,,,,,
,0.38,,,,,,,,,k,purple,5d74fcd6515c8b0001ed0c30,2021-09-27_12h50.31.507,forced_choiceRT_color,2021.2.3,Win32,59.68367651,,,,,,,,1,Fast,short,k,1,0.8351,1,0,4,3,1,,,,,
,0.88,,,,,,,,,k,purple,5d74fcd6515c8b0001ed0c30,2021-09-27_12h50.31.507,forced_choiceRT_color,2021.2.3,Win32,59.68367651,,,,,,,,1,Fast,short,k,1,1.7414,1,1,5,3,1,,,,,
,1.72,,,,,,,,,d,orange,5d74fcd6515c8b0001ed0c30,2021-09-27_12h50.31.507,forced_choiceRT_color,2021.2.3,Win32,59.68367651,,,,,,,,1,Slow,short,f,0,2.2395,1,2,6,0,1,,,,,
,1.87,,,,,,,,,d,orange,5d74fcd6515c8b0001ed0c30,2021-09-27_12h50.31.507,forced_choiceRT_color,2021.2.3,Win32,59.68367651,,,,,,,,1,Slow,short,d,1,2.2101,1,3,7,0,1,,,,,
,1.55,,,,,,,,,d,orange,5d74fcd6515c8b0001ed0c30,2021-09-27_12h50.31.507,forced_choiceRT_color,2021.2.3,Win32,59.68367651,,,,,,,,1,Ontime,short,d,1,1.9111,2,0,8,0,1,,,,,
,0.8,,,,,,,,,d,orange,5d74fcd6515c8b0001ed0c30,2021-09-27_12h50.31.507,forced_choiceRT_color,2021.2.3,Win32,59.68367651,,,,,,,,1,Fast,short,f,0,1.2386,2,1,9,0,1,,,,,
,1.17,,,,,,,,,j,red,5d74fcd6515c8b0001ed0c30,2021-09-27_12h50.31.507,forced_choiceRT_color,2021.2.3,Win32,59.68367651,,,,,,,,1,Fast,short,j,1,1.7705,2,2,10,2,1,,,,,
,0.48,,,,,,,,,f,blue,5d74fcd6515c8b0001ed0c30,2021-09-27_12h50.31.507,forced_choiceRT_color,2021.2.3,Win32,59.68367651,,,,,,,,1,Fast,short,d,0,1.7649,2,3,11,1,1,,,,,
,1.47,,,,,,,,,f,blue,5d74fcd6515c8b0001ed0c30,2021-09-27_12h50.31.507,forced_choiceRT_color,2021.2.3,Win32,59.68367651,,,,,,,,1,Fast,short,f,1,1.8826,3,0,12,1,1,,,,,
,1.83,,,,,,,,,j,red,5d74fcd6515c8b0001ed0c30,2021-09-27_12h50.31.507,forced_choiceRT_color,2021.2.3,Win32,59.68367651,,,,,,,,1,Slow,short,k,0,2.3309,3,1,13,2,1,,,,,
,1.07,,,,,,,,,k,purple,5d74fcd6515c8b0001ed0c30,2021-09-27_12h50.31.507,forced_choiceRT_color,2021.2.3,Win32,59.68367651,,,,,,,,1,Slow,short,k,1,2.2246,3,2,14,3,1,,,,,
,1.71,,,,,,,,,j,red,5d74fcd6515c8b0001ed0c30,2021-09-27_12h50.31.507,forced_choiceRT_color,2021.2.3,Win32,59.68367651,,,,,,,,1,Slow,short,j,1,2.2929,3,3,15,2,1,,,,,
,0.11,,,,,,,,,f,blue,5d74fcd6515c8b0001ed0c30,2021-09-27_12h50.31.507,forced_choiceRT_color,2021.2.3,Win32,59.68367651,,,,,,,,1,Fast,short,d,0,1.2554,4,0,16,1,1,,,,,
,0.83,,,,,,,,,f,blue,5d74fcd6515c8b0001ed0c30,2021-09-27_12h50.31.507,forced_choiceRT_color,2021.2.3,Win32,59.68367651,,,,,,,,1,Fast,short,d,0,1.8086,4,1,17,1,1,,,,,
,0.11,,,,,,,,,f,blue,5d74fcd6515c8b0001ed0c30,2021-09-27_12h50.31.507,forced_choiceRT_color,2021.2.3,Win32,59.68367651,,,,,,,,1,Fast,short,f,1,1.7684,4,2,18,1,1,,,,,
,1.93,,,,,,,,,j,red,5d74fcd6515c8b0001ed0c30,2021-09-27_12h50.31.507,forced_choiceRT_color,2021.2.3,Win32,59.68367651,,,,,,,,1,Ontime,short,j,1,1.9541,4,3,19,2,1,,,,,
,0.05,,,,,,,,,k,purple,5d74fcd6515c8b0001ed0c30,2021-09-27_12h50.31.507,forced_choiceRT_color,2021.2.3,Win32,59.68367651,,,,,,,,1,Fast,short,j,0,1.0469,5,0,20,3,1,,,,,
,1.12,,,,,,,,,k,purple,5d74fcd6515c8b0001ed0c30,2021-09-27_12h50.31.507,forced_choiceRT_color,2021.2.3,Win32,59.68367651,,,,,,,,1,Ontime,short,k,1,1.9753,5,1,21,3,1,,,,,
,1.57,,,,,,,,,f,blue,5d74fcd6515c8b0001ed0c30,2021-09-27_12h50.31.507,forced_choiceRT_color,2021.2.3,Win32,59.68367651,,,,,,,,1,Fast,short,j,0,1.8731,5,2,22,1,1,,,,,
,1.64,,,,,,,,,d,orange,5d74fcd6515c8b0001ed0c30,2021-09-27_12h50.31.507,forced_choiceRT_color,2021.2.3,Win32,59.68367651,,,,,,,,1,Slow,short,f,0,2.3011,5,3,23,0,1,,,,,
,0.78,,,,,,,,,d,orange,5d74fcd6515c8b0001ed0c30,2021-09-27_12h50.31.507,forced_choiceRT_color,2021.2.3,Win32,59.68367651,,,,,,,,1,Fast,short,d,1,1.8328,6,0,24,0,1,,,,,
,0.31,,,,,,,,,j,red,5d74fcd6515c8b0001ed0c30,2021-09-27_12h50.31.507,forced_choiceRT_color,2021.2.3,Win32,59.68367651,,,,,,,,1,Fast,short,j,1,1.8385,6,1,25,2,1,,,,,
,0.71,,,,,,,,,j,red,5d74fcd6515c8b0001ed0c30,2021-09-27_12h50.31.507,forced_choiceRT_color,2021.2.3,Win32,59.68367651,,,,,,,,1,Fast,short,j,1,1.8973,6,2,26,2,1,,,,,
,0.56,,,,,,,,,d,orange,5d74fcd6515c8b0001ed0c30,2021-09-27_12h50.31.507,forced_choiceRT_color,2021.2.3,Win32,59.68367651,,,,,,,,1,Ontime,short,f,0,2.0628,6,3,27,0,1,,,,,
,0.01,,,,,,,,,f,blue,5d74fcd6515c8b0001ed0c30,2021-09-27_12h50.31.507,forced_choiceRT_color,2021.2.3,Win32,59.68367651,,,,,,,,1,Fast,short,f,1,0.7884,7,0,28,1,1,,,,,
,1.61,,,,,,,,,d,orange,5d74fcd6515c8b0001ed0c30,2021-09-27_12h50.31.507,forced_choiceRT_color,2021.2.3,Win32,59.68367651,,,,,,,,1,Ontime,short,d,1,1.9701,7,1,29,0,1,,,,,
,0.35,,,,,,,,,k,purple,5d74fcd6515c8b0001ed0c30,2021-09-27_12h50.31.507,forced_choiceRT_color,2021.2.3,Win32,59.68367651,,,,,,,,1,Ontime,short,k,1,1.9224,7,2,30,3,1,,,,,
,1.81,,,,,,,,,d,orange,5d74fcd6515c8b0001ed0c30,2021-09-27_12h50.31.507,forced_choiceRT_color,2021.2.3,Win32,59.68367651,,,,,,,,1,Slow,short,j,0,2.2301,7,3,31,0,1,,,,,
,1.53,,,,,,,,,k,purple,5d74fcd6515c8b0001ed0c30,2021-09-27_12h50.31.507,forced_choiceRT_color,2021.2.3,Win32,59.68367651,,,,,,,,1,Ontime,short,j,0,2.0023,8,0,32,3,1,,,,,
,0.6,,,,,,,,,f,blue,5d74fcd6515c8b0001ed0c30,2021-09-27_12h50.31.507,forced_choiceRT_color,2021.2.3,Win32,59.68367651,,,,,,,,1,Fast,short,k,0,0.0118,8,1,33,1,1,,,,,
,0.68,,,,,,,,,k,purple,5d74fcd6515c8b0001ed0c30,2021-09-27_12h50.31.507,forced_choiceRT_color,2021.2.3,Win32,59.68367651,,,,,,,,1,Fast,short,k,1,1.6389,8,2,34,3,1,,,,,
,0.82,,,,,,,,,j,red,5d74fcd6515c8b0001ed0c30,2021-09-27_12h50.31.507,forced_choiceRT_color,2021.2.3,Win32,59.68367651,,,,,,,,1,Fast,short,d,0,1.7565,8,3,35,2,1,,,,,
,0.51,,,,,,,,,j,red,5d74fcd6515c8b0001ed0c30,2021-09-27_12h50.31.507,forced_choiceRT_color,2021.2.3,Win32,59.68367651,,,,,,,,1,Fast,short,j,1,1.7335,9,0,36,2,1,,,,,
,0,,,,,,,,,j,red,5d74fcd6515c8b0001ed0c30,2021-09-27_12h50.31.507,forced_choiceRT_color,2021.2.3,Win32,59.68367651,,,,,,,,1,Fast,short,j,1,1.7674,9,1,37,2,1,,,,,
,1.93,,,,,,,,,k,purple,5d74fcd6515c8b0001ed0c30,2021-09-27_12h50.31.507,forced_choiceRT_color,2021.2.3,Win32,59.68367651,,,,,,,,1,Fast,short,j,0,1.8524,9,2,38,3,1,,,,,
,0.29,,,,,,,,,j,red,5d74fcd6515c8b0001ed0c30,2021-09-27_12h50.31.507,forced_choiceRT_color,2021.2.3,Win32,59.68367651,,,,,,,,1,Ontime,short,j,1,1.9176,9,3,39,2,1,,,,,
,,,,,,,,,,,,5d74fcd6515c8b0001ed0c30,2021-09-27_12h50.31.507,forced_choiceRT_color,2021.2.3,Win32,59.68367651,,,,,,,,,,,,,,,,,,,0,0,0,0,1
,0.1,,,,,,,,,f,blue,5d74fcd6515c8b0001ed0c30,2021-09-27_12h50.31.507,forced_choiceRT_color,2021.2.3,Win32,59.68367651,,,,,,,,2,Fast,short,f,1,1.5129,0,0,0,1,1,,,,,
,0.8,,,,,,,,,k,purple,5d74fcd6515c8b0001ed0c30,2021-09-27_12h50.31.507,forced_choiceRT_color,2021.2.3,Win32,59.68367651,,,,,,,,2,Fast,short,k,1,1.47,0,1,1,3,1,,,,,
,1.14,,,,,,,,,j,red,5d74fcd6515c8b0001ed0c30,2021-09-27_12h50.31.507,forced_choiceRT_color,2021.2.3,Win32,59.68367651,,,,,,,,2,Fast,short,k,0,1.8,0,2,2,2,1,,,,,
,0.08,,,,,,,,,f,blue,5d74fcd6515c8b0001ed0c30,2021-09-27_12h50.31.507,forced_choiceRT_color,2021.2.3,Win32,59.68367651,,,,,,,,2,Fast,short,f,1,1.2182,0,3,3,1,1,,,,,
,0.65,,,,,,,,,k,purple,5d74fcd6515c8b0001ed0c30,2021-09-27_12h50.31.507,forced_choiceRT_color,2021.2.3,Win32,59.68367651,,,,,,,,2,Fast,short,j,0,1.6828,1,0,4,3,1,,,,,
,1.49,,,,,,,,,j,red,5d74fcd6515c8b0001ed0c30,2021-09-27_12h50.31.507,forced_choiceRT_color,2021.2.3,Win32,59.68367651,,,,,,,,2,Ontime,short,j,1,2.0539,1,1,5,2,1,,,,,
,1.03,,,,,,,,,f,blue,5d74fcd6515c8b0001ed0c30,2021-09-27_12h50.31.507,forced_choiceRT_color,2021.2.3,Win32,59.68367651,,,,,,,,2,Ontime,short,f,1,1.903,1,2,6,1,1,,,,,
,0.78,,,,,,,,,d,orange,5d74fcd6515c8b0001ed0c30,2021-09-27_12h50.31.507,forced_choiceRT_color,2021.2.3,Win32,59.68367651,,,,,,,,2,Fast,short,d,1,1.8514,1,3,7,0,1,,,,,
,1.56,,,,,,,,,j,red,5d74fcd6515c8b0001ed0c30,2021-09-27_12h50.31.507,forced_choiceRT_color,2021.2.3,Win32,59.68367651,,,,,,,,2,Ontime,short,j,1,2.0231,2,0,8,2,1,,,,,
,0.9,,,,,,,,,d,orange,5d74fcd6515c8b0001ed0c30,2021-09-27_12h50.31.507,forced_choiceRT_color,2021.2.3,Win32,59.68367651,,,,,,,,2,Fast,short,d,1,1.8686,2,1,9,0,1,,,,,
,1.06,,,,,,,,,f,blue,5d74fcd6515c8b0001ed0c30,2021-09-27_12h50.31.507,forced_choiceRT_color,2021.2.3,Win32,59.68367651,,,,,,,,2,Fast,short,f,1,1.7134,2,2,10,1,1,,,,,
,1.83,,,,,,,,,k,purple,5d74fcd6515c8b0001ed0c30,2021-09-27_12h50.31.507,forced_choiceRT_color,2021.2.3,Win32,59.68367651,,,,,,,,2,Ontime,short,j,0,2.0704,2,3,11,3,1,,,,,
,0.01,,,,,,,,,d,orange,5d74fcd6515c8b0001ed0c30,2021-09-27_12h50.31.507,forced_choiceRT_color,2021.2.3,Win32,59.68367651,,,,,,,,2,Fast,short,d,1,1.8879,3,0,12,0,1,,,,,
,1.2,,,,,,,,,j,red,5d74fcd6515c8b0001ed0c30,2021-09-27_12h50.31.507,forced_choiceRT_color,2021.2.3,Win32,59.68367651,,,,,,,,2,Ontime,short,j,1,2.0726,3,1,13,2,1,,,,,
,1.15,,,,,,,,,f,blue,5d74fcd6515c8b0001ed0c30,2021-09-27_12h50.31.507,forced_choiceRT_color,2021.2.3,Win32,59.68367651,,,,,,,,2,Slow,short,d,0,2.1625,3,2,14,1,1,,,,,
,1.08,,,,,,,,,d,orange,5d74fcd6515c8b0001ed0c30,2021-09-27_12h50.31.507,forced_choiceRT_color,2021.2.3,Win32,59.68367651,,,,,,,,2,Ontime,short,f,0,2.022,3,3,15,0,1,,,,,
,1.58,,,,,,,,,f,blue,5d74fcd6515c8b0001ed0c30,2021-09-27_12h50.31.507,forced_choiceRT_color,2021.2.3,Win32,59.68367651,,,,,,,,2,Ontime,short,k,0,1.9878,4,0,16,1,1,,,,,
,0.3,,,,,,,,,f,blue,5d74fcd6515c8b0001ed0c30,2021-09-27_12h50.31.507,forced_choiceRT_color,2021.2.3,Win32,59.68367651,,,,,,,,2,Fast,short,f,1,1.777,4,1,17,1,1,,,,,
,1.82,,,,,,,,,j,red,5d74fcd6515c8b0001ed0c30,2021-09-27_12h50.31.507,forced_choiceRT_color,2021.2.3,Win32,59.68367651,,,,,,,,2,Slow,short,j,1,2.3475,4,2,18,2,1,,,,,
,0.55,,,,,,,,,d,orange,5d74fcd6515c8b0001ed0c30,2021-09-27_12h50.31.507,forced_choiceRT_color,2021.2.3,Win32,59.68367651,,,,,,,,2,Fast,short,d,1,1.6548,4,3,19,0,1,,,,,
,0.59,,,,,,,,,k,purple,5d74fcd6515c8b0001ed0c30,2021-09-27_12h50.31.507,forced_choiceRT_color,2021.2.3,Win32,59.68367651,,,,,,,,2,Ontime,short,k,1,1.9515,5,0,20,3,1,,,,,
,0.53,,,,,,,,,d,orange,5d74fcd6515c8b0001ed0c30,2021-09-27_12h50.31.507,forced_choiceRT_color,2021.2.3,Win32,59.68367651,,,,,,,,2,Fast,short,d,1,1.554,5,1,21,0,1,,,,,
,1.83,,,,,,,,,d,orange,5d74fcd6515c8b0001ed0c30,2021-09-27_12h50.31.507,forced_choiceRT_color,2021.2.3,Win32,59.68367651,,,,,,,,2,Ontime,short,f,0,1.9851,5,2,22,0,1,,,,,
,1.19,,,,,,,,,j,red,5d74fcd6515c8b0001ed0c30,2021-09-27_12h50.31.507,forced_choiceRT_color,2021.2.3,Win32,59.68367651,,,,,,,,2,Ontime,short,j,1,2.0722,5,3,23,2,1,,,,,
,1.29,,,,,,,,,j,red,5d74fcd6515c8b0001ed0c30,2021-09-27_12h50.31.507,forced_choiceRT_color,2021.2.3,Win32,59.68367651,,,,,,,,2,Fast,short,j,1,1.7475,6,0,24,2,1,,,,,
,0.93,,,,,,,,,k,purple,5d74fcd6515c8b0001ed0c30,2021-09-27_12h50.31.507,forced_choiceRT_color,2021.2.3,Win32,59.68367651,,,,,,,,2,Fast,short,k,1,1.5876,6,1,25,3,1,,,,,
,1.29,,,,,,,,,j,red,5d74fcd6515c8b0001ed0c30,2021-09-27_12h50.31.507,forced_choiceRT_color,2021.2.3,Win32,59.68367651,,,,,,,,2,Fast,short,j,1,1.7875,6,2,26,2,1,,,,,
,0.76,,,,,,,,,k,purple,5d74fcd6515c8b0001ed0c30,2021-09-27_12h50.31.507,forced_choiceRT_color,2021.2.3,Win32,59.68367651,,,,,,,,2,Fast,short,k,1,1.2016,6,3,27,3,1,,,,,
,1.6,,,,,,,,,f,blue,5d74fcd6515c8b0001ed0c30,2021-09-27_12h50.31.507,forced_choiceRT_color,2021.2.3,Win32,59.68367651,,,,,,,,2,Slow,short,f,1,2.1033,7,0,28,1,1,,,,,
,0.86,,,,,,,,,f,blue,5d74fcd6515c8b0001ed0c30,2021-09-27_12h50.31.507,forced_choiceRT_color,2021.2.3,Win32,59.68367651,,,,,,,,2,Fast,short,f,1,1.5581,7,1,29,1,1,,,,,
,0.49,,,,,,,,,k,purple,5d74fcd6515c8b0001ed0c30,2021-09-27_12h50.31.507,forced_choiceRT_color,2021.2.3,Win32,59.68367651,,,,,,,,2,Fast,short,k,1,1.6126,7,2,30,3,1,,,,,
,1.94,,,,,,,,,k,purple,5d74fcd6515c8b0001ed0c30,2021-09-27_12h50.31.507,forced_choiceRT_color,2021.2.3,Win32,59.68367651,,,,,,,,2,Slow,short,k,1,2.35,7,3,31,3,1,,,,,
,0.46,,,,,,,,,k,purple,5d74fcd6515c8b0001ed0c30,2021-09-27_12h50.31.507,forced_choiceRT_color,2021.2.3,Win32,59.68367651,,,,,,,,2,Ontime,short,k,1,2.0397,8,0,32,3,1,,,,,
,0.49,,,,,,,,,d,orange,5d74fcd6515c8b0001ed0c30,2021-09-27_12h50.31.507,forced_choiceRT_color,2021.2.3,Win32,59.68367651,,,,,,,,2,Fast,short,f,0,1.7193,8,1,33,0,1,,,,,
,0.17,,,,,,,,,d,orange,5d74fcd6515c8b0001ed0c30,2021-09-27_12h50.31.507,forced_choiceRT_color,2021.2.3,Win32,59.68367651,,,,,,,,2,Fast,short,f,0,1.8362,8,2,34,0,1,,,,,
,1.1,,,,,,,,,j,red,5d74fcd6515c8b0001ed0c30,2021-09-27_12h50.31.507,forced_choiceRT_color,2021.2.3,Win32,59.68367651,,,,,,,,2,Fast,short,j,1,1.8428,8,3,35,2,1,,,,,
,1.81,,,,,,,,,k,purple,5d74fcd6515c8b0001ed0c30,2021-09-27_12h50.31.507,forced_choiceRT_color,2021.2.3,Win32,59.68367651,,,,,,,,2,Slow,short,j,0,2.3856,9,0,36,3,1,,,,,
,0.64,,,,,,,,,d,orange,5d74fcd6515c8b0001ed0c30,2021-09-27_12h50.31.507,forced_choiceRT_color,2021.2.3,Win32,59.68367651,,,,,,,,2,Fast,short,f,0,1.859,9,1,37,0,1,,,,,
,0.9,,,,,,,,,f,blue,5d74fcd6515c8b0001ed0c30,2021-09-27_12h50.31.507,forced_choiceRT_color,2021.2.3,Win32,59.68367651,,,,,,,,2,Fast,short,d,0,1.4469,9,2,38,1,1,,,,,
,0.62,,,,,,,,,j,red,5d74fcd6515c8b0001ed0c30,2021-09-27_12h50.31.507,forced_choiceRT_color,2021.2.3,Win32,59.68367651,,,,,,,,2,Fast,short,k,0,1.8504,9,3,39,2,1,,,,,
,,,,,,,,,,,,5d74fcd6515c8b0001ed0c30,2021-09-27_12h50.31.507,forced_choiceRT_color,2021.2.3,Win32,59.68367651,,,,,,,,,,,,,,,,,,,1,0,1,0,1
,1.58,,,,,,,,,k,purple,5d74fcd6515c8b0001ed0c30,2021-09-27_12h50.31.507,forced_choiceRT_color,2021.2.3,Win32,59.68367651,,,,,,,,3,Slow,short,k,1,2.343,0,0,0,3,1,,,,,
,0.47,,,,,,,,,j,red,5d74fcd6515c8b0001ed0c30,2021-09-27_12h50.31.507,forced_choiceRT_color,2021.2.3,Win32,59.68367651,,,,,,,,3,Fast,short,j,1,1.358,0,1,1,2,1,,,,,
,1.16,,,,,,,,,d,orange,5d74fcd6515c8b0001ed0c30,2021-09-27_12h50.31.507,forced_choiceRT_color,2021.2.3,Win32,59.68367651,,,,,,,,3,Ontime,short,f,0,2.0429,0,2,2,0,1,,,,,
,0.48,,,,,,,,,d,orange,5d74fcd6515c8b0001ed0c30,2021-09-27_12h50.31.507,forced_choiceRT_color,2021.2.3,Win32,59.68367651,,,,,,,,3,Fast,short,d,1,1.7848,0,3,3,0,1,,,,,
,1.76,,,,,,,,,j,red,5d74fcd6515c8b0001ed0c30,2021-09-27_12h50.31.507,forced_choiceRT_color,2021.2.3,Win32,59.68367651,,,,,,,,3,Slow,short,j,1,2.2073,1,0,4,2,1,,,,,
,1.57,,,,,,,,,d,orange,5d74fcd6515c8b0001ed0c30,2021-09-27_12h50.31.507,forced_choiceRT_color,2021.2.3,Win32,59.68367651,,,,,,,,3,Fast,short,k,0,1.6893,1,1,5,0,1,,,,,
,1.34,,,,,,,,,f,blue,5d74fcd6515c8b0001ed0c30,2021-09-27_12h50.31.507,forced_choiceRT_color,2021.2.3,Win32,59.68367651,,,,,,,,3,Ontime,short,f,1,2.0238,1,2,6,1,1,,,,,
,0.93,,,,,,,,,d,orange,5d74fcd6515c8b0001ed0c30,2021-09-27_12h50.31.507,forced_choiceRT_color,2021.2.3,Win32,59.68367651,,,,,,,,3,Fast,short,d,1,1.7889,1,3,7,0,1,,,,,
,1.64,,,,,,,,,f,blue,5d74fcd6515c8b0001ed0c30,2021-09-27_12h50.31.507,forced_choiceRT_color,2021.2.3,Win32,59.68367651,,,,,,,,3,Slow,short,f,1,2.2022,2,0,8,1,1,,,,,
,1.96,,,,,,,,,j,red,5d74fcd6515c8b0001ed0c30,2021-09-27_12h50.31.507,forced_choiceRT_color,2021.2.3,Win32,59.68367651,,,,,,,,3,Slow,short,f,0,2.3996,2,1,9,2,1,,,,,
,0.22,,,,,,,,,k,purple,5d74fcd6515c8b0001ed0c30,2021-09-27_12h50.31.507,forced_choiceRT_color,2021.2.3,Win32,59.68367651,,,,,,,,3,Fast,short,k,1,1.8167,2,2,10,3,1,,,,,
,1.37,,,,,,,,,f,blue,5d74fcd6515c8b0001ed0c30,2021-09-27_12h50.31.507,forced_choiceRT_color,2021.2.3,Win32,59.68367651,,,,,,,,3,Slow,short,d,0,2.1132,2,3,11,1,1,,,,,
,1.04,,,,,,,,,f,blue,5d74fcd6515c8b0001ed0c30,2021-09-27_12h50.31.507,forced_choiceRT_color,2021.2.3,Win32,59.68367651,,,,,,,,3,Ontime,short,f,1,1.9872,3,0,12,1,1,,,,,
,0.72,,,,,,,,,d,orange,5d74fcd6515c8b0001ed0c30,2021-09-27_12h50.31.507,forced_choiceRT_color,2021.2.3,Win32,59.68367651,,,,,,,,3,Ontime,short,d,1,1.9421,3,1,13,0,1,,,,,
,0.96,,,,,,,,,j,red,5d74fcd6515c8b0001ed0c30,2021-09-27_12h50.31.507,forced_choiceRT_color,2021.2.3,Win32,59.68367651,,,,,,,,3,Fast,short,d,0,0.1086,3,2,14,2,1,,,,,
,1.58,,,,,,,,,f,blue,5d74fcd6515c8b0001ed0c30,2021-09-27_12h50.31.507,forced_choiceRT_color,2021.2.3,Win32,59.68367651,,,,,,,,3,Fast,short,d,0,1.894,3,3,15,1,1,,,,,
,1.67,,,,,,,,,j,red,5d74fcd6515c8b0001ed0c30,2021-09-27_12h50.31.507,forced_choiceRT_color,2021.2.3,Win32,59.68367651,,,,,,,,3,Slow,short,j,1,2.1591,4,0,16,2,1,,,,,
,0.68,,,,,,,,,k,purple,5d74fcd6515c8b0001ed0c30,2021-09-27_12h50.31.507,forced_choiceRT_color,2021.2.3,Win32,59.68367651,,,,,,,,3,Ontime,short,k,1,1.9159,4,1,17,3,1,,,,,
,1.76,,,,,,,,,d,orange,5d74fcd6515c8b0001ed0c30,2021-09-27_12h50.31.507,forced_choiceRT_color,2021.2.3,Win32,59.68367651,,,,,,,,3,Ontime,short,k,0,1.9816,4,2,18,0,1,,,,,
,0.05,,,,,,,,,d,orange,5d74fcd6515c8b0001ed0c30,2021-09-27_12h50.31.507,forced_choiceRT_color,2021.2.3,Win32,59.68367651,,,,,,,,3,Fast,short,f,0,1.8469,4,3,19,0,1,,,,,
,0.83,,,,,,,,,f,blue,5d74fcd6515c8b0001ed0c30,2021-09-27_12h50.31.507,forced_choiceRT_color,2021.2.3,Win32,59.68367651,,,,,,,,3,Slow,short,d,0,2.2038,5,0,20,1,1,,,,,
,0.83,,,,,,,,,j,red,5d74fcd6515c8b0001ed0c30,2021-09-27_12h50.31.507,forced_choiceRT_color,2021.2.3,Win32,59.68367651,,,,,,,,3,Fast,short,j,1,1.7688,5,1,21,2,1,,,,,
,1.95,,,,,,,,,k,purple,5d74fcd6515c8b0001ed0c30,2021-09-27_12h50.31.507,forced_choiceRT_color,2021.2.3,Win32,59.68367651,,,,,,,,3,Slow,short,j,0,2.4446,5,2,22,3,1,,,,,
,1.73,,,,,,,,,j,red,5d74fcd6515c8b0001ed0c30,2021-09-27_12h50.31.507,forced_choiceRT_color,2021.2.3,Win32,59.68367651,,,,,,,,3,Slow,short,j,1,2.3764,5,3,23,2,1,,,,,
,0.24,,,,,,,,,k,purple,5d74fcd6515c8b0001ed0c30,2021-09-27_12h50.31.507,forced_choiceRT_color,2021.2.3,Win32,59.68367651,,,,,,,,3,Ontime,short,k,1,1.9971,6,0,24,3,1,,,,,
,1.5,,,,,,,,,f,blue,5d74fcd6515c8b0001ed0c30,2021-09-27_12h50.31.507,forced_choiceRT_color,2021.2.3,Win32,59.68367651,,,,,,,,3,Ontime,short,f,1,2.0678,6,1,25,1,1,,,,,
,0.11,,,,,,,,,f,blue,5d74fcd6515c8b0001ed0c30,2021-09-27_12h50.31.507,forced_choiceRT_color,2021.2.3,Win32,59.68367651,,,,,,,,3,Ontime,short,f,1,2.002,6,2,26,1,1,,,,,
,1.29,,,,,,,,,k,purple,5d74fcd6515c8b0001ed0c30,2021-09-27_12h50.31.507,forced_choiceRT_color,2021.2.3,Win32,59.68367651,,,,,,,,3,Ontime,short,k,1,1.9898,6,3,27,3,1,,,,,
,0.03,,,,,,,,,j,red,5d74fcd6515c8b0001ed0c30,2021-09-27_12h50.31.507,forced_choiceRT_color,2021.2.3,Win32,59.68367651,,,,,,,,3,Fast,short,j,1,0.8447,7,0,28,2,1,,,,,
,1.28,,,,,,,,,d,orange,5d74fcd6515c8b0001ed0c30,2021-09-27_12h50.31.507,forced_choiceRT_color,2021.2.3,Win32,59.68367651,,,,,,,,3,Ontime,short,f,0,2.0575,7,1,29,0,1,,,,,
,0.73,,,,,,,,,j,red,5d74fcd6515c8b0001ed0c30,2021-09-27_12h50.31.507,forced_choiceRT_color,2021.2.3,Win32,59.68367651,,,,,,,,3,Fast,short,j,1,1.7977,7,2,30,2,1,,,,,
,0.38,,,,,,,,,j,red,5d74fcd6515c8b0001ed0c30,2021-09-27_12h50.31.507,forced_choiceRT_color,2021.2.3,Win32,59.68367651,,,,,,,,3,Ontime,short,j,1,2.0765,7,3,31,2,1,,,,,
,1.47,,,,,,,,,d,orange,5d74fcd6515c8b0001ed0c30,2021-09-27_12h50.31.507,forced_choiceRT_color,2021.2.3,Win32,59.68367651,,,,,,,,3,Ontime,short,d,1,1.9912,8,0,32,0,1,,,,,
,0.44,,,,,,,,,k,purple,5d74fcd6515c8b0001ed0c30,2021-09-27_12h50.31.507,forced_choiceRT_color,2021.2.3,Win32,59.68367651,,,,,,,,3,Fast,short,k,1,1.8828,8,1,33,3,1,,,,,
,0.19,,,,,,,,,k,purple,5d74fcd6515c8b0001ed0c30,2021-09-27_12h50.31.507,forced_choiceRT_color,2021.2.3,Win32,59.68367651,,,,,,,,3,Fast,short,k,1,1.8829,8,2,34,3,1,,,,,
,1.03,,,,,,,,,f,blue,5d74fcd6515c8b0001ed0c30,2021-09-27_12h50.31.507,forced_choiceRT_color,2021.2.3,Win32,59.68367651,,,,,,,,3,Fast,short,f,1,1.8392,8,3,35,1,1,,,,,
,1.97,,,,,,,,,k,purple,5d74fcd6515c8b0001ed0c30,2021-09-27_12h50.31.507,forced_choiceRT_color,2021.2.3,Win32,59.68367651,,,,,,,,3,Slow,short,f,0,2.1325,9,0,36,3,1,,,,,
,0.9,,,,,,,,,k,purple,5d74fcd6515c8b0001ed0c30,2021-09-27_12h50.31.507,forced_choiceRT_color,2021.2.3,Win32,59.68367651,,,,,,,,3,Fast,short,k,1,1.8137,9,1,37,3,1,,,,,
,1,,,,,,,,,f,blue,5d74fcd6515c8b0001ed0c30,2021-09-27_12h50.31.507,forced_choiceRT_color,2021.2.3,Win32,59.68367651,,,,,,,,3,Slow,short,f,1,2.1653,9,2,38,1,1,,,,,
,1.98,,,,,,,,,d,orange,5d74fcd6515c8b0001ed0c30,2021-09-27_12h50.31.507,forced_choiceRT_color,2021.2.3,Win32,59.68367651,,,,,,,,3,Slow,short,k,0,2.3112,9,3,39,0,1,,,,,
,,,,,,,,,,,,5d74fcd6515c8b0001ed0c30,2021-09-27_12h50.31.507,forced_choiceRT_color,2021.2.3,Win32,59.68367651,,,,,,,,,,,,,,,,,,,2,0,2,0,1
,0.14,,,,,,,,,d,orange,5d74fcd6515c8b0001ed0c30,2021-09-27_12h50.31.507,forced_choiceRT_color,2021.2.3,Win32,59.68367651,,,,,,,,4,Ontime,short,d,1,1.9027,0,0,0,0,1,,,,,
,0.34,,,,,,,,,j,red,5d74fcd6515c8b0001ed0c30,2021-09-27_12h50.31.507,forced_choiceRT_color,2021.2.3,Win32,59.68367651,,,,,,,,4,Fast,short,j,1,1.694,0,1,1,2,1,,,,,
,0.76,,,,,,,,,d,orange,5d74fcd6515c8b0001ed0c30,2021-09-27_12h50.31.507,forced_choiceRT_color,2021.2.3,Win32,59.68367651,,,,,,,,4,Ontime,short,d,1,2.0562,0,2,2,0,1,,,,,
,0.95,,,,,,,,,j,red,5d74fcd6515c8b0001ed0c30,2021-09-27_12h50.31.507,forced_choiceRT_color,2021.2.3,Win32,59.68367651,,,,,,,,4,Ontime,short,j,1,1.9812,0,3,3,2,1,,,,,
,0.82,,,,,,,,,k,purple,5d74fcd6515c8b0001ed0c30,2021-09-27_12h50.31.507,forced_choiceRT_color,2021.2.3,Win32,59.68367651,,,,,,,,4,Slow,short,k,1,2.1201,1,0,4,3,1,,,,,
,0.21,,,,,,,,,f,blue,5d74fcd6515c8b0001ed0c30,2021-09-27_12h50.31.507,forced_choiceRT_color,2021.2.3,Win32,59.68367651,,,,,,,,4,Ontime,short,f,1,1.9182,1,1,5,1,1,,,,,
,0.72,,,,,,,,,j,red,5d74fcd6515c8b0001ed0c30,2021-09-27_12h50.31.507,forced_choiceRT_color,2021.2.3,Win32,59.68367651,,,,,,,,4,Fast,short,j,1,1.8711,1,2,6,2,1,,,,,
,0.58,,,,,,,,,k,purple,5d74fcd6515c8b0001ed0c30,2021-09-27_12h50.31.507,forced_choiceRT_color,2021.2.3,Win32,59.68367651,,,,,,,,4,Ontime,short,k,1,2.0555,1,3,7,3,1,,,,,
,0.23,,,,,,,,,j,red,5d74fcd6515c8b0001ed0c30,2021-09-27_12h50.31.507,forced_choiceRT_color,2021.2.3,Win32,59.68367651,,,,,,,,4,Ontime,short,j,1,1.9515,2,0,8,2,1,,,,,
,0.85,,,,,,,,,f,blue,5d74fcd6515c8b0001ed0c30,2021-09-27_12h50.31.507,forced_choiceRT_color,2021.2.3,Win32,59.68367651,,,,,,,,4,Ontime,short,f,1,2.0128,2,1,9,1,1,,,,,
,1.4,,,,,,,,,d,orange,5d74fcd6515c8b0001ed0c30,2021-09-27_12h50.31.507,forced_choiceRT_color,2021.2.3,Win32,59.68367651,,,,,,,,4,Fast,short,d,1,1.8867,2,2,10,0,1,,,,,
,0.76,,,,,,,,,k,purple,5d74fcd6515c8b0001ed0c30,2021-09-27_12h50.31.507,forced_choiceRT_color,2021.2.3,Win32,59.68367651,,,,,,,,4,Ontime,short,k,1,1.9885,2,3,11,3,1,,,,,
,1.92,,,,,,,,,k,purple,5d74fcd6515c8b0001ed0c30,2021-09-27_12h50.31.507,forced_choiceRT_color,2021.2.3,Win32,59.68367651,,,,,,,,4,Ontime,short,d,0,1.9854,3,0,12,3,1,,,,,
,1.09,,,,,,,,,d,orange,5d74fcd6515c8b0001ed0c30,2021-09-27_12h50.31.507,forced_choiceRT_color,2021.2.3,Win32,59.68367651,,,,,,,,4,Slow,short,f,0,2.1192,3,1,13,0,1,,,,,
,0.52,,,,,,,,,d,orange,5d74fcd6515c8b0001ed0c30,2021-09-27_12h50.31.507,forced_choiceRT_color,2021.2.3,Win32,59.68367651,,,,,,,,4,Fast,short,d,1,1.768,3,2,14,0,1,,,,,
,0.08,,,,,,,,,f,blue,5d74fcd6515c8b0001ed0c30,2021-09-27_12h50.31.507,forced_choiceRT_color,2021.2.3,Win32,59.68367651,,,,,,,,4,Ontime,short,f,1,1.9545,3,3,15,1,1,,,,,
,1.51,,,,,,,,,f,blue,5d74fcd6515c8b0001ed0c30,2021-09-27_12h50.31.507,forced_choiceRT_color,2021.2.3,Win32,59.68367651,,,,,,,,4,Ontime,short,f,1,1.9097,4,0,16,1,1,,,,,
,1.58,,,,,,,,,d,orange,5d74fcd6515c8b0001ed0c30,2021-09-27_12h50.31.507,forced_choiceRT_color,2021.2.3,Win32,59.68367651,,,,,,,,4,Fast,short,f,0,1.8848,4,1,17,0,1,,,,,
,0.35,,,,,,,,,f,blue,5d74fcd6515c8b0001ed0c30,2021-09-27_12h50.31.507,forced_choiceRT_color,2021.2.3,Win32,59.68367651,,,,,,,,4,Fast,short,f,1,1.7885,4,2,18,1,1,,,,,
,1.75,,,,,,,,,k,purple,5d74fcd6515c8b0001ed0c30,2021-09-27_12h50.31.507,forced_choiceRT_color,2021.2.3,Win32,59.68367651,,,,,,,,4,Ontime,short,f,0,1.9707,4,3,19,3,1,,,,,
,1.16,,,,,,,,,f,blue,5d74fcd6515c8b0001ed0c30,2021-09-27_12h50.31.507,forced_choiceRT_color,2021.2.3,Win32,59.68367651,,,,,,,,4,Fast,short,f,1,1.7976,5,0,20,1,1,,,,,
,0.68,,,,,,,,,j,red,5d74fcd6515c8b0001ed0c30,2021-09-27_12h50.31.507,forced_choiceRT_color,2021.2.3,Win32,59.68367651,,,,,,,,4,Slow,short,j,1,2.1507,5,1,21,2,1,,,,,
,1.73,,,,,,,,,d,orange,5d74fcd6515c8b0001ed0c30,2021-09-27_12h50.31.507,forced_choiceRT_color,2021.2.3,Win32,59.68367651,,,,,,,,4,Fast,short,d,1,1.897,5,2,22,0,1,,,,,
,1.93,,,,,,,,,d,orange,5d74fcd6515c8b0001ed0c30,2021-09-27_12h50.31.507,forced_choiceRT_color,2021.2.3,Win32,59.68367651,,,,,,,,4,Fast,short,d,1,1.8405,5,3,23,0,1,,,,,
,0.5,,,,,,,,,k,purple,5d74fcd6515c8b0001ed0c30,2021-09-27_12h50.31.507,forced_choiceRT_color,2021.2.3,Win32,59.68367651,,,,,,,,4,Fast,short,k,1,1.8935,6,0,24,3,1,,,,,
,1.56,,,,,,,,,k,purple,5d74fcd6515c8b0001ed0c30,2021-09-27_12h50.31.507,forced_choiceRT_color,2021.2.3,Win32,59.68367651,,,,,,,,4,Fast,short,j,0,1.8424,6,1,25,3,1,,,,,
,1.77,,,,,,,,,d,orange,5d74fcd6515c8b0001ed0c30,2021-09-27_12h50.31.507,forced_choiceRT_color,2021.2.3,Win32,59.68367651,,,,,,,,4,Slow,short,f,0,2.3441,6,2,26,0,1,,,,,
,1.61,,,,,,,,,f,blue,5d74fcd6515c8b0001ed0c30,2021-09-27_12h50.31.507,forced_choiceRT_color,2021.2.3,Win32,59.68367651,,,,,,,,4,Ontime,short,f,1,1.9348,6,3,27,1,1,,,,,
,0.68,,,,,,,,,f,blue,5d74fcd6515c8b0001ed0c30,2021-09-27_12h50.31.507,forced_choiceRT_color,2021.2.3,Win32,59.68367651,,,,,,,,4,Fast,short,f,1,1.8846,7,0,28,1,1,,,,,
,0.96,,,,,,,,,k,purple,5d74fcd6515c8b0001ed0c30,2021-09-27_12h50.31.507,forced_choiceRT_color,2021.2.3,Win32,59.68367651,,,,,,,,4,Fast,short,k,1,1.6749,7,1,29,3,1,,,,,
,1.02,,,,,,,,,j,red,5d74fcd6515c8b0001ed0c30,2021-09-27_12h50.31.507,forced_choiceRT_color,2021.2.3,Win32,59.68367651,,,,,,,,4,Fast,short,j,1,1.4913,7,2,30,2,1,,,,,
,0.21,,,,,,,,,k,purple,5d74fcd6515c8b0001ed0c30,2021-09-27_12h50.31.507,forced_choiceRT_color,2021.2.3,Win32,59.68367651,,,,,,,,4,Ontime,short,k,1,1.9016,7,3,31,3,1,,,,,
,1.76,,,,,,,,,d,orange,5d74fcd6515c8b0001ed0c30,2021-09-27_12h50.31.507,forced_choiceRT_color,2021.2.3,Win32,59.68367651,,,,,,,,4,Ontime,short,j,0,1.9919,8,0,32,0,1,,,,,
,0.63,,,,,,,,,j,red,5d74fcd6515c8b0001ed0c30,2021-09-27_12h50.31.507,forced_choiceRT_color,2021.2.3,Win32,59.68367651,,,,,,,,4,Ontime,short,j,1,1.9147,8,1,33,2,1,,,,,
,1.53,,,,,,,,,j,red,5d74fcd6515c8b0001ed0c30,2021-09-27_12h50.31.507,forced_choiceRT_color,2021.2.3,Win32,59.68367651,,,,,,,,4,Fast,short,j,1,1.8569,8,2,34,2,1,,,,,
,0.87,,,,,,,,,j,red,5d74fcd6515c8b0001ed0c30,2021-09-27_12h50.31.507,forced_choiceRT_color,2021.2.3,Win32,59.68367651,,,,,,,,4,Ontime,short,j,1,1.9243,8,3,35,2,1,,,,,
,1.36,,,,,,,,,f,blue,5d74fcd6515c8b0001ed0c30,2021-09-27_12h50.31.507,forced_choiceRT_color,2021.2.3,Win32,59.68367651,,,,,,,,4,Ontime,short,f,1,2.0819,9,0,36,1,1,,,,,
,0.16,,,,,,,,,k,purple,5d74fcd6515c8b0001ed0c30,2021-09-27_12h50.31.507,forced_choiceRT_color,2021.2.3,Win32,59.68367651,,,,,,,,4,Fast,short,d,0,0.076,9,1,37,3,1,,,,,
,1.71,,,,,,,,,f,blue,5d74fcd6515c8b0001ed0c30,2021-09-27_12h50.31.507,forced_choiceRT_color,2021.2.3,Win32,59.68367651,,,,,,,,4,Ontime,short,f,1,1.9698,9,2,38,1,1,,,,,
,1.56,,,,,,,,,j,red,5d74fcd6515c8b0001ed0c30,2021-09-27_12h50.31.507,forced_choiceRT_color,2021.2.3,Win32,59.68367651,,,,,,,,4,Ontime,short,d,0,1.9081,9,3,39,2,1,,,,,
,,,,,,,,,,,,5d74fcd6515c8b0001ed0c30,2021-09-27_12h50.31.507,forced_choiceRT_color,2021.2.3,Win32,59.68367651,,,,,,,,,,,,,,,,,,,3,0,3,0,1
,1.41,,,,,,,,,k,purple,5d74fcd6515c8b0001ed0c30,2021-09-27_12h50.31.507,forced_choiceRT_color,2021.2.3,Win32,59.68367651,,,,,,,,5,Ontime,short,k,1,1.9218,0,0,0,3,1,,,,,
,1.08,,,,,,,,,k,purple,5d74fcd6515c8b0001ed0c30,2021-09-27_12h50.31.507,forced_choiceRT_color,2021.2.3,Win32,59.68367651,,,,,,,,5,Ontime,short,k,1,1.9348,0,1,1,3,1,,,,,
,0.22,,,,,,,,,k,purple,5d74fcd6515c8b0001ed0c30,2021-09-27_12h50.31.507,forced_choiceRT_color,2021.2.3,Win32,59.68367651,,,,,,,,5,Fast,short,k,1,1.7825,0,2,2,3,1,,,,,
,0.47,,,,,,,,,j,red,5d74fcd6515c8b0001ed0c30,2021-09-27_12h50.31.507,forced_choiceRT_color,2021.2.3,Win32,59.68367651,,,,,,,,5,Ontime,short,j,1,1.9944,0,3,3,2,1,,,,,
,0.79,,,,,,,,,j,red,5d74fcd6515c8b0001ed0c30,2021-09-27_12h50.31.507,forced_choiceRT_color,2021.2.3,Win32,59.68367651,,,,,,,,5,Ontime,short,j,1,2.0607,1,0,4,2,1,,,,,
,0.83,,,,,,,,,f,blue,5d74fcd6515c8b0001ed0c30,2021-09-27_12h50.31.507,forced_choiceRT_color,2021.2.3,Win32,59.68367651,,,,,,,,5,Ontime,short,f,1,2.0923,1,1,5,1,1,,,,,
,1.75,,,,,,,,,k,purple,5d74fcd6515c8b0001ed0c30,2021-09-27_12h50.31.507,forced_choiceRT_color,2021.2.3,Win32,59.68367651,,,,,,,,5,Ontime,short,f,0,2.0208,1,2,6,3,1,,,,,
,1.48,,,,,,,,,j,red,5d74fcd6515c8b0001ed0c30,2021-09-27_12h50.31.507,forced_choiceRT_color,2021.2.3,Win32,59.68367651,,,,,,,,5,Slow,short,j,1,2.1086,1,3,7,2,1,,,,,
,0.13,,,,,,,,,f,blue,5d74fcd6515c8b0001ed0c30,2021-09-27_12h50.31.507,forced_choiceRT_color,2021.2.3,Win32,59.68367651,,,,,,,,5,Fast,short,f,1,1.7995,2,0,8,1,1,,,,,
,0.6,,,,,,,,,j,red,5d74fcd6515c8b0001ed0c30,2021-09-27_12h50.31.507,forced_choiceRT_color,2021.2.3,Win32,59.68367651,,,,,,,,5,Ontime,short,j,1,2.0132,2,1,9,2,1,,,,,
,1.5,,,,,,,,,d,orange,5d74fcd6515c8b0001ed0c30,2021-09-27_12h50.31.507,forced_choiceRT_color,2021.2.3,Win32,59.68367651,,,,,,,,5,Slow,short,d,1,2.3696,2,2,10,0,1,,,,,
,0.3,,,,,,,,,j,red,5d74fcd6515c8b0001ed0c30,2021-09-27_12h50.31.507,forced_choiceRT_color,2021.2.3,Win32,59.68367651,,,,,,,,5,Ontime,short,f,0,1.9837,2,3,11,2,1,,,,,
,1.85,,,,,,,,,d,orange,5d74fcd6515c8b0001ed0c30,2021-09-27_12h50.31.507,forced_choiceRT_color,2021.2.3,Win32,59.68367651,,,,,,,,5,Slow,short,k,0,2.1934,3,0,12,0,1,,,,,
,1.88,,,,,,,,,d,orange,5d74fcd6515c8b0001ed0c30,2021-09-27_12h50.31.507,forced_choiceRT_color,2021.2.3,Win32,59.68367651,,,,,,,,5,Slow,short,k,0,2.2525,3,1,13,0,1,,,,,
,1.84,,,,,,,,,f,blue,5d74fcd6515c8b0001ed0c30,2021-09-27_12h50.31.507,forced_choiceRT_color,2021.2.3,Win32,59.68367651,,,,,,,,5,Slow,short,f,1,2.3645,3,2,14,1,1,,,,,
,0.13,,,,,,,,,d,orange,5d74fcd6515c8b0001ed0c30,2021-09-27_12h50.31.507,forced_choiceRT_color,2021.2.3,Win32,59.68367651,,,,,,,,5,Ontime,short,d,1,1.9352,3,3,15,0,1,,,,,
,0.26,,,,,,,,,d,orange,5d74fcd6515c8b0001ed0c30,2021-09-27_12h50.31.507,forced_choiceRT_color,2021.2.3,Win32,59.68367651,,,,,,,,5,Ontime,short,d,1,1.9472,4,0,16,0,1,,,,,
,0.46,,,,,,,,,k,purple,5d74fcd6515c8b0001ed0c30,2021-09-27_12h50.31.507,forced_choiceRT_color,2021.2.3,Win32,59.68367651,,,,,,,,5,Fast,short,k,1,1.6358,4,1,17,3,1,,,,,
,1.17,,,,,,,,,f,blue,5d74fcd6515c8b0001ed0c30,2021-09-27_12h50.31.507,forced_choiceRT_color,2021.2.3,Win32,59.68367651,,,,,,,,5,Ontime,short,f,1,1.9536,4,2,18,1,1,,,,,
,0.22,,,,,,,,,k,purple,5d74fcd6515c8b0001ed0c30,2021-09-27_12h50.31.507,forced_choiceRT_color,2021.2.3,Win32,59.68367651,,,,,,,,5,Slow,short,k,1,2.2034,4,3,19,3,1,,,,,
,0.24,,,,,,,,,f,blue,5d74fcd6515c8b0001ed0c30,2021-09-27_12h50.31.507,forced_choiceRT_color,2021.2.3,Win32,59.68367651,,,,,,,,5,Ontime,short,f,1,1.9988,5,0,20,1,1,,,,,
,1.43,,,,,,,,,j,red,5d74fcd6515c8b0001ed0c30,2021-09-27_12h50.31.507,forced_choiceRT_color,2021.2.3,Win32,59.68367651,,,,,,,,5,Slow,short,j,1,2.2668,5,1,21,2,1,,,,,
,1.25,,,,,,,,,j,red,5d74fcd6515c8b0001ed0c30,2021-09-27_12h50.31.507,forced_choiceRT_color,2021.2.3,Win32,59.68367651,,,,,,,,5,Fast,short,j,1,1.6481,5,2,22,2,1,,,,,
,0.79,,,,,,,,,j,red,5d74fcd6515c8b0001ed0c30,2021-09-27_12h50.31.507,forced_choiceRT_color,2021.2.3,Win32,59.68367651,,,,,,,,5,Ontime,short,j,1,1.9835,5,3,23,2,1,,,,,
,1.07,,,,,,,,,j,red,5d74fcd6515c8b0001ed0c30,2021-09-27_12h50.31.507,forced_choiceRT_color,2021.2.3,Win32,59.68367651,,,,,,,,5,Ontime,short,j,1,2.0248,6,0,24,2,1,,,,,
,1.52,,,,,,,,,f,blue,5d74fcd6515c8b0001ed0c30,2021-09-27_12h50.31.507,forced_choiceRT_color,2021.2.3,Win32,59.68367651,,,,,,,,5,Ontime,short,d,0,2.0212,6,1,25,1,1,,,,,
,0.59,,,,,,,,,k,purple,5d74fcd6515c8b0001ed0c30,2021-09-27_12h50.31.507,forced_choiceRT_color,2021.2.3,Win32,59.68367651,,,,,,,,5,Fast,short,k,1,1.7827,6,2,26,3,1,,,,,
,1.93,,,,,,,,,f,blue,5d74fcd6515c8b0001ed0c30,2021-09-27_12h50.31.507,forced_choiceRT_color,2021.2.3,Win32,59.68367651,,,,,,,,5,Slow,short,f,1,2.2374,6,3,27,1,1,,,,,
,0.54,,,,,,,,,d,orange,5d74fcd6515c8b0001ed0c30,2021-09-27_12h50.31.507,forced_choiceRT_color,2021.2.3,Win32,59.68367651,,,,,,,,5,Ontime,short,d,1,1.9533,7,0,28,0,1,,,,,
,1.22,,,,,,,,,f,blue,5d74fcd6515c8b0001ed0c30,2021-09-27_12h50.31.507,forced_choiceRT_color,2021.2.3,Win32,59.68367651,,,,,,,,5,Ontime,short,f,1,1.9385,7,1,29,1,1,,,,,
,1.41,,,,,,,,,j,red,5d74fcd6515c8b0001ed0c30,2021-09-27_12h50.31.507,forced_choiceRT_color,2021.2.3,Win32,59.68367651,,,,,,,,5,Ontime,short,j,1,1.9744,7,2,30,2,1,,,,,
,0.99,,,,,,,,,k,purple,5d74fcd6515c8b0001ed0c30,2021-09-27_12h50.31.507,forced_choiceRT_color,2021.2.3,Win32,59.68367651,,,,,,,,5,Ontime,short,k,1,1.9896,7,3,31,3,1,,,,,
,0.74,,,,,,,,,k,purple,5d74fcd6515c8b0001ed0c30,2021-09-27_12h50.31.507,forced_choiceRT_color,2021.2.3,Win32,59.68367651,,,,,,,,5,Ontime,short,k,1,2.0514,8,0,32,3,1,,,,,
,0.96,,,,,,,,,d,orange,5d74fcd6515c8b0001ed0c30,2021-09-27_12h50.31.507,forced_choiceRT_color,2021.2.3,Win32,59.68367651,,,,,,,,5,Ontime,short,f,0,1.9665,8,1,33,0,1,,,,,
,0.04,,,,,,,,,d,orange,5d74fcd6515c8b0001ed0c30,2021-09-27_12h50.31.507,forced_choiceRT_color,2021.2.3,Win32,59.68367651,,,,,,,,5,Fast,short,d,1,1.8352,8,2,34,0,1,,,,,
,1.53,,,,,,,,,d,orange,5d74fcd6515c8b0001ed0c30,2021-09-27_12h50.31.507,forced_choiceRT_color,2021.2.3,Win32,59.68367651,,,,,,,,5,Ontime,short,d,1,1.9138,8,3,35,0,1,,,,,
,1.49,,,,,,,,,f,blue,5d74fcd6515c8b0001ed0c30,2021-09-27_12h50.31.507,forced_choiceRT_color,2021.2.3,Win32,59.68367651,,,,,,,,5,Fast,short,d,0,1.7774,9,0,36,1,1,,,,,
,0.51,,,,,,,,,d,orange,5d74fcd6515c8b0001ed0c30,2021-09-27_12h50.31.507,forced_choiceRT_color,2021.2.3,Win32,59.68367651,,,,,,,,5,Fast,short,d,1,1.8914,9,1,37,0,1,,,,,
,0.62,,,,,,,,,f,blue,5d74fcd6515c8b0001ed0c30,2021-09-27_12h50.31.507,forced_choiceRT_color,2021.2.3,Win32,59.68367651,,,,,,,,5,Ontime,short,f,1,2.0505,9,2,38,1,1,,,,,
,1.48,,,,,,,,,k,purple,5d74fcd6515c8b0001ed0c30,2021-09-27_12h50.31.507,forced_choiceRT_color,2021.2.3,Win32,59.68367651,,,,,,,,5,Slow,short,j,0,2.4846,9,3,39,3,1,,,,,
,,,,,,,,,,,,5d74fcd6515c8b0001ed0c30,2021-09-27_12h50.31.507,forced_choiceRT_color,2021.2.3,Win32,59.68367651,,,,,,,,,,,,,,,,,,,4,0,4,0,1
,1.08,,,,,,,,,d,orange,5d74fcd6515c8b0001ed0c30,2021-09-27_12h50.31.507,forced_choiceRT_color,2021.2.3,Win32,59.68367651,,,,,,,,6,Ontime,short,d,1,2.0599,0,0,0,0,1,,,,,
,0.71,,,,,,,,,f,blue,5d74fcd6515c8b0001ed0c30,2021-09-27_12h50.31.507,forced_choiceRT_color,2021.2.3,Win32,59.68367651,,,,,,,,6,Fast,short,f,1,1.6913,0,1,1,1,1,,,,,
,0.48,,,,,,,,,d,orange,5d74fcd6515c8b0001ed0c30,2021-09-27_12h50.31.507,forced_choiceRT_color,2021.2.3,Win32,59.68367651,,,,,,,,6,Ontime,short,d,1,1.9039,0,2,2,0,1,,,,,
,0.81,,,,,,,,,k,purple,5d74fcd6515c8b0001ed0c30,2021-09-27_12h50.31.507,forced_choiceRT_color,2021.2.3,Win32,59.68367651,,,,,,,,6,Fast,short,k,1,1.8474,0,3,3,3,1,,,,,
,0.65,,,,,,,,,k,purple,5d74fcd6515c8b0001ed0c30,2021-09-27_12h50.31.507,forced_choiceRT_color,2021.2.3,Win32,59.68367651,,,,,,,,6,Ontime,short,k,1,2.0654,1,0,4,3,1,,,,,
,1.66,,,,,,,,,k,purple,5d74fcd6515c8b0001ed0c30,2021-09-27_12h50.31.507,forced_choiceRT_color,2021.2.3,Win32,59.68367651,,,,,,,,6,Slow,short,k,1,2.2199,1,1,5,3,1,,,,,
,0.18,,,,,,,,,k,purple,5d74fcd6515c8b0001ed0c30,2021-09-27_12h50.31.507,forced_choiceRT_color,2021.2.3,Win32,59.68367651,,,,,,,,6,Ontime,short,k,1,2.021,1,2,6,3,1,,,,,
,0.9,,,,,,,,,d,orange,5d74fcd6515c8b0001ed0c30,2021-09-27_12h50.31.507,forced_choiceRT_color,2021.2.3,Win32,59.68367651,,,,,,,,6,Ontime,short,d,1,1.9413,1,3,7,0,1,,,,,
,1.78,,,,,,,,,d,orange,5d74fcd6515c8b0001ed0c30,2021-09-27_12h50.31.507,forced_choiceRT_color,2021.2.3,Win32,59.68367651,,,,,,,,6,Slow,short,d,1,2.173,2,0,8,0,1,,,,,
,0.62,,,,,,,,,d,orange,5d74fcd6515c8b0001ed0c30,2021-09-27_12h50.31.507,forced_choiceRT_color,2021.2.3,Win32,59.68367651,,,,,,,,6,Ontime,short,d,1,1.9597,2,1,9,0,1,,,,,
,0.84,,,,,,,,,f,blue,5d74fcd6515c8b0001ed0c30,2021-09-27_12h50.31.507,forced_choiceRT_color,2021.2.3,Win32,59.68367651,,,,,,,,6,Ontime,short,f,1,1.9239,2,2,10,1,1,,,,,
,0.61,,,,,,,,,d,orange,5d74fcd6515c8b0001ed0c30,2021-09-27_12h50.31.507,forced_choiceRT_color,2021.2.3,Win32,59.68367651,,,,,,,,6,Fast,short,d,1,1.8403,2,3,11,0,1,,,,,
,1.51,,,,,,,,,f,blue,5d74fcd6515c8b0001ed0c30,2021-09-27_12h50.31.507,forced_choiceRT_color,2021.2.3,Win32,59.68367651,,,,,,,,6,Ontime,short,f,1,2.0586,3,0,12,1,1,,,,,
,1.8,,,,,,,,,k,purple,5d74fcd6515c8b0001ed0c30,2021-09-27_12h50.31.507,forced_choiceRT_color,2021.2.3,Win32,59.68367651,,,,,,,,6,Slow,short,f,0,2.1143,3,1,13,3,1,,,,,
,1.59,,,,,,,,,f,blue,5d74fcd6515c8b0001ed0c30,2021-09-27_12h50.31.507,forced_choiceRT_color,2021.2.3,Win32,59.68367651,,,,,,,,6,Slow,short,f,1,2.268,3,2,14,1,1,,,,,
,0.48,,,,,,,,,f,blue,5d74fcd6515c8b0001ed0c30,2021-09-27_12h50.31.507,forced_choiceRT_color,2021.2.3,Win32,59.68367651,,,,,,,,6,Ontime,short,f,1,2.0394,3,3,15,1,1,,,,,
,1.07,,,,,,,,,f,blue,5d74fcd6515c8b0001ed0c30,2021-09-27_12h50.31.507,forced_choiceRT_color,2021.2.3,Win32,59.68367651,,,,,,,,6,Ontime,short,f,1,1.9049,4,0,16,1,1,,,,,
,1.49,,,,,,,,,f,blue,5d74fcd6515c8b0001ed0c30,2021-09-27_12h50.31.507,forced_choiceRT_color,2021.2.3,Win32,59.68367651,,,,,,,,6,Ontime,short,f,1,1.9143,4,1,17,1,1,,,,,
,1.09,,,,,,,,,j,red,5d74fcd6515c8b0001ed0c30,2021-09-27_12h50.31.507,forced_choiceRT_color,2021.2.3,Win32,59.68367651,,,,,,,,6,Ontime,short,d,0,2.0267,4,2,18,2,1,,,,,
,1.37,,,,,,,,,f,blue,5d74fcd6515c8b0001ed0c30,2021-09-27_12h50.31.507,forced_choiceRT_color,2021.2.3,Win32,59.68367651,,,,,,,,6,Ontime,short,f,1,2.0224,4,3,19,1,1,,,,,
,0.46,,,,,,,,,f,blue,5d74fcd6515c8b0001ed0c30,2021-09-27_12h50.31.507,forced_choiceRT_color,2021.2.3,Win32,59.68367651,,,,,,,,6,Fast,short,f,1,1.7453,5,0,20,1,1,,,,,
,0.81,,,,,,,,,j,red,5d74fcd6515c8b0001ed0c30,2021-09-27_12h50.31.507,forced_choiceRT_color,2021.2.3,Win32,59.68367651,,,,,,,,6,Fast,short,j,1,1.7664,5,1,21,2,1,,,,,
,1.56,,,,,,,,,d,orange,5d74fcd6515c8b0001ed0c30,2021-09-27_12h50.31.507,forced_choiceRT_color,2021.2.3,Win32,59.68367651,,,,,,,,6,Slow,short,d,1,2.2673,5,2,22,0,1,,,,,
,1.8,,,,,,,,,j,red,5d74fcd6515c8b0001ed0c30,2021-09-27_12h50.31.507,forced_choiceRT_color,2021.2.3,Win32,59.68367651,,,,,,,,6,Slow,short,j,1,2.3518,5,3,23,2,1,,,,,
,0.02,,,,,,,,,j,red,5d74fcd6515c8b0001ed0c30,2021-09-27_12h50.31.507,forced_choiceRT_color,2021.2.3,Win32,59.68367651,,,,,,,,6,Ontime,short,j,1,1.9874,6,0,24,2,1,,,,,
,1.58,,,,,,,,,k,purple,5d74fcd6515c8b0001ed0c30,2021-09-27_12h50.31.507,forced_choiceRT_color,2021.2.3,Win32,59.68367651,,,,,,,,6,Ontime,short,k,1,2.0499,6,1,25,3,1,,,,,
,0.32,,,,,,,,,j,red,5d74fcd6515c8b0001ed0c30,2021-09-27_12h50.31.507,forced_choiceRT_color,2021.2.3,Win32,59.68367651,,,,,,,,6,Fast,short,j,1,1.8821,6,2,26,2,1,,,,,
,1.02,,,,,,,,,k,purple,5d74fcd6515c8b0001ed0c30,2021-09-27_12h50.31.507,forced_choiceRT_color,2021.2.3,Win32,59.68367651,,,,,,,,6,Ontime,short,k,1,2.0341,6,3,27,3,1,,,,,
,0.42,,,,,,,,,d,orange,5d74fcd6515c8b0001ed0c30,2021-09-27_12h50.31.507,forced_choiceRT_color,2021.2.3,Win32,59.68367651,,,,,,,,6,Fast,short,d,1,1.7801,7,0,28,0,1,,,,,
,0.47,,,,,,,,,j,red,5d74fcd6515c8b0001ed0c30,2021-09-27_12h50.31.507,forced_choiceRT_color,2021.2.3,Win32,59.68367651,,,,,,,,6,Ontime,short,j,1,1.9638,7,1,29,2,1,,,,,
,1.56,,,,,,,,,k,purple,5d74fcd6515c8b0001ed0c30,2021-09-27_12h50.31.507,forced_choiceRT_color,2021.2.3,Win32,59.68367651,,,,,,,,6,Slow,short,k,1,2.2365,7,2,30,3,1,,,,,
,0.81,,,,,,,,,j,red,5d74fcd6515c8b0001ed0c30,2021-09-27_12h50.31.507,forced_choiceRT_color,2021.2.3,Win32,59.68367651,,,,,,,,6,Fast,short,j,1,1.8431,7,3,31,2,1,,,,,
,0.37,,,,,,,,,j,red,5d74fcd6515c8b0001ed0c30,2021-09-27_12h50.31.507,forced_choiceRT_color,2021.2.3,Win32,59.68367651,,,,,,,,6,Fast,short,j,1,1.8646,8,0,32,2,1,,,,,
,0.9,,,,,,,,,k,purple,5d74fcd6515c8b0001ed0c30,2021-09-27_12h50.31.507,forced_choiceRT_color,2021.2.3,Win32,59.68367651,,,,,,,,6,Fast,short,k,1,1.8912,8,1,33,3,1,,,,,
,1.61,,,,,,,,,f,blue,5d74fcd6515c8b0001ed0c30,2021-09-27_12h50.31.507,forced_choiceRT_color,2021.2.3,Win32,59.68367651,,,,,,,,6,Slow,short,f,1,2.4054,8,2,34,1,1,,,,,
,0.45,,,,,,,,,k,purple,5d74fcd6515c8b0001ed0c30,2021-09-27_12h50.31.507,forced_choiceRT_color,2021.2.3,Win32,59.68367651,,,,,,,,6,Fast,short,k,1,1.7575,8,3,35,3,1,,,,,
,0,,,,,,,,,d,orange,5d74fcd6515c8b0001ed0c30,2021-09-27_12h50.31.507,forced_choiceRT_color,2021.2.3,Win32,59.68367651,,,,,,,,6,Ontime,short,d,1,1.94,9,0,36,0,1,,,,,
,0.45,,,,,,,,,d,orange,5d74fcd6515c8b0001ed0c30,2021-09-27_12h50.31.507,forced_choiceRT_color,2021.2.3,Win32,59.68367651,,,,,,,,6,Fast,short,d,1,1.8784,9,1,37,0,1,,,,,
,0.56,,,,,,,,,j,red,5d74fcd6515c8b0001ed0c30,2021-09-27_12h50.31.507,forced_choiceRT_color,2021.2.3,Win32,59.68367651,,,,,,,,6,Ontime,short,j,1,1.9665,9,2,38,2,1,,,,,
,1.92,,,,,,,,,j,red,5d74fcd6515c8b0001ed0c30,2021-09-27_12h50.31.507,forced_choiceRT_color,2021.2.3,Win32,59.68367651,,,,,,,,6,Slow,short,j,1,2.3265,9,3,39,2,1,,,,,
,,,,,,,,,,,,5d74fcd6515c8b0001ed0c30,2021-09-27_12h50.31.507,forced_choiceRT_color,2021.2.3,Win32,59.68367651,,,,,,,,,,,,,,,,,,,5,0,5,0,1
,1.92,,,,,,,,,k,purple,5d74fcd6515c8b0001ed0c30,2021-09-27_12h50.31.507,forced_choiceRT_color,2021.2.3,Win32,59.68367651,,,,,,,,7,Slow,short,k,1,2.5761,0,0,0,3,1,,,,,
,0.1,,,,,,,,,j,red,5d74fcd6515c8b0001ed0c30,2021-09-27_12h50.31.507,forced_choiceRT_color,2021.2.3,Win32,59.68367651,,,,,,,,7,Ontime,short,j,1,1.9325,0,1,1,2,1,,,,,
,1.41,,,,,,,,,f,blue,5d74fcd6515c8b0001ed0c30,2021-09-27_12h50.31.507,forced_choiceRT_color,2021.2.3,Win32,59.68367651,,,,,,,,7,Ontime,short,f,1,2.0757,0,2,2,1,1,,,,,
,0.08,,,,,,,,,k,purple,5d74fcd6515c8b0001ed0c30,2021-09-27_12h50.31.507,forced_choiceRT_color,2021.2.3,Win32,59.68367651,,,,,,,,7,Ontime,short,k,1,2.0017,0,3,3,3,1,,,,,
,1.65,,,,,,,,,d,orange,5d74fcd6515c8b0001ed0c30,2021-09-27_12h50.31.507,forced_choiceRT_color,2021.2.3,Win32,59.68367651,,,,,,,,7,Slow,short,d,1,2.1524,1,0,4,0,1,,,,,
,1.75,,,,,,,,,f,blue,5d74fcd6515c8b0001ed0c30,2021-09-27_12h50.31.507,forced_choiceRT_color,2021.2.3,Win32,59.68367651,,,,,,,,7,Slow,short,j,0,2.7315,1,1,5,1,1,,,,,
,1.93,,,,,,,,,k,purple,5d74fcd6515c8b0001ed0c30,2021-09-27_12h50.31.507,forced_choiceRT_color,2021.2.3,Win32,59.68367651,,,,,,,,7,Slow,short,k,1,2.4469,1,2,6,3,1,,,,,
,1.28,,,,,,,,,d,orange,5d74fcd6515c8b0001ed0c30,2021-09-27_12h50.31.507,forced_choiceRT_color,2021.2.3,Win32,59.68367651,,,,,,,,7,Ontime,short,d,1,1.9681,1,3,7,0,1,,,,,
,1.82,,,,,,,,,k,purple,5d74fcd6515c8b0001ed0c30,2021-09-27_12h50.31.507,forced_choiceRT_color,2021.2.3,Win32,59.68367651,,,,,,,,7,Slow,short,j,0,2.4451,2,0,8,3,1,,,,,
,1.01,,,,,,,,,k,purple,5d74fcd6515c8b0001ed0c30,2021-09-27_12h50.31.507,forced_choiceRT_color,2021.2.3,Win32,59.68367651,,,,,,,,7,Ontime,short,k,1,1.973,2,1,9,3,1,,,,,
,1.62,,,,,,,,,f,blue,5d74fcd6515c8b0001ed0c30,2021-09-27_12h50.31.507,forced_choiceRT_color,2021.2.3,Win32,59.68367651,,,,,,,,7,Slow,short,f,1,2.23,2,2,10,1,1,,,,,
,0.82,,,,,,,,,j,red,5d74fcd6515c8b0001ed0c30,2021-09-27_12h50.31.507,forced_choiceRT_color,2021.2.3,Win32,59.68367651,,,,,,,,7,Fast,short,j,1,1.8537,2,3,11,2,1,,,,,
,1.25,,,,,,,,,f,blue,5d74fcd6515c8b0001ed0c30,2021-09-27_12h50.31.507,forced_choiceRT_color,2021.2.3,Win32,59.68367651,,,,,,,,7,Ontime,short,f,1,1.9887,3,0,12,1,1,,,,,
,0.02,,,,,,,,,k,purple,5d74fcd6515c8b0001ed0c30,2021-09-27_12h50.31.507,forced_choiceRT_color,2021.2.3,Win32,59.68367651,,,,,,,,7,Ontime,short,k,1,2.0572,3,1,13,3,1,,,,,
,0.29,,,,,,,,,d,orange,5d74fcd6515c8b0001ed0c30,2021-09-27_12h50.31.507,forced_choiceRT_color,2021.2.3,Win32,59.68367651,,,,,,,,7,Ontime,short,d,1,1.9873,3,2,14,0,1,,,,,
,1.62,,,,,,,,,j,red,5d74fcd6515c8b0001ed0c30,2021-09-27_12h50.31.507,forced_choiceRT_color,2021.2.3,Win32,59.68367651,,,,,,,,7,Slow,short,j,1,2.3549,3,3,15,2,1,,,,,
,1.31,,,,,,,,,d,orange,5d74fcd6515c8b0001ed0c30,2021-09-27_12h50.31.507,forced_choiceRT_color,2021.2.3,Win32,59.68367651,,,,,,,,7,Slow,short,f,0,2.1637,4,0,16,0,1,,,,,
,1.08,,,,,,,,,d,orange,5d74fcd6515c8b0001ed0c30,2021-09-27_12h50.31.507,forced_choiceRT_color,2021.2.3,Win32,59.68367651,,,,,,,,7,Slow,short,d,1,2.1381,4,1,17,0,1,,,,,
,1.98,,,,,,,,,d,orange,5d74fcd6515c8b0001ed0c30,2021-09-27_12h50.31.507,forced_choiceRT_color,2021.2.3,Win32,59.68367651,,,,,,,,7,Ontime,short,d,1,1.9329,4,2,18,0,1,,,,,
,1.28,,,,,,,,,f,blue,5d74fcd6515c8b0001ed0c30,2021-09-27_12h50.31.507,forced_choiceRT_color,2021.2.3,Win32,59.68367651,,,,,,,,7,Slow,short,f,1,2.1245,4,3,19,1,1,,,,,
,0.93,,,,,,,,,k,purple,5d74fcd6515c8b0001ed0c30,2021-09-27_12h50.31.507,forced_choiceRT_color,2021.2.3,Win32,59.68367651,,,,,,,,7,Ontime,short,k,1,1.9347,5,0,20,3,1,,,,,
,0.33,,,,,,,,,f,blue,5d74fcd6515c8b0001ed0c30,2021-09-27_12h50.31.507,forced_choiceRT_color,2021.2.3,Win32,59.68367651,,,,,,,,7,Fast,short,f,1,1.8121,5,1,21,1,1,,,,,
,1.2,,,,,,,,,f,blue,5d74fcd6515c8b0001ed0c30,2021-09-27_12h50.31.507,forced_choiceRT_color,2021.2.3,Win32,59.68367651,,,,,,,,7,Ontime,short,f,1,1.9323,5,2,22,1,1,,,,,
,0.7,,,,,,,,,k,purple,5d74fcd6515c8b0001ed0c30,2021-09-27_12h50.31.507,forced_choiceRT_color,2021.2.3,Win32,59.68367651,,,,,,,,7,Ontime,short,k,1,1.9735,5,3,23,3,1,,,,,
,0.22,,,,,,,,,j,red,5d74fcd6515c8b0001ed0c30,2021-09-27_12h50.31.507,forced_choiceRT_color,2021.2.3,Win32,59.68367651,,,,,,,,7,Ontime,short,j,1,1.9994,6,0,24,2,1,,,,,
,1.27,,,,,,,,,k,purple,5d74fcd6515c8b0001ed0c30,2021-09-27_12h50.31.507,forced_choiceRT_color,2021.2.3,Win32,59.68367651,,,,,,,,7,Slow,short,k,1,2.2663,6,1,25,3,1,,,,,
,1.27,,,,,,,,,d,orange,5d74fcd6515c8b0001ed0c30,2021-09-27_12h50.31.507,forced_choiceRT_color,2021.2.3,Win32,59.68367651,,,,,,,,7,Slow,short,d,1,2.2126,6,2,26,0,1,,,,,
,1.46,,,,,,,,,j,red,5d74fcd6515c8b0001ed0c30,2021-09-27_12h50.31.507,forced_choiceRT_color,2021.2.3,Win32,59.68367651,,,,,,,,7,Ontime,short,f,0,2.0214,6,3,27,2,1,,,,,
,0.76,,,,,,,,,f,blue,5d74fcd6515c8b0001ed0c30,2021-09-27_12h50.31.507,forced_choiceRT_color,2021.2.3,Win32,59.68367651,,,,,,,,7,Ontime,short,f,1,1.9958,7,0,28,1,1,,,,,
,1.94,,,,,,,,,j,red,5d74fcd6515c8b0001ed0c30,2021-09-27_12h50.31.507,forced_choiceRT_color,2021.2.3,Win32,59.68367651,,,,,,,,7,Slow,short,f,0,2.2512,7,1,29,2,1,,,,,
,1.41,,,,,,,,,k,purple,5d74fcd6515c8b0001ed0c30,2021-09-27_12h50.31.507,forced_choiceRT_color,2021.2.3,Win32,59.68367651,,,,,,,,7,Ontime,short,k,1,2.092,7,2,30,3,1,,,,,
,1.49,,,,,,,,,j,red,5d74fcd6515c8b0001ed0c30,2021-09-27_12h50.31.507,forced_choiceRT_color,2021.2.3,Win32,59.68367651,,,,,,,,7,Ontime,short,j,1,2.0426,7,3,31,2,1,,,,,
,0.62,,,,,,,,,j,red,5d74fcd6515c8b0001ed0c30,2021-09-27_12h50.31.507,forced_choiceRT_color,2021.2.3,Win32,59.68367651,,,,,,,,7,Ontime,short,j,1,1.9673,8,0,32,2,1,,,,,
,0.95,,,,,,,,,d,orange,5d74fcd6515c8b0001ed0c30,2021-09-27_12h50.31.507,forced_choiceRT_color,2021.2.3,Win32,59.68367651,,,,,,,,7,Fast,short,d,1,1.7192,8,1,33,0,1,,,,,
,0.14,,,,,,,,,f,blue,5d74fcd6515c8b0001ed0c30,2021-09-27_12h50.31.507,forced_choiceRT_color,2021.2.3,Win32,59.68367651,,,,,,,,7,Ontime,short,f,1,1.998,8,2,34,1,1,,,,,
,0.22,,,,,,,,,j,red,5d74fcd6515c8b0001ed0c30,2021-09-27_12h50.31.507,forced_choiceRT_color,2021.2.3,Win32,59.68367651,,,,,,,,7,Ontime,short,j,1,1.9229,8,3,35,2,1,,,,,
,1.07,,,,,,,,,f,blue,5d74fcd6515c8b0001ed0c30,2021-09-27_12h50.31.507,forced_choiceRT_color,2021.2.3,Win32,59.68367651,,,,,,,,7,Slow,short,f,1,2.352,9,0,36,1,1,,,,,
,1.49,,,,,,,,,j,red,5d74fcd6515c8b0001ed0c30,2021-09-27_12h50.31.507,forced_choiceRT_color,2021.2.3,Win32,59.68367651,,,,,,,,7,Ontime,short,j,1,1.9821,9,1,37,2,1,,,,,
,0.1,,,,,,,,,d,orange,5d74fcd6515c8b0001ed0c30,2021-09-27_12h50.31.507,forced_choiceRT_color,2021.2.3,Win32,59.68367651,,,,,,,,7,Fast,short,d,1,1.8367,9,2,38,0,1,,,,,
,1.34,,,,,,,,,d,orange,5d74fcd6515c8b0001ed0c30,2021-09-27_12h50.31.507,forced_choiceRT_color,2021.2.3,Win32,59.68367651,,,,,,,,7,Ontime,short,d,1,2.0105,9,3,39,0,1,,,,,
,,,,,,,,,,,,5d74fcd6515c8b0001ed0c30,2021-09-27_12h50.31.507,forced_choiceRT_color,2021.2.3,Win32,59.68367651,,,,,,,,,,,,,,,,,,,6,0,6,0,1
,0.21,,,,,,,,,k,purple,5d74fcd6515c8b0001ed0c30,2021-09-27_12h50.31.507,forced_choiceRT_color,2021.2.3,Win32,59.68367651,,,,,,,,8,Fast,short,k,1,1.8392,0,0,0,3,1,,,,,
,1.98,,,,,,,,,j,red,5d74fcd6515c8b0001ed0c30,2021-09-27_12h50.31.507,forced_choiceRT_color,2021.2.3,Win32,59.68367651,,,,,,,,8,Slow,short,j,1,2.4175,0,1,1,2,1,,,,,
,0.1,,,,,,,,,d,orange,5d74fcd6515c8b0001ed0c30,2021-09-27_12h50.31.507,forced_choiceRT_color,2021.2.3,Win32,59.68367651,,,,,,,,8,Fast,short,d,1,1.7979,0,2,2,0,1,,,,,
,1.85,,,,,,,,,f,blue,5d74fcd6515c8b0001ed0c30,2021-09-27_12h50.31.507,forced_choiceRT_color,2021.2.3,Win32,59.68367651,,,,,,,,8,Slow,short,f,1,2.3528,0,3,3,1,1,,,,,
,1.16,,,,,,,,,j,red,5d74fcd6515c8b0001ed0c30,2021-09-27_12h50.31.507,forced_choiceRT_color,2021.2.3,Win32,59.68367651,,,,,,,,8,Ontime,short,j,1,1.9658,1,0,4,2,1,,,,,
,1.39,,,,,,,,,d,orange,5d74fcd6515c8b0001ed0c30,2021-09-27_12h50.31.507,forced_choiceRT_color,2021.2.3,Win32,59.68367651,,,,,,,,8,Ontime,short,d,1,2.0204,1,1,5,0,1,,,,,
,0.78,,,,,,,,,f,blue,5d74fcd6515c8b0001ed0c30,2021-09-27_12h50.31.507,forced_choiceRT_color,2021.2.3,Win32,59.68367651,,,,,,,,8,Fast,short,f,1,1.7795,1,2,6,1,1,,,,,
,1.09,,,,,,,,,k,purple,5d74fcd6515c8b0001ed0c30,2021-09-27_12h50.31.507,forced_choiceRT_color,2021.2.3,Win32,59.68367651,,,,,,,,8,Ontime,short,k,1,1.9015,1,3,7,3,1,,,,,
,1.62,,,,,,,,,d,orange,5d74fcd6515c8b0001ed0c30,2021-09-27_12h50.31.507,forced_choiceRT_color,2021.2.3,Win32,59.68367651,,,,,,,,8,Slow,short,d,1,2.2539,2,0,8,0,1,,,,,
,0.15,,,,,,,,,f,blue,5d74fcd6515c8b0001ed0c30,2021-09-27_12h50.31.507,forced_choiceRT_color,2021.2.3,Win32,59.68367651,,,,,,,,8,Ontime,short,f,1,1.9473,2,1,9,1,1,,,,,
,1.2,,,,,,,,,d,orange,5d74fcd6515c8b0001ed0c30,2021-09-27_12h50.31.507,forced_choiceRT_color,2021.2.3,Win32,59.68367651,,,,,,,,8,Slow,short,d,1,2.1884,2,2,10,0,1,,,,,
,0.36,,,,,,,,,k,purple,5d74fcd6515c8b0001ed0c30,2021-09-27_12h50.31.507,forced_choiceRT_color,2021.2.3,Win32,59.68367651,,,,,,,,8,Ontime,short,k,1,1.9687,2,3,11,3,1,,,,,
,1.64,,,,,,,,,k,purple,5d74fcd6515c8b0001ed0c30,2021-09-27_12h50.31.507,forced_choiceRT_color,2021.2.3,Win32,59.68367651,,,,,,,,8,Slow,short,k,1,2.1032,3,0,12,3,1,,,,,
,0.68,,,,,,,,,k,purple,5d74fcd6515c8b0001ed0c30,2021-09-27_12h50.31.507,forced_choiceRT_color,2021.2.3,Win32,59.68367651,,,,,,,,8,Ontime,short,k,1,2.0045,3,1,13,3,1,,,,,
,1.57,,,,,,,,,d,orange,5d74fcd6515c8b0001ed0c30,2021-09-27_12h50.31.507,forced_choiceRT_color,2021.2.3,Win32,59.68367651,,,,,,,,8,Ontime,short,j,0,1.9694,3,2,14,0,1,,,,,
,0.11,,,,,,,,,k,purple,5d74fcd6515c8b0001ed0c30,2021-09-27_12h50.31.507,forced_choiceRT_color,2021.2.3,Win32,59.68367651,,,,,,,,8,Fast,short,k,1,1.7585,3,3,15,3,1,,,,,
,1.19,,,,,,,,,d,orange,5d74fcd6515c8b0001ed0c30,2021-09-27_12h50.31.507,forced_choiceRT_color,2021.2.3,Win32,59.68367651,,,,,,,,8,Ontime,short,d,1,1.9624,4,0,16,0,1,,,,,
,1.18,,,,,,,,,f,blue,5d74fcd6515c8b0001ed0c30,2021-09-27_12h50.31.507,forced_choiceRT_color,2021.2.3,Win32,59.68367651,,,,,,,,8,Ontime,short,f,1,1.9845,4,1,17,1,1,,,,,
,1.3,,,,,,,,,k,purple,5d74fcd6515c8b0001ed0c30,2021-09-27_12h50.31.507,forced_choiceRT_color,2021.2.3,Win32,59.68367651,,,,,,,,8,Ontime,short,k,1,2.0025,4,2,18,3,1,,,,,
,1.47,,,,,,,,,f,blue,5d74fcd6515c8b0001ed0c30,2021-09-27_12h50.31.507,forced_choiceRT_color,2021.2.3,Win32,59.68367651,,,,,,,,8,Slow,short,f,1,2.1793,4,3,19,1,1,,,,,
,0.64,,,,,,,,,f,blue,5d74fcd6515c8b0001ed0c30,2021-09-27_12h50.31.507,forced_choiceRT_color,2021.2.3,Win32,59.68367651,,,,,,,,8,Ontime,short,f,1,1.926,5,0,20,1,1,,,,,
,0.89,,,,,,,,,d,orange,5d74fcd6515c8b0001ed0c30,2021-09-27_12h50.31.507,forced_choiceRT_color,2021.2.3,Win32,59.68367651,,,,,,,,8,Ontime,short,d,1,1.9194,5,1,21,0,1,,,,,
,1.11,,,,,,,,,f,blue,5d74fcd6515c8b0001ed0c30,2021-09-27_12h50.31.507,forced_choiceRT_color,2021.2.3,Win32,59.68367651,,,,,,,,8,Fast,short,f,1,1.8728,5,2,22,1,1,,,,,
,1.4,,,,,,,,,k,purple,5d74fcd6515c8b0001ed0c30,2021-09-27_12h50.31.507,forced_choiceRT_color,2021.2.3,Win32,59.68367651,,,,,,,,8,Slow,short,k,1,2.2004,5,3,23,3,1,,,,,
,1.38,,,,,,,,,d,orange,5d74fcd6515c8b0001ed0c30,2021-09-27_12h50.31.507,forced_choiceRT_color,2021.2.3,Win32,59.68367651,,,,,,,,8,Ontime,short,d,1,1.9359,6,0,24,0,1,,,,,
,0.58,,,,,,,,,f,blue,5d74fcd6515c8b0001ed0c30,2021-09-27_12h50.31.507,forced_choiceRT_color,2021.2.3,Win32,59.68367651,,,,,,,,8,Fast,short,f,1,1.8237,6,1,25,1,1,,,,,
,0.14,,,,,,,,,j,red,5d74fcd6515c8b0001ed0c30,2021-09-27_12h50.31.507,forced_choiceRT_color,2021.2.3,Win32,59.68367651,,,,,,,,8,Ontime,short,j,1,1.9927,6,2,26,2,1,,,,,
,1.28,,,,,,,,,f,blue,5d74fcd6515c8b0001ed0c30,2021-09-27_12h50.31.507,forced_choiceRT_color,2021.2.3,Win32,59.68367651,,,,,,,,8,Ontime,short,f,1,1.936,6,3,27,1,1,,,,,
,0.35,,,,,,,,,d,orange,5d74fcd6515c8b0001ed0c30,2021-09-27_12h50.31.507,forced_choiceRT_color,2021.2.3,Win32,59.68367651,,,,,,,,8,Ontime,short,d,1,1.9913,7,0,28,0,1,,,,,
,1.85,,,,,,,,,j,red,5d74fcd6515c8b0001ed0c30,2021-09-27_12h50.31.507,forced_choiceRT_color,2021.2.3,Win32,59.68367651,,,,,,,,8,Slow,short,f,0,2.2584,7,1,29,2,1,,,,,
,0.32,,,,,,,,,k,purple,5d74fcd6515c8b0001ed0c30,2021-09-27_12h50.31.507,forced_choiceRT_color,2021.2.3,Win32,59.68367651,,,,,,,,8,Fast,short,k,1,1.8851,7,2,30,3,1,,,,,
,1.04,,,,,,,,,f,blue,5d74fcd6515c8b0001ed0c30,2021-09-27_12h50.31.507,forced_choiceRT_color,2021.2.3,Win32,59.68367651,,,,,,,,8,Ontime,short,f,1,1.9995,7,3,31,1,1,,,,,
,0.4,,,,,,,,,j,red,5d74fcd6515c8b0001ed0c30,2021-09-27_12h50.31.507,forced_choiceRT_color,2021.2.3,Win32,59.68367651,,,,,,,,8,Ontime,short,j,1,2.0037,8,0,32,2,1,,,,,
,0.26,,,,,,,,,j,red,5d74fcd6515c8b0001ed0c30,2021-09-27_12h50.31.507,forced_choiceRT_color,2021.2.3,Win32,59.68367651,,,,,,,,8,Ontime,short,j,1,1.9345,8,1,33,2,1,,,,,
,1.17,,,,,,,,,k,purple,5d74fcd6515c8b0001ed0c30,2021-09-27_12h50.31.507,forced_choiceRT_color,2021.2.3,Win32,59.68367651,,,,,,,,8,Slow,short,k,1,2.1432,8,2,34,3,1,,,,,
,1.36,,,,,,,,,j,red,5d74fcd6515c8b0001ed0c30,2021-09-27_12h50.31.507,forced_choiceRT_color,2021.2.3,Win32,59.68367651,,,,,,,,8,Fast,short,j,1,1.8744,8,3,35,2,1,,,,,
,1.66,,,,,,,,,d,orange,5d74fcd6515c8b0001ed0c30,2021-09-27_12h50.31.507,forced_choiceRT_color,2021.2.3,Win32,59.68367651,,,,,,,,8,Slow,short,f,0,2.421,9,0,36,0,1,,,,,
,0.1,,,,,,,,,j,red,5d74fcd6515c8b0001ed0c30,2021-09-27_12h50.31.507,forced_choiceRT_color,2021.2.3,Win32,59.68367651,,,,,,,,8,Ontime,short,j,1,1.9622,9,1,37,2,1,,,,,
,1.09,,,,,,,,,j,red,5d74fcd6515c8b0001ed0c30,2021-09-27_12h50.31.507,forced_choiceRT_color,2021.2.3,Win32,59.68367651,,,,,,,,8,Fast,short,j,1,1.8244,9,2,38,2,1,,,,,
,1.98,,,,,,,,,j,red,5d74fcd6515c8b0001ed0c30,2021-09-27_12h50.31.507,forced_choiceRT_color,2021.2.3,Win32,59.68367651,,,,,,,,8,Slow,short,j,1,2.5303,9,3,39,2,1,,,,,
,,,,,,,,,,,,5d74fcd6515c8b0001ed0c30,2021-09-27_12h50.31.507,forced_choiceRT_color,2021.2.3,Win32,59.68367651,,,,,,,,,,,,,,,,,,,7,0,7,0,1
,0.8,,,,,,,,,f,blue,5d74fcd6515c8b0001ed0c30,2021-09-27_12h50.31.507,forced_choiceRT_color,2021.2.3,Win32,59.68367651,,,,,,,,9,Fast,short,d,0,1.6588,0,0,0,1,1,,,,,
,0.03,,,,,,,,,d,orange,5d74fcd6515c8b0001ed0c30,2021-09-27_12h50.31.507,forced_choiceRT_color,2021.2.3,Win32,59.68367651,,,,,,,,9,Slow,short,d,1,2.1189,0,1,1,0,1,,,,,
,1.55,,,,,,,,,j,red,5d74fcd6515c8b0001ed0c30,2021-09-27_12h50.31.507,forced_choiceRT_color,2021.2.3,Win32,59.68367651,,,,,,,,9,Ontime,short,j,1,2.0416,0,2,2,2,1,,,,,
,0.92,,,,,,,,,f,blue,5d74fcd6515c8b0001ed0c30,2021-09-27_12h50.31.507,forced_choiceRT_color,2021.2.3,Win32,59.68367651,,,,,,,,9,Fast,short,d,0,1.8517,0,3,3,1,1,,,,,
,1.9,,,,,,,,,k,purple,5d74fcd6515c8b0001ed0c30,2021-09-27_12h50.31.507,forced_choiceRT_color,2021.2.3,Win32,59.68367651,,,,,,,,9,Ontime,short,f,0,2.0702,1,0,4,3,1,,,,,
,1.42,,,,,,,,,j,red,5d74fcd6515c8b0001ed0c30,2021-09-27_12h50.31.507,forced_choiceRT_color,2021.2.3,Win32,59.68367651,,,,,,,,9,Ontime,short,j,1,1.9845,1,1,5,2,1,,,,,
,0.1,,,,,,,,,k,purple,5d74fcd6515c8b0001ed0c30,2021-09-27_12h50.31.507,forced_choiceRT_color,2021.2.3,Win32,59.68367651,,,,,,,,9,Fast,short,k,1,1.8909,1,2,6,3,1,,,,,
,0.52,,,,,,,,,k,purple,5d74fcd6515c8b0001ed0c30,2021-09-27_12h50.31.507,forced_choiceRT_color,2021.2.3,Win32,59.68367651,,,,,,,,9,Ontime,short,k,1,1.9049,1,3,7,3,1,,,,,
,0.63,,,,,,,,,f,blue,5d74fcd6515c8b0001ed0c30,2021-09-27_12h50.31.507,forced_choiceRT_color,2021.2.3,Win32,59.68367651,,,,,,,,9,Fast,short,f,1,1.8366,2,0,8,1,1,,,,,
,1.55,,,,,,,,,k,purple,5d74fcd6515c8b0001ed0c30,2021-09-27_12h50.31.507,forced_choiceRT_color,2021.2.3,Win32,59.68367651,,,,,,,,9,Ontime,short,j,0,2.063,2,1,9,3,1,,,,,
,0.15,,,,,,,,,j,red,5d74fcd6515c8b0001ed0c30,2021-09-27_12h50.31.507,forced_choiceRT_color,2021.2.3,Win32,59.68367651,,,,,,,,9,Ontime,short,j,1,2.0457,2,2,10,2,1,,,,,
,1.4,,,,,,,,,j,red,5d74fcd6515c8b0001ed0c30,2021-09-27_12h50.31.507,forced_choiceRT_color,2021.2.3,Win32,59.68367651,,,,,,,,9,Slow,short,j,1,2.2106,2,3,11,2,1,,,,,
,1.33,,,,,,,,,d,orange,5d74fcd6515c8b0001ed0c30,2021-09-27_12h50.31.507,forced_choiceRT_color,2021.2.3,Win32,59.68367651,,,,,,,,9,Ontime,short,d,1,2.0415,3,0,12,0,1,,,,,
,1.4,,,,,,,,,f,blue,5d74fcd6515c8b0001ed0c30,2021-09-27_12h50.31.507,forced_choiceRT_color,2021.2.3,Win32,59.68367651,,,,,,,,9,Ontime,short,f,1,2.0977,3,1,13,1,1,,,,,
,1.9,,,,,,,,,d,orange,5d74fcd6515c8b0001ed0c30,2021-09-27_12h50.31.507,forced_choiceRT_color,2021.2.3,Win32,59.68367651,,,,,,,,9,Slow,short,d,1,2.5344,3,2,14,0,1,,,,,
,0.68,,,,,,,,,f,blue,5d74fcd6515c8b0001ed0c30,2021-09-27_12h50.31.507,forced_choiceRT_color,2021.2.3,Win32,59.68367651,,,,,,,,9,Ontime,short,f,1,1.9776,3,3,15,1,1,,,,,
,1.4,,,,,,,,,f,blue,5d74fcd6515c8b0001ed0c30,2021-09-27_12h50.31.507,forced_choiceRT_color,2021.2.3,Win32,59.68367651,,,,,,,,9,Slow,short,f,1,2.2678,4,0,16,1,1,,,,,
,0,,,,,,,,,j,red,5d74fcd6515c8b0001ed0c30,2021-09-27_12h50.31.507,forced_choiceRT_color,2021.2.3,Win32,59.68367651,,,,,,,,9,Ontime,short,j,1,1.9642,4,1,17,2,1,,,,,
,0.58,,,,,,,,,k,purple,5d74fcd6515c8b0001ed0c30,2021-09-27_12h50.31.507,forced_choiceRT_color,2021.2.3,Win32,59.68367651,,,,,,,,9,Ontime,short,k,1,1.9695,4,2,18,3,1,,,,,
,0.73,,,,,,,,,d,orange,5d74fcd6515c8b0001ed0c30,2021-09-27_12h50.31.507,forced_choiceRT_color,2021.2.3,Win32,59.68367651,,,,,,,,9,Ontime,short,d,1,1.9015,4,3,19,0,1,,,,,
,1.17,,,,,,,,,d,orange,5d74fcd6515c8b0001ed0c30,2021-09-27_12h50.31.507,forced_choiceRT_color,2021.2.3,Win32,59.68367651,,,,,,,,9,Slow,short,d,1,2.3027,5,0,20,0,1,,,,,
,1.91,,,,,,,,,d,orange,5d74fcd6515c8b0001ed0c30,2021-09-27_12h50.31.507,forced_choiceRT_color,2021.2.3,Win32,59.68367651,,,,,,,,9,Slow,short,d,1,2.4364,5,1,21,0,1,,,,,
,0.1,,,,,,,,,j,red,5d74fcd6515c8b0001ed0c30,2021-09-27_12h50.31.507,forced_choiceRT_color,2021.2.3,Win32,59.68367651,,,,,,,,9,Ontime,short,j,1,1.9695,5,2,22,2,1,,,,,
,1.18,,,,,,,,,d,orange,5d74fcd6515c8b0001ed0c30,2021-09-27_12h50.31.507,forced_choiceRT_color,2021.2.3,Win32,59.68367651,,,,,,,,9,Slow,short,d,1,2.2423,5,3,23,0,1,,,,,
,0.62,,,,,,,,,j,red,5d74fcd6515c8b0001ed0c30,2021-09-27_12h50.31.507,forced_choiceRT_color,2021.2.3,Win32,59.68367651,,,,,,,,9,Fast,short,j,1,1.8468,6,0,24,2,1,,,,,
,1.09,,,,,,,,,k,purple,5d74fcd6515c8b0001ed0c30,2021-09-27_12h50.31.507,forced_choiceRT_color,2021.2.3,Win32,59.68367651,,,,,,,,9,Ontime,short,k,1,1.9694,6,1,25,3,1,,,,,
,1.49,,,,,,,,,j,red,5d74fcd6515c8b0001ed0c30,2021-09-27_12h50.31.507,forced_choiceRT_color,2021.2.3,Win32,59.68367651,,,,,,,,9,Fast,short,k,0,1.7832,6,2,26,2,1,,,,,
,0.13,,,,,,,,,k,purple,5d74fcd6515c8b0001ed0c30,2021-09-27_12h50.31.507,forced_choiceRT_color,2021.2.3,Win32,59.68367651,,,,,,,,9,Ontime,short,k,1,1.9219,6,3,27,3,1,,,,,
,0.39,,,,,,,,,d,orange,5d74fcd6515c8b0001ed0c30,2021-09-27_12h50.31.507,forced_choiceRT_color,2021.2.3,Win32,59.68367651,,,,,,,,9,Ontime,short,d,1,2.0055,7,0,28,0,1,,,,,
,0.67,,,,,,,,,f,blue,5d74fcd6515c8b0001ed0c30,2021-09-27_12h50.31.507,forced_choiceRT_color,2021.2.3,Win32,59.68367651,,,,,,,,9,Ontime,short,f,1,1.9204,7,1,29,1,1,,,,,
,0.34,,,,,,,,,f,blue,5d74fcd6515c8b0001ed0c30,2021-09-27_12h50.31.507,forced_choiceRT_color,2021.2.3,Win32,59.68367651,,,,,,,,9,Ontime,short,f,1,1.9753,7,2,30,1,1,,,,,
,1.59,,,,,,,,,d,orange,5d74fcd6515c8b0001ed0c30,2021-09-27_12h50.31.507,forced_choiceRT_color,2021.2.3,Win32,59.68367651,,,,,,,,9,Ontime,short,d,1,2.0207,7,3,31,0,1,,,,,
,1.59,,,,,,,,,k,purple,5d74fcd6515c8b0001ed0c30,2021-09-27_12h50.31.507,forced_choiceRT_color,2021.2.3,Win32,59.68367651,,,,,,,,9,Slow,short,k,1,2.1403,8,0,32,3,1,,,,,
,1.48,,,,,,,,,f,blue,5d74fcd6515c8b0001ed0c30,2021-09-27_12h50.31.507,forced_choiceRT_color,2021.2.3,Win32,59.68367651,,,,,,,,9,Slow,short,f,1,2.1656,8,1,33,1,1,,,,,
,0.75,,,,,,,,,j,red,5d74fcd6515c8b0001ed0c30,2021-09-27_12h50.31.507,forced_choiceRT_color,2021.2.3,Win32,59.68367651,,,,,,,,9,Ontime,short,j,1,2.0701,8,2,34,2,1,,,,,
,0.25,,,,,,,,,k,purple,5d74fcd6515c8b0001ed0c30,2021-09-27_12h50.31.507,forced_choiceRT_color,2021.2.3,Win32,59.68367651,,,,,,,,9,Ontime,short,k,1,1.9692,8,3,35,3,1,,,,,
,1.74,,,,,,,,,k,purple,5d74fcd6515c8b0001ed0c30,2021-09-27_12h50.31.507,forced_choiceRT_color,2021.2.3,Win32,59.68367651,,,,,,,,9,Slow,short,k,1,2.4344,9,0,36,3,1,,,,,
,1.61,,,,,,,,,f,blue,5d74fcd6515c8b0001ed0c30,2021-09-27_12h50.31.507,forced_choiceRT_color,2021.2.3,Win32,59.68367651,,,,,,,,9,Slow,short,f,1,2.325,9,1,37,1,1,,,,,
,1.63,,,,,,,,,j,red,5d74fcd6515c8b0001ed0c30,2021-09-27_12h50.31.507,forced_choiceRT_color,2021.2.3,Win32,59.68367651,,,,,,,,9,Slow,short,j,1,2.4909,9,2,38,2,1,,,,,
,1.51,,,,,,,,,d,orange,5d74fcd6515c8b0001ed0c30,2021-09-27_12h50.31.507,forced_choiceRT_color,2021.2.3,Win32,59.68367651,,,,,,,,9,Ontime,short,d,1,2.0986,9,3,39,0,1,,,,,
,,,,,,,,,,,,5d74fcd6515c8b0001ed0c30,2021-09-27_12h50.31.507,forced_choiceRT_color,2021.2.3,Win32,59.68367651,,,,,,,,,,,,,,,,,,,8,0,8,0,1
,0.17,,,,,,,,,f,blue,5d74fcd6515c8b0001ed0c30,2021-09-27_12h50.31.507,forced_choiceRT_color,2021.2.3,Win32,59.68367651,,,,,,,,10,Fast,short,f,1,1.8775,0,0,0,1,1,,,,,
,1.18,,,,,,,,,k,purple,5d74fcd6515c8b0001ed0c30,2021-09-27_12h50.31.507,forced_choiceRT_color,2021.2.3,Win32,59.68367651,,,,,,,,10,Fast,short,k,1,1.8751,0,1,1,3,1,,,,,
,0.35,,,,,,,,,d,orange,5d74fcd6515c8b0001ed0c30,2021-09-27_12h50.31.507,forced_choiceRT_color,2021.2.3,Win32,59.68367651,,,,,,,,10,Ontime,short,d,1,1.9657,0,2,2,0,1,,,,,
,0.46,,,,,,,,,f,blue,5d74fcd6515c8b0001ed0c30,2021-09-27_12h50.31.507,forced_choiceRT_color,2021.2.3,Win32,59.68367651,,,,,,,,10,Fast,short,f,1,1.7912,0,3,3,1,1,,,,,
,1.31,,,,,,,,,f,blue,5d74fcd6515c8b0001ed0c30,2021-09-27_12h50.31.507,forced_choiceRT_color,2021.2.3,Win32,59.68367651,,,,,,,,10,Ontime,short,f,1,1.9695,1,0,4,1,1,,,,,
,1.97,,,,,,,,,j,red,5d74fcd6515c8b0001ed0c30,2021-09-27_12h50.31.507,forced_choiceRT_color,2021.2.3,Win32,59.68367651,,,,,,,,10,Slow,short,j,1,2.4927,1,1,5,2,1,,,,,
,1.86,,,,,,,,,d,orange,5d74fcd6515c8b0001ed0c30,2021-09-27_12h50.31.507,forced_choiceRT_color,2021.2.3,Win32,59.68367651,,,,,,,,10,Slow,short,d,1,2.855,1,2,6,0,1,,,,,
,1.88,,,,,,,,,k,purple,5d74fcd6515c8b0001ed0c30,2021-09-27_12h50.31.507,forced_choiceRT_color,2021.2.3,Win32,59.68367651,,,,,,,,10,Slow,short,k,1,2.5317,1,3,7,3,1,,,,,
,0.8,,,,,,,,,f,blue,5d74fcd6515c8b0001ed0c30,2021-09-27_12h50.31.507,forced_choiceRT_color,2021.2.3,Win32,59.68367651,,,,,,,,10,Ontime,short,f,1,2.0274,2,0,8,1,1,,,,,
,0.71,,,,,,,,,d,orange,5d74fcd6515c8b0001ed0c30,2021-09-27_12h50.31.507,forced_choiceRT_color,2021.2.3,Win32,59.68367651,,,,,,,,10,Fast,short,d,1,1.8872,2,1,9,0,1,,,,,
,1.8,,,,,,,,,d,orange,5d74fcd6515c8b0001ed0c30,2021-09-27_12h50.31.507,forced_choiceRT_color,2021.2.3,Win32,59.68367651,,,,,,,,10,Slow,short,d,1,2.2933,2,2,10,0,1,,,,,
,1.65,,,,,,,,,k,purple,5d74fcd6515c8b0001ed0c30,2021-09-27_12h50.31.507,forced_choiceRT_color,2021.2.3,Win32,59.68367651,,,,,,,,10,Slow,short,k,1,2.2475,2,3,11,3,1,,,,,
,1.81,,,,,,,,,j,red,5d74fcd6515c8b0001ed0c30,2021-09-27_12h50.31.507,forced_choiceRT_color,2021.2.3,Win32,59.68367651,,,,,,,,10,Slow,short,j,1,2.3178,3,0,12,2,1,,,,,
,0.99,,,,,,,,,j,red,5d74fcd6515c8b0001ed0c30,2021-09-27_12h50.31.507,forced_choiceRT_color,2021.2.3,Win32,59.68367651,,,,,,,,10,Fast,short,j,1,1.8656,3,1,13,2,1,,,,,
,1.45,,,,,,,,,k,purple,5d74fcd6515c8b0001ed0c30,2021-09-27_12h50.31.507,forced_choiceRT_color,2021.2.3,Win32,59.68367651,,,,,,,,10,Ontime,short,k,1,2.0158,3,2,14,3,1,,,,,
,0,,,,,,,,,k,purple,5d74fcd6515c8b0001ed0c30,2021-09-27_12h50.31.507,forced_choiceRT_color,2021.2.3,Win32,59.68367651,,,,,,,,10,Fast,short,k,1,1.8074,3,3,15,3,1,,,,,
,1.19,,,,,,,,,k,purple,5d74fcd6515c8b0001ed0c30,2021-09-27_12h50.31.507,forced_choiceRT_color,2021.2.3,Win32,59.68367651,,,,,,,,10,Fast,short,k,1,1.6656,4,0,16,3,1,,,,,
,0.71,,,,,,,,,d,orange,5d74fcd6515c8b0001ed0c30,2021-09-27_12h50.31.507,forced_choiceRT_color,2021.2.3,Win32,59.68367651,,,,,,,,10,Fast,short,d,1,1.8543,4,1,17,0,1,,,,,
,1.86,,,,,,,,,j,red,5d74fcd6515c8b0001ed0c30,2021-09-27_12h50.31.507,forced_choiceRT_color,2021.2.3,Win32,59.68367651,,,,,,,,10,Slow,short,j,1,2.2747,4,2,18,2,1,,,,,
,1.36,,,,,,,,,k,purple,5d74fcd6515c8b0001ed0c30,2021-09-27_12h50.31.507,forced_choiceRT_color,2021.2.3,Win32,59.68367651,,,,,,,,10,Slow,short,k,1,2.1505,4,3,19,3,1,,,,,
,0.11,,,,,,,,,d,orange,5d74fcd6515c8b0001ed0c30,2021-09-27_12h50.31.507,forced_choiceRT_color,2021.2.3,Win32,59.68367651,,,,,,,,10,Fast,short,d,1,1.8846,5,0,20,0,1,,,,,
,1.64,,,,,,,,,k,purple,5d74fcd6515c8b0001ed0c30,2021-09-27_12h50.31.507,forced_choiceRT_color,2021.2.3,Win32,59.68367651,,,,,,,,10,Slow,short,k,1,2.2711,5,1,21,3,1,,,,,
,0.6,,,,,,,,,j,red,5d74fcd6515c8b0001ed0c30,2021-09-27_12h50.31.507,forced_choiceRT_color,2021.2.3,Win32,59.68367651,,,,,,,,10,Ontime,short,j,1,1.9845,5,2,22,2,1,,,,,
,1.04,,,,,,,,,f,blue,5d74fcd6515c8b0001ed0c30,2021-09-27_12h50.31.507,forced_choiceRT_color,2021.2.3,Win32,59.68367651,,,,,,,,10,Slow,short,f,1,2.1304,5,3,23,1,1,,,,,
,0.27,,,,,,,,,d,orange,5d74fcd6515c8b0001ed0c30,2021-09-27_12h50.31.507,forced_choiceRT_color,2021.2.3,Win32,59.68367651,,,,,,,,10,Ontime,short,d,1,1.9734,6,0,24,0,1,,,,,
,1.42,,,,,,,,,j,red,5d74fcd6515c8b0001ed0c30,2021-09-27_12h50.31.507,forced_choiceRT_color,2021.2.3,Win32,59.68367651,,,,,,,,10,Ontime,short,j,1,2.09,6,1,25,2,1,,,,,
,1.85,,,,,,,,,d,orange,5d74fcd6515c8b0001ed0c30,2021-09-27_12h50.31.507,forced_choiceRT_color,2021.2.3,Win32,59.68367651,,,,,,,,10,Slow,short,f,0,2.5078,6,2,26,0,1,,,,,
,0.57,,,,,,,,,f,blue,5d74fcd6515c8b0001ed0c30,2021-09-27_12h50.31.507,forced_choiceRT_color,2021.2.3,Win32,59.68367651,,,,,,,,10,Ontime,short,f,1,1.9673,6,3,27,1,1,,,,,
,0,,,,,,,,,d,orange,5d74fcd6515c8b0001ed0c30,2021-09-27_12h50.31.507,forced_choiceRT_color,2021.2.3,Win32,59.68367651,,,,,,,,10,Ontime,short,d,1,2.018,7,0,28,0,1,,,,,
,1.43,,,,,,,,,f,blue,5d74fcd6515c8b0001ed0c30,2021-09-27_12h50.31.507,forced_choiceRT_color,2021.2.3,Win32,59.68367651,,,,,,,,10,Slow,short,f,1,2.2944,7,1,29,1,1,,,,,
,0.53,,,,,,,,,j,red,5d74fcd6515c8b0001ed0c30,2021-09-27_12h50.31.507,forced_choiceRT_color,2021.2.3,Win32,59.68367651,,,,,,,,10,Ontime,short,j,1,2.0353,7,2,30,2,1,,,,,
,1.39,,,,,,,,,j,red,5d74fcd6515c8b0001ed0c30,2021-09-27_12h50.31.507,forced_choiceRT_color,2021.2.3,Win32,59.68367651,,,,,,,,10,Fast,short,j,1,1.7839,7,3,31,2,1,,,,,
,1.41,,,,,,,,,d,orange,5d74fcd6515c8b0001ed0c30,2021-09-27_12h50.31.507,forced_choiceRT_color,2021.2.3,Win32,59.68367651,,,,,,,,10,Ontime,short,d,1,2.0613,8,0,32,0,1,,,,,
,0.25,,,,,,,,,j,red,5d74fcd6515c8b0001ed0c30,2021-09-27_12h50.31.507,forced_choiceRT_color,2021.2.3,Win32,59.68367651,,,,,,,,10,Ontime,short,j,1,1.9624,8,1,33,2,1,,,,,
,1.85,,,,,,,,,f,blue,5d74fcd6515c8b0001ed0c30,2021-09-27_12h50.31.507,forced_choiceRT_color,2021.2.3,Win32,59.68367651,,,,,,,,10,Slow,short,f,1,2.4848,8,2,34,1,1,,,,,
,0.06,,,,,,,,,j,red,5d74fcd6515c8b0001ed0c30,2021-09-27_12h50.31.507,forced_choiceRT_color,2021.2.3,Win32,59.68367651,,,,,,,,10,Fast,short,j,1,1.886,8,3,35,2,1,,,,,
,1.73,,,,,,,,,f,blue,5d74fcd6515c8b0001ed0c30,2021-09-27_12h50.31.507,forced_choiceRT_color,2021.2.3,Win32,59.68367651,,,,,,,,10,Slow,short,f,1,2.5822,9,0,36,1,1,,,,,
,1.01,,,,,,,,,f,blue,5d74fcd6515c8b0001ed0c30,2021-09-27_12h50.31.507,forced_choiceRT_color,2021.2.3,Win32,59.68367651,,,,,,,,10,Ontime,short,f,1,1.9725,9,1,37,1,1,,,,,
,1.05,,,,,,,,,k,purple,5d74fcd6515c8b0001ed0c30,2021-09-27_12h50.31.507,forced_choiceRT_color,2021.2.3,Win32,59.68367651,,,,,,,,10,Ontime,short,k,1,1.9149,9,2,38,3,1,,,,,
,0.86,,,,,,,,,k,purple,5d74fcd6515c8b0001ed0c30,2021-09-27_12h50.31.507,forced_choiceRT_color,2021.2.3,Win32,59.68367651,,,,,,,,10,Ontime,short,k,1,1.987,9,3,39,3,1,,,,,
,,,,,,,,,,,,5d74fcd6515c8b0001ed0c30,2021-09-27_12h50.31.507,forced_choiceRT_color,2021.2.3,Win32,59.68367651,,,,,,,,,,,,,,,,,,,9,0,9,0,1
