IP_Addresss,target_onset,trial_resp_sp.keys,trial_resp_sp.corr,trial_resp_sp.rt,trials_train_loop.thisRepN,trials_train_loop.thisTrialN,trials_train_loop.thisN,trials_train_loop.thisIndex,trials_train_loop.ran,correct_key,color,participant,date,expName,psychopyVersion,OS,frameRate,trial_resp_timing.keys,trial_resp_timing.rt,trials_train_timing.thisRepN,trials_train_timing.thisTrialN,trials_train_timing.thisN,trials_train_timing.thisIndex,trials_train_timing.ran,block_id,ontime,feedback_cond,forcedRT_resp.keys,forcedRT_resp.corr,forcedRT_resp.rt,trials.thisRepN,trials.thisTrialN,trials.thisN,trials.thisIndex,trials.ran,blocks.thisRepN,blocks.thisTrialN,blocks.thisN,blocks.thisIndex,blocks.ran
50.89.248.67,0,j,1,1.1308,0,0,0,2,1,j,red,5da880819413e4001505d6b4,2021-11-01_13h28.51.639,forced_choiceRT_color,2021.2.3,Win32,60.0024001,,,,,,,,,,,,,,,,,,,,,,,
,0,f,1,1.015,0,1,1,1,1,f,blue,5da880819413e4001505d6b4,2021-11-01_13h28.51.639,forced_choiceRT_color,2021.2.3,Win32,60.0024001,,,,,,,,,,,,,,,,,,,,,,,
,0,k,1,0.6456,0,2,2,3,1,k,purple,5da880819413e4001505d6b4,2021-11-01_13h28.51.639,forced_choiceRT_color,2021.2.3,Win32,60.0024001,,,,,,,,,,,,,,,,,,,,,,,
,0,k,1,0.4996,0,3,3,3,1,k,purple,5da880819413e4001505d6b4,2021-11-01_13h28.51.639,forced_choiceRT_color,2021.2.3,Win32,60.0024001,,,,,,,,,,,,,,,,,,,,,,,
,0,j,1,0.707,1,0,4,2,1,j,red,5da880819413e4001505d6b4,2021-11-01_13h28.51.639,forced_choiceRT_color,2021.2.3,Win32,60.0024001,,,,,,,,,,,,,,,,,,,,,,,
,0,f,1,0.947,1,1,5,1,1,f,blue,5da880819413e4001505d6b4,2021-11-01_13h28.51.639,forced_choiceRT_color,2021.2.3,Win32,60.0024001,,,,,,,,,,,,,,,,,,,,,,,
,0,d,1,0.6116,1,2,6,0,1,d,orange,5da880819413e4001505d6b4,2021-11-01_13h28.51.639,forced_choiceRT_color,2021.2.3,Win32,60.0024001,,,,,,,,,,,,,,,,,,,,,,,
,0,f,1,0.5835,1,3,7,1,1,f,blue,5da880819413e4001505d6b4,2021-11-01_13h28.51.639,forced_choiceRT_color,2021.2.3,Win32,60.0024001,,,,,,,,,,,,,,,,,,,,,,,
,0,k,1,0.6245,2,0,8,3,1,k,purple,5da880819413e4001505d6b4,2021-11-01_13h28.51.639,forced_choiceRT_color,2021.2.3,Win32,60.0024001,,,,,,,,,,,,,,,,,,,,,,,
,0,d,0,0.7691,2,1,9,1,1,f,blue,5da880819413e4001505d6b4,2021-11-01_13h28.51.639,forced_choiceRT_color,2021.2.3,Win32,60.0024001,,,,,,,,,,,,,,,,,,,,,,,
,0,k,1,0.516,2,2,10,3,1,k,purple,5da880819413e4001505d6b4,2021-11-01_13h28.51.639,forced_choiceRT_color,2021.2.3,Win32,60.0024001,,,,,,,,,,,,,,,,,,,,,,,
,0,k,1,0.6142,2,3,11,3,1,k,purple,5da880819413e4001505d6b4,2021-11-01_13h28.51.639,forced_choiceRT_color,2021.2.3,Win32,60.0024001,,,,,,,,,,,,,,,,,,,,,,,
,0,d,1,1.0981,3,0,12,0,1,d,orange,5da880819413e4001505d6b4,2021-11-01_13h28.51.639,forced_choiceRT_color,2021.2.3,Win32,60.0024001,,,,,,,,,,,,,,,,,,,,,,,
,0,k,1,0.8689,3,1,13,3,1,k,purple,5da880819413e4001505d6b4,2021-11-01_13h28.51.639,forced_choiceRT_color,2021.2.3,Win32,60.0024001,,,,,,,,,,,,,,,,,,,,,,,
,0,k,1,0.6495,3,2,14,3,1,k,purple,5da880819413e4001505d6b4,2021-11-01_13h28.51.639,forced_choiceRT_color,2021.2.3,Win32,60.0024001,,,,,,,,,,,,,,,,,,,,,,,
,0,j,1,0.8172,3,3,15,2,1,j,red,5da880819413e4001505d6b4,2021-11-01_13h28.51.639,forced_choiceRT_color,2021.2.3,Win32,60.0024001,,,,,,,,,,,,,,,,,,,,,,,
,0,d,0,0.6841,4,0,16,1,1,f,blue,5da880819413e4001505d6b4,2021-11-01_13h28.51.639,forced_choiceRT_color,2021.2.3,Win32,60.0024001,,,,,,,,,,,,,,,,,,,,,,,
,0,d,0,0.5655,4,1,17,1,1,f,blue,5da880819413e4001505d6b4,2021-11-01_13h28.51.639,forced_choiceRT_color,2021.2.3,Win32,60.0024001,,,,,,,,,,,,,,,,,,,,,,,
,0,d,1,1.3364,4,2,18,0,1,d,orange,5da880819413e4001505d6b4,2021-11-01_13h28.51.639,forced_choiceRT_color,2021.2.3,Win32,60.0024001,,,,,,,,,,,,,,,,,,,,,,,
,0,f,1,0.6623,4,3,19,1,1,f,blue,5da880819413e4001505d6b4,2021-11-01_13h28.51.639,forced_choiceRT_color,2021.2.3,Win32,60.0024001,,,,,,,,,,,,,,,,,,,,,,,
,0,d,1,0.6395,5,0,20,0,1,d,orange,5da880819413e4001505d6b4,2021-11-01_13h28.51.639,forced_choiceRT_color,2021.2.3,Win32,60.0024001,,,,,,,,,,,,,,,,,,,,,,,
,0,j,1,0.6277,5,1,21,2,1,j,red,5da880819413e4001505d6b4,2021-11-01_13h28.51.639,forced_choiceRT_color,2021.2.3,Win32,60.0024001,,,,,,,,,,,,,,,,,,,,,,,
,0,k,1,0.5511,5,2,22,3,1,k,purple,5da880819413e4001505d6b4,2021-11-01_13h28.51.639,forced_choiceRT_color,2021.2.3,Win32,60.0024001,,,,,,,,,,,,,,,,,,,,,,,
,0,j,1,0.6621,5,3,23,2,1,j,red,5da880819413e4001505d6b4,2021-11-01_13h28.51.639,forced_choiceRT_color,2021.2.3,Win32,60.0024001,,,,,,,,,,,,,,,,,,,,,,,
,0,j,1,0.564,6,0,24,2,1,j,red,5da880819413e4001505d6b4,2021-11-01_13h28.51.639,forced_choiceRT_color,2021.2.3,Win32,60.0024001,,,,,,,,,,,,,,,,,,,,,,,
,0,k,1,0.4733,6,1,25,3,1,k,purple,5da880819413e4001505d6b4,2021-11-01_13h28.51.639,forced_choiceRT_color,2021.2.3,Win32,60.0024001,,,,,,,,,,,,,,,,,,,,,,,
,0,d,1,0.6106,6,2,26,0,1,d,orange,5da880819413e4001505d6b4,2021-11-01_13h28.51.639,forced_choiceRT_color,2021.2.3,Win32,60.0024001,,,,,,,,,,,,,,,,,,,,,,,
,0,d,0,0.4271,6,3,27,1,1,f,blue,5da880819413e4001505d6b4,2021-11-01_13h28.51.639,forced_choiceRT_color,2021.2.3,Win32,60.0024001,,,,,,,,,,,,,,,,,,,,,,,
,0,f,1,1.0199,7,0,28,1,1,f,blue,5da880819413e4001505d6b4,2021-11-01_13h28.51.639,forced_choiceRT_color,2021.2.3,Win32,60.0024001,,,,,,,,,,,,,,,,,,,,,,,
,0,f,1,0.4725,7,1,29,1,1,f,blue,5da880819413e4001505d6b4,2021-11-01_13h28.51.639,forced_choiceRT_color,2021.2.3,Win32,60.0024001,,,,,,,,,,,,,,,,,,,,,,,
,0,d,1,0.6515,7,2,30,0,1,d,orange,5da880819413e4001505d6b4,2021-11-01_13h28.51.639,forced_choiceRT_color,2021.2.3,Win32,60.0024001,,,,,,,,,,,,,,,,,,,,,,,
,0,j,1,0.5885,7,3,31,2,1,j,red,5da880819413e4001505d6b4,2021-11-01_13h28.51.639,forced_choiceRT_color,2021.2.3,Win32,60.0024001,,,,,,,,,,,,,,,,,,,,,,,
,0,d,1,0.6585,8,0,32,0,1,d,orange,5da880819413e4001505d6b4,2021-11-01_13h28.51.639,forced_choiceRT_color,2021.2.3,Win32,60.0024001,,,,,,,,,,,,,,,,,,,,,,,
,0,d,0,0.6058,8,1,33,1,1,f,blue,5da880819413e4001505d6b4,2021-11-01_13h28.51.639,forced_choiceRT_color,2021.2.3,Win32,60.0024001,,,,,,,,,,,,,,,,,,,,,,,
,0,j,1,0.6561,8,2,34,2,1,j,red,5da880819413e4001505d6b4,2021-11-01_13h28.51.639,forced_choiceRT_color,2021.2.3,Win32,60.0024001,,,,,,,,,,,,,,,,,,,,,,,
,0,d,1,0.6335,8,3,35,0,1,d,orange,5da880819413e4001505d6b4,2021-11-01_13h28.51.639,forced_choiceRT_color,2021.2.3,Win32,60.0024001,,,,,,,,,,,,,,,,,,,,,,,
,0,j,1,0.6294,9,0,36,2,1,j,red,5da880819413e4001505d6b4,2021-11-01_13h28.51.639,forced_choiceRT_color,2021.2.3,Win32,60.0024001,,,,,,,,,,,,,,,,,,,,,,,
,0,k,1,0.5823,9,1,37,3,1,k,purple,5da880819413e4001505d6b4,2021-11-01_13h28.51.639,forced_choiceRT_color,2021.2.3,Win32,60.0024001,,,,,,,,,,,,,,,,,,,,,,,
,0,d,1,0.6059,9,2,38,0,1,d,orange,5da880819413e4001505d6b4,2021-11-01_13h28.51.639,forced_choiceRT_color,2021.2.3,Win32,60.0024001,,,,,,,,,,,,,,,,,,,,,,,
,0,f,1,0.4831,9,3,39,1,1,f,blue,5da880819413e4001505d6b4,2021-11-01_13h28.51.639,forced_choiceRT_color,2021.2.3,Win32,60.0024001,,,,,,,,,,,,,,,,,,,,,,,
,0,k,1,0.5873,10,0,40,3,1,k,purple,5da880819413e4001505d6b4,2021-11-01_13h28.51.639,forced_choiceRT_color,2021.2.3,Win32,60.0024001,,,,,,,,,,,,,,,,,,,,,,,
,0,j,1,0.5674,10,1,41,2,1,j,red,5da880819413e4001505d6b4,2021-11-01_13h28.51.639,forced_choiceRT_color,2021.2.3,Win32,60.0024001,,,,,,,,,,,,,,,,,,,,,,,
,0,d,1,0.764,10,2,42,0,1,d,orange,5da880819413e4001505d6b4,2021-11-01_13h28.51.639,forced_choiceRT_color,2021.2.3,Win32,60.0024001,,,,,,,,,,,,,,,,,,,,,,,
,0,f,1,0.4733,10,3,43,1,1,f,blue,5da880819413e4001505d6b4,2021-11-01_13h28.51.639,forced_choiceRT_color,2021.2.3,Win32,60.0024001,,,,,,,,,,,,,,,,,,,,,,,
,0,j,1,0.4811,11,0,44,2,1,j,red,5da880819413e4001505d6b4,2021-11-01_13h28.51.639,forced_choiceRT_color,2021.2.3,Win32,60.0024001,,,,,,,,,,,,,,,,,,,,,,,
,0,d,1,0.6304,11,1,45,0,1,d,orange,5da880819413e4001505d6b4,2021-11-01_13h28.51.639,forced_choiceRT_color,2021.2.3,Win32,60.0024001,,,,,,,,,,,,,,,,,,,,,,,
,0,d,1,0.6016,11,2,46,0,1,d,orange,5da880819413e4001505d6b4,2021-11-01_13h28.51.639,forced_choiceRT_color,2021.2.3,Win32,60.0024001,,,,,,,,,,,,,,,,,,,,,,,
,0,d,1,0.7529,11,3,47,0,1,d,orange,5da880819413e4001505d6b4,2021-11-01_13h28.51.639,forced_choiceRT_color,2021.2.3,Win32,60.0024001,,,,,,,,,,,,,,,,,,,,,,,
,0,k,1,0.4952,12,0,48,3,1,k,purple,5da880819413e4001505d6b4,2021-11-01_13h28.51.639,forced_choiceRT_color,2021.2.3,Win32,60.0024001,,,,,,,,,,,,,,,,,,,,,,,
,0,j,1,1.3994,12,1,49,2,1,j,red,5da880819413e4001505d6b4,2021-11-01_13h28.51.639,forced_choiceRT_color,2021.2.3,Win32,60.0024001,,,,,,,,,,,,,,,,,,,,,,,
,0,f,1,0.5944,12,2,50,1,1,f,blue,5da880819413e4001505d6b4,2021-11-01_13h28.51.639,forced_choiceRT_color,2021.2.3,Win32,60.0024001,,,,,,,,,,,,,,,,,,,,,,,
,0,d,1,0.5144,12,3,51,0,1,d,orange,5da880819413e4001505d6b4,2021-11-01_13h28.51.639,forced_choiceRT_color,2021.2.3,Win32,60.0024001,,,,,,,,,,,,,,,,,,,,,,,
,0,j,1,0.5796,13,0,52,2,1,j,red,5da880819413e4001505d6b4,2021-11-01_13h28.51.639,forced_choiceRT_color,2021.2.3,Win32,60.0024001,,,,,,,,,,,,,,,,,,,,,,,
,0,d,1,0.6336,13,1,53,0,1,d,orange,5da880819413e4001505d6b4,2021-11-01_13h28.51.639,forced_choiceRT_color,2021.2.3,Win32,60.0024001,,,,,,,,,,,,,,,,,,,,,,,
,0,f,1,0.5417,13,2,54,1,1,f,blue,5da880819413e4001505d6b4,2021-11-01_13h28.51.639,forced_choiceRT_color,2021.2.3,Win32,60.0024001,,,,,,,,,,,,,,,,,,,,,,,
,0,k,1,0.5084,13,3,55,3,1,k,purple,5da880819413e4001505d6b4,2021-11-01_13h28.51.639,forced_choiceRT_color,2021.2.3,Win32,60.0024001,,,,,,,,,,,,,,,,,,,,,,,
,0,k,1,0.4775,14,0,56,3,1,k,purple,5da880819413e4001505d6b4,2021-11-01_13h28.51.639,forced_choiceRT_color,2021.2.3,Win32,60.0024001,,,,,,,,,,,,,,,,,,,,,,,
,0,j,1,0.6054,14,1,57,2,1,j,red,5da880819413e4001505d6b4,2021-11-01_13h28.51.639,forced_choiceRT_color,2021.2.3,Win32,60.0024001,,,,,,,,,,,,,,,,,,,,,,,
,0,k,1,0.5079,14,2,58,3,1,k,purple,5da880819413e4001505d6b4,2021-11-01_13h28.51.639,forced_choiceRT_color,2021.2.3,Win32,60.0024001,,,,,,,,,,,,,,,,,,,,,,,
,0,j,1,0.5067,14,3,59,2,1,j,red,5da880819413e4001505d6b4,2021-11-01_13h28.51.639,forced_choiceRT_color,2021.2.3,Win32,60.0024001,,,,,,,,,,,,,,,,,,,,,,,
,,,,,,,,,,,,5da880819413e4001505d6b4,2021-11-01_13h28.51.639,forced_choiceRT_color,2021.2.3,Win32,60.0024001,j,2.3601,0,0,0,0,1,,,,,,,,,,,,,,,,
,,,,,,,,,,,,5da880819413e4001505d6b4,2021-11-01_13h28.51.639,forced_choiceRT_color,2021.2.3,Win32,60.0024001,j,1.7851,1,0,1,0,1,,,,,,,,,,,,,,,,
,,,,,,,,,,,,5da880819413e4001505d6b4,2021-11-01_13h28.51.639,forced_choiceRT_color,2021.2.3,Win32,60.0024001,j,2.2383,2,0,2,0,1,,,,,,,,,,,,,,,,
,,,,,,,,,,,,5da880819413e4001505d6b4,2021-11-01_13h28.51.639,forced_choiceRT_color,2021.2.3,Win32,60.0024001,j,2.0758,3,0,3,0,1,,,,,,,,,,,,,,,,
,,,,,,,,,,,,5da880819413e4001505d6b4,2021-11-01_13h28.51.639,forced_choiceRT_color,2021.2.3,Win32,60.0024001,j,1.9805,4,0,4,0,1,,,,,,,,,,,,,,,,
,,,,,,,,,,,,5da880819413e4001505d6b4,2021-11-01_13h28.51.639,forced_choiceRT_color,2021.2.3,Win32,60.0024001,j,2.097,5,0,5,0,1,,,,,,,,,,,,,,,,
,,,,,,,,,,,,5da880819413e4001505d6b4,2021-11-01_13h28.51.639,forced_choiceRT_color,2021.2.3,Win32,60.0024001,j,2.0451,6,0,6,0,1,,,,,,,,,,,,,,,,
,,,,,,,,,,,,5da880819413e4001505d6b4,2021-11-01_13h28.51.639,forced_choiceRT_color,2021.2.3,Win32,60.0024001,j,1.9651,7,0,7,0,1,,,,,,,,,,,,,,,,
,,,,,,,,,,,,5da880819413e4001505d6b4,2021-11-01_13h28.51.639,forced_choiceRT_color,2021.2.3,Win32,60.0024001,j,1.9683,8,0,8,0,1,,,,,,,,,,,,,,,,
,,,,,,,,,,,,5da880819413e4001505d6b4,2021-11-01_13h28.51.639,forced_choiceRT_color,2021.2.3,Win32,60.0024001,j,1.9794,9,0,9,0,1,,,,,,,,,,,,,,,,
,,,,,,,,,,,,5da880819413e4001505d6b4,2021-11-01_13h28.51.639,forced_choiceRT_color,2021.2.3,Win32,60.0024001,j,1.9259,10,0,10,0,1,,,,,,,,,,,,,,,,
,,,,,,,,,,,,5da880819413e4001505d6b4,2021-11-01_13h28.51.639,forced_choiceRT_color,2021.2.3,Win32,60.0024001,j,1.8891,11,0,11,0,1,,,,,,,,,,,,,,,,
,,,,,,,,,,,,5da880819413e4001505d6b4,2021-11-01_13h28.51.639,forced_choiceRT_color,2021.2.3,Win32,60.0024001,j,1.9393,12,0,12,0,1,,,,,,,,,,,,,,,,
,,,,,,,,,,,,5da880819413e4001505d6b4,2021-11-01_13h28.51.639,forced_choiceRT_color,2021.2.3,Win32,60.0024001,j,1.901,13,0,13,0,1,,,,,,,,,,,,,,,,
,,,,,,,,,,,,5da880819413e4001505d6b4,2021-11-01_13h28.51.639,forced_choiceRT_color,2021.2.3,Win32,60.0024001,j,1.7249,14,0,14,0,1,,,,,,,,,,,,,,,,
,,,,,,,,,,,,5da880819413e4001505d6b4,2021-11-01_13h28.51.639,forced_choiceRT_color,2021.2.3,Win32,60.0024001,j,1.9912,15,0,15,0,1,,,,,,,,,,,,,,,,
,,,,,,,,,,,,5da880819413e4001505d6b4,2021-11-01_13h28.51.639,forced_choiceRT_color,2021.2.3,Win32,60.0024001,j,2.0054,16,0,16,0,1,,,,,,,,,,,,,,,,
,,,,,,,,,,,,5da880819413e4001505d6b4,2021-11-01_13h28.51.639,forced_choiceRT_color,2021.2.3,Win32,60.0024001,j,1.9559,17,0,17,0,1,,,,,,,,,,,,,,,,
,,,,,,,,,,,,5da880819413e4001505d6b4,2021-11-01_13h28.51.639,forced_choiceRT_color,2021.2.3,Win32,60.0024001,j,1.9326,18,0,18,0,1,,,,,,,,,,,,,,,,
,,,,,,,,,,,,5da880819413e4001505d6b4,2021-11-01_13h28.51.639,forced_choiceRT_color,2021.2.3,Win32,60.0024001,j,1.8353,19,0,19,0,1,,,,,,,,,,,,,,,,
,0.73,,,,,,,,,f,blue,5da880819413e4001505d6b4,2021-11-01_13h28.51.639,forced_choiceRT_color,2021.2.3,Win32,60.0024001,,,,,,,,1,Ontime,long,d,0,2.0061,0,0,0,1,1,,,,,
,1.2,,,,,,,,,j,red,5da880819413e4001505d6b4,2021-11-01_13h28.51.639,forced_choiceRT_color,2021.2.3,Win32,60.0024001,,,,,,,,1,Ontime,long,j,1,1.9123,0,1,1,2,1,,,,,
,1.9,,,,,,,,,d,orange,5da880819413e4001505d6b4,2021-11-01_13h28.51.639,forced_choiceRT_color,2021.2.3,Win32,60.0024001,,,,,,,,1,Ontime,long,f,0,2.0671,0,2,2,0,1,,,,,
,0.3,,,,,,,,,k,purple,5da880819413e4001505d6b4,2021-11-01_13h28.51.639,forced_choiceRT_color,2021.2.3,Win32,60.0024001,,,,,,,,1,Ontime,long,k,1,1.9451,0,3,3,3,1,,,,,
,0.7,,,,,,,,,d,orange,5da880819413e4001505d6b4,2021-11-01_13h28.51.639,forced_choiceRT_color,2021.2.3,Win32,60.0024001,,,,,,,,1,Ontime,long,d,1,1.9704,1,0,4,0,1,,,,,
,1.25,,,,,,,,,k,purple,5da880819413e4001505d6b4,2021-11-01_13h28.51.639,forced_choiceRT_color,2021.2.3,Win32,60.0024001,,,,,,,,1,Ontime,long,k,1,1.9498,1,1,5,3,1,,,,,
,0.36,,,,,,,,,d,orange,5da880819413e4001505d6b4,2021-11-01_13h28.51.639,forced_choiceRT_color,2021.2.3,Win32,60.0024001,,,,,,,,1,Ontime,long,d,1,1.9384,1,2,6,0,1,,,,,
,1.41,,,,,,,,,k,purple,5da880819413e4001505d6b4,2021-11-01_13h28.51.639,forced_choiceRT_color,2021.2.3,Win32,60.0024001,,,,,,,,1,Ontime,long,k,1,1.9718,1,3,7,3,1,,,,,
,1.05,,,,,,,,,f,blue,5da880819413e4001505d6b4,2021-11-01_13h28.51.639,forced_choiceRT_color,2021.2.3,Win32,60.0024001,,,,,,,,1,Fast,long,f,1,1.8791,2,0,8,1,1,,,,,
,1.18,,,,,,,,,k,purple,5da880819413e4001505d6b4,2021-11-01_13h28.51.639,forced_choiceRT_color,2021.2.3,Win32,60.0024001,,,,,,,,1,Ontime,long,k,1,1.9189,2,1,9,3,1,,,,,
,1.91,,,,,,,,,j,red,5da880819413e4001505d6b4,2021-11-01_13h28.51.639,forced_choiceRT_color,2021.2.3,Win32,60.0024001,,,,,,,,1,Slow,long,d,0,2.2879,2,2,10,2,1,,,,,
,1.57,,,,,,,,,f,blue,5da880819413e4001505d6b4,2021-11-01_13h28.51.639,forced_choiceRT_color,2021.2.3,Win32,60.0024001,,,,,,,,1,Ontime,long,f,1,2.0664,2,3,11,1,1,,,,,
,1.12,,,,,,,,,f,blue,5da880819413e4001505d6b4,2021-11-01_13h28.51.639,forced_choiceRT_color,2021.2.3,Win32,60.0024001,,,,,,,,1,Fast,long,f,1,1.8843,3,0,12,1,1,,,,,
,0.18,,,,,,,,,j,red,5da880819413e4001505d6b4,2021-11-01_13h28.51.639,forced_choiceRT_color,2021.2.3,Win32,60.0024001,,,,,,,,1,Ontime,long,j,1,2.0616,3,1,13,2,1,,,,,
,1.2,,,,,,,,,j,red,5da880819413e4001505d6b4,2021-11-01_13h28.51.639,forced_choiceRT_color,2021.2.3,Win32,60.0024001,,,,,,,,1,Fast,long,j,1,1.8903,3,2,14,2,1,,,,,
,1.52,,,,,,,,,f,blue,5da880819413e4001505d6b4,2021-11-01_13h28.51.639,forced_choiceRT_color,2021.2.3,Win32,60.0024001,,,,,,,,1,Ontime,long,f,1,2.0732,3,3,15,1,1,,,,,
,0.11,,,,,,,,,d,orange,5da880819413e4001505d6b4,2021-11-01_13h28.51.639,forced_choiceRT_color,2021.2.3,Win32,60.0024001,,,,,,,,1,Ontime,long,d,1,1.9824,4,0,16,0,1,,,,,
,0.96,,,,,,,,,d,orange,5da880819413e4001505d6b4,2021-11-01_13h28.51.639,forced_choiceRT_color,2021.2.3,Win32,60.0024001,,,,,,,,1,Ontime,long,d,1,1.9508,4,1,17,0,1,,,,,
,1.1,,,,,,,,,d,orange,5da880819413e4001505d6b4,2021-11-01_13h28.51.639,forced_choiceRT_color,2021.2.3,Win32,60.0024001,,,,,,,,1,Ontime,long,d,1,2.0088,4,2,18,0,1,,,,,
,1.12,,,,,,,,,f,blue,5da880819413e4001505d6b4,2021-11-01_13h28.51.639,forced_choiceRT_color,2021.2.3,Win32,60.0024001,,,,,,,,1,Ontime,long,f,1,2.0143,4,3,19,1,1,,,,,
,0.99,,,,,,,,,k,purple,5da880819413e4001505d6b4,2021-11-01_13h28.51.639,forced_choiceRT_color,2021.2.3,Win32,60.0024001,,,,,,,,1,Ontime,long,k,1,2.0183,5,0,20,3,1,,,,,
,1.37,,,,,,,,,d,orange,5da880819413e4001505d6b4,2021-11-01_13h28.51.639,forced_choiceRT_color,2021.2.3,Win32,60.0024001,,,,,,,,1,Ontime,long,d,1,1.9681,5,1,21,0,1,,,,,
,0.48,,,,,,,,,j,red,5da880819413e4001505d6b4,2021-11-01_13h28.51.639,forced_choiceRT_color,2021.2.3,Win32,60.0024001,,,,,,,,1,Ontime,long,f,0,1.9848,5,2,22,2,1,,,,,
,0.97,,,,,,,,,k,purple,5da880819413e4001505d6b4,2021-11-01_13h28.51.639,forced_choiceRT_color,2021.2.3,Win32,60.0024001,,,,,,,,1,Ontime,long,k,1,2.0358,5,3,23,3,1,,,,,
,1.69,,,,,,,,,d,orange,5da880819413e4001505d6b4,2021-11-01_13h28.51.639,forced_choiceRT_color,2021.2.3,Win32,60.0024001,,,,,,,,1,Ontime,long,f,0,2.0728,6,0,24,0,1,,,,,
,0.67,,,,,,,,,j,red,5da880819413e4001505d6b4,2021-11-01_13h28.51.639,forced_choiceRT_color,2021.2.3,Win32,60.0024001,,,,,,,,1,Ontime,long,j,1,1.9451,6,1,25,2,1,,,,,
,0.43,,,,,,,,,f,blue,5da880819413e4001505d6b4,2021-11-01_13h28.51.639,forced_choiceRT_color,2021.2.3,Win32,60.0024001,,,,,,,,1,Ontime,long,j,0,2.007,6,2,26,1,1,,,,,
,1.1,,,,,,,,,k,purple,5da880819413e4001505d6b4,2021-11-01_13h28.51.639,forced_choiceRT_color,2021.2.3,Win32,60.0024001,,,,,,,,1,Ontime,long,k,1,1.9434,6,3,27,3,1,,,,,
,0.84,,,,,,,,,j,red,5da880819413e4001505d6b4,2021-11-01_13h28.51.639,forced_choiceRT_color,2021.2.3,Win32,60.0024001,,,,,,,,1,Ontime,long,f,0,1.9187,7,0,28,2,1,,,,,
,0.64,,,,,,,,,k,purple,5da880819413e4001505d6b4,2021-11-01_13h28.51.639,forced_choiceRT_color,2021.2.3,Win32,60.0024001,,,,,,,,1,Ontime,long,k,1,1.9695,7,1,29,3,1,,,,,
,1.66,,,,,,,,,d,orange,5da880819413e4001505d6b4,2021-11-01_13h28.51.639,forced_choiceRT_color,2021.2.3,Win32,60.0024001,,,,,,,,1,Slow,long,d,1,2.1074,7,2,30,0,1,,,,,
,0.75,,,,,,,,,d,orange,5da880819413e4001505d6b4,2021-11-01_13h28.51.639,forced_choiceRT_color,2021.2.3,Win32,60.0024001,,,,,,,,1,Ontime,long,d,1,1.9544,7,3,31,0,1,,,,,
,1.37,,,,,,,,,j,red,5da880819413e4001505d6b4,2021-11-01_13h28.51.639,forced_choiceRT_color,2021.2.3,Win32,60.0024001,,,,,,,,1,Ontime,long,j,1,1.9741,8,0,32,2,1,,,,,
,1.98,,,,,,,,,k,purple,5da880819413e4001505d6b4,2021-11-01_13h28.51.639,forced_choiceRT_color,2021.2.3,Win32,60.0024001,,,,,,,,1,Slow,long,f,0,2.2457,8,1,33,3,1,,,,,
,1.56,,,,,,,,,j,red,5da880819413e4001505d6b4,2021-11-01_13h28.51.639,forced_choiceRT_color,2021.2.3,Win32,60.0024001,,,,,,,,1,Slow,long,f,0,2.1031,8,2,34,2,1,,,,,
,1.4,,,,,,,,,f,blue,5da880819413e4001505d6b4,2021-11-01_13h28.51.639,forced_choiceRT_color,2021.2.3,Win32,60.0024001,,,,,,,,1,Ontime,long,j,0,2.0569,8,3,35,1,1,,,,,
,0.45,,,,,,,,,f,blue,5da880819413e4001505d6b4,2021-11-01_13h28.51.639,forced_choiceRT_color,2021.2.3,Win32,60.0024001,,,,,,,,1,Ontime,long,f,1,2.0486,9,0,36,1,1,,,,,
,0.35,,,,,,,,,f,blue,5da880819413e4001505d6b4,2021-11-01_13h28.51.639,forced_choiceRT_color,2021.2.3,Win32,60.0024001,,,,,,,,1,Ontime,long,f,1,2.0017,9,1,37,1,1,,,,,
,0.74,,,,,,,,,k,purple,5da880819413e4001505d6b4,2021-11-01_13h28.51.639,forced_choiceRT_color,2021.2.3,Win32,60.0024001,,,,,,,,1,Ontime,long,k,1,2.0385,9,2,38,3,1,,,,,
,1.44,,,,,,,,,j,red,5da880819413e4001505d6b4,2021-11-01_13h28.51.639,forced_choiceRT_color,2021.2.3,Win32,60.0024001,,,,,,,,1,Ontime,long,j,1,2.0839,9,3,39,2,1,,,,,
,,,,,,,,,,,,5da880819413e4001505d6b4,2021-11-01_13h28.51.639,forced_choiceRT_color,2021.2.3,Win32,60.0024001,,,,,,,,,,,,,,,,,,,0,0,0,0,1
,1.8,,,,,,,,,f,blue,5da880819413e4001505d6b4,2021-11-01_13h28.51.639,forced_choiceRT_color,2021.2.3,Win32,60.0024001,,,,,,,,2,Slow,long,f,1,2.2735,0,0,0,1,1,,,,,
,0.31,,,,,,,,,f,blue,5da880819413e4001505d6b4,2021-11-01_13h28.51.639,forced_choiceRT_color,2021.2.3,Win32,60.0024001,,,,,,,,2,Ontime,long,f,1,1.9857,0,1,1,1,1,,,,,
,0.14,,,,,,,,,j,red,5da880819413e4001505d6b4,2021-11-01_13h28.51.639,forced_choiceRT_color,2021.2.3,Win32,60.0024001,,,,,,,,2,Ontime,long,j,1,1.987,0,2,2,2,1,,,,,
,1.3,,,,,,,,,f,blue,5da880819413e4001505d6b4,2021-11-01_13h28.51.639,forced_choiceRT_color,2021.2.3,Win32,60.0024001,,,,,,,,2,Ontime,long,f,1,1.9876,0,3,3,1,1,,,,,
,0.34,,,,,,,,,f,blue,5da880819413e4001505d6b4,2021-11-01_13h28.51.639,forced_choiceRT_color,2021.2.3,Win32,60.0024001,,,,,,,,2,Ontime,long,f,1,2.0487,1,0,4,1,1,,,,,
,1.37,,,,,,,,,j,red,5da880819413e4001505d6b4,2021-11-01_13h28.51.639,forced_choiceRT_color,2021.2.3,Win32,60.0024001,,,,,,,,2,Ontime,long,j,1,2.0914,1,1,5,2,1,,,,,
,0.49,,,,,,,,,k,purple,5da880819413e4001505d6b4,2021-11-01_13h28.51.639,forced_choiceRT_color,2021.2.3,Win32,60.0024001,,,,,,,,2,Slow,long,k,1,2.117,1,2,6,3,1,,,,,
,0.1,,,,,,,,,j,red,5da880819413e4001505d6b4,2021-11-01_13h28.51.639,forced_choiceRT_color,2021.2.3,Win32,60.0024001,,,,,,,,2,Ontime,long,j,1,2.0034,1,3,7,2,1,,,,,
,1.9,,,,,,,,,f,blue,5da880819413e4001505d6b4,2021-11-01_13h28.51.639,forced_choiceRT_color,2021.2.3,Win32,60.0024001,,,,,,,,2,Slow,long,k,0,2.1257,2,0,8,1,1,,,,,
,0.01,,,,,,,,,f,blue,5da880819413e4001505d6b4,2021-11-01_13h28.51.639,forced_choiceRT_color,2021.2.3,Win32,60.0024001,,,,,,,,2,Ontime,long,f,1,2.0611,2,1,9,1,1,,,,,
,0.88,,,,,,,,,d,orange,5da880819413e4001505d6b4,2021-11-01_13h28.51.639,forced_choiceRT_color,2021.2.3,Win32,60.0024001,,,,,,,,2,Ontime,long,d,1,2.0428,2,2,10,0,1,,,,,
,1.67,,,,,,,,,j,red,5da880819413e4001505d6b4,2021-11-01_13h28.51.639,forced_choiceRT_color,2021.2.3,Win32,60.0024001,,,,,,,,2,Ontime,long,j,1,2.0659,2,3,11,2,1,,,,,
,0.97,,,,,,,,,k,purple,5da880819413e4001505d6b4,2021-11-01_13h28.51.639,forced_choiceRT_color,2021.2.3,Win32,60.0024001,,,,,,,,2,Ontime,long,k,1,2.0655,3,0,12,3,1,,,,,
,1.16,,,,,,,,,k,purple,5da880819413e4001505d6b4,2021-11-01_13h28.51.639,forced_choiceRT_color,2021.2.3,Win32,60.0024001,,,,,,,,2,Ontime,long,k,1,2.0771,3,1,13,3,1,,,,,
,0.32,,,,,,,,,k,purple,5da880819413e4001505d6b4,2021-11-01_13h28.51.639,forced_choiceRT_color,2021.2.3,Win32,60.0024001,,,,,,,,2,Slow,long,k,1,2.1081,3,2,14,3,1,,,,,
,1.98,,,,,,,,,k,purple,5da880819413e4001505d6b4,2021-11-01_13h28.51.639,forced_choiceRT_color,2021.2.3,Win32,60.0024001,,,,,,,,2,Slow,long,f,0,2.2452,3,3,15,3,1,,,,,
,1.8,,,,,,,,,k,purple,5da880819413e4001505d6b4,2021-11-01_13h28.51.639,forced_choiceRT_color,2021.2.3,Win32,60.0024001,,,,,,,,2,Ontime,long,j,0,2.0303,4,0,16,3,1,,,,,
,0.47,,,,,,,,,d,orange,5da880819413e4001505d6b4,2021-11-01_13h28.51.639,forced_choiceRT_color,2021.2.3,Win32,60.0024001,,,,,,,,2,Ontime,long,d,1,2.0766,4,1,17,0,1,,,,,
,1.8,,,,,,,,,f,blue,5da880819413e4001505d6b4,2021-11-01_13h28.51.639,forced_choiceRT_color,2021.2.3,Win32,60.0024001,,,,,,,,2,Ontime,long,j,0,2.0755,4,2,18,1,1,,,,,
,0.26,,,,,,,,,k,purple,5da880819413e4001505d6b4,2021-11-01_13h28.51.639,forced_choiceRT_color,2021.2.3,Win32,60.0024001,,,,,,,,2,Ontime,long,k,1,2.0071,4,3,19,3,1,,,,,
,1.37,,,,,,,,,j,red,5da880819413e4001505d6b4,2021-11-01_13h28.51.639,forced_choiceRT_color,2021.2.3,Win32,60.0024001,,,,,,,,2,Ontime,long,f,0,1.9758,5,0,20,2,1,,,,,
,1.32,,,,,,,,,j,red,5da880819413e4001505d6b4,2021-11-01_13h28.51.639,forced_choiceRT_color,2021.2.3,Win32,60.0024001,,,,,,,,2,Ontime,long,j,1,1.9969,5,1,21,2,1,,,,,
,0.03,,,,,,,,,d,orange,5da880819413e4001505d6b4,2021-11-01_13h28.51.639,forced_choiceRT_color,2021.2.3,Win32,60.0024001,,,,,,,,2,Ontime,long,d,1,2.0285,5,2,22,0,1,,,,,
,1.84,,,,,,,,,d,orange,5da880819413e4001505d6b4,2021-11-01_13h28.51.639,forced_choiceRT_color,2021.2.3,Win32,60.0024001,,,,,,,,2,Ontime,long,j,0,2.0332,5,3,23,0,1,,,,,
,1.64,,,,,,,,,j,red,5da880819413e4001505d6b4,2021-11-01_13h28.51.639,forced_choiceRT_color,2021.2.3,Win32,60.0024001,,,,,,,,2,Ontime,long,j,1,2.0454,6,0,24,2,1,,,,,
,1.98,,,,,,,,,f,blue,5da880819413e4001505d6b4,2021-11-01_13h28.51.639,forced_choiceRT_color,2021.2.3,Win32,60.0024001,,,,,,,,2,Ontime,long,k,0,1.9963,6,1,25,1,1,,,,,
,1.2,,,,,,,,,f,blue,5da880819413e4001505d6b4,2021-11-01_13h28.51.639,forced_choiceRT_color,2021.2.3,Win32,60.0024001,,,,,,,,2,Ontime,long,f,1,1.9903,6,2,26,1,1,,,,,
,1.99,,,,,,,,,j,red,5da880819413e4001505d6b4,2021-11-01_13h28.51.639,forced_choiceRT_color,2021.2.3,Win32,60.0024001,,,,,,,,2,Slow,long,j,1,2.135,6,3,27,2,1,,,,,
,0.55,,,,,,,,,d,orange,5da880819413e4001505d6b4,2021-11-01_13h28.51.639,forced_choiceRT_color,2021.2.3,Win32,60.0024001,,,,,,,,2,Ontime,long,d,1,2.0974,7,0,28,0,1,,,,,
,1,,,,,,,,,d,orange,5da880819413e4001505d6b4,2021-11-01_13h28.51.639,forced_choiceRT_color,2021.2.3,Win32,60.0024001,,,,,,,,2,Ontime,long,d,1,2.0215,7,1,29,0,1,,,,,
,1.18,,,,,,,,,d,orange,5da880819413e4001505d6b4,2021-11-01_13h28.51.639,forced_choiceRT_color,2021.2.3,Win32,60.0024001,,,,,,,,2,Ontime,long,d,1,2.0143,7,2,30,0,1,,,,,
,0.69,,,,,,,,,d,orange,5da880819413e4001505d6b4,2021-11-01_13h28.51.639,forced_choiceRT_color,2021.2.3,Win32,60.0024001,,,,,,,,2,Ontime,long,d,1,2.0466,7,3,31,0,1,,,,,
,1.5,,,,,,,,,j,red,5da880819413e4001505d6b4,2021-11-01_13h28.51.639,forced_choiceRT_color,2021.2.3,Win32,60.0024001,,,,,,,,2,Ontime,long,j,1,2.0413,8,0,32,2,1,,,,,
,0.25,,,,,,,,,d,orange,5da880819413e4001505d6b4,2021-11-01_13h28.51.639,forced_choiceRT_color,2021.2.3,Win32,60.0024001,,,,,,,,2,Ontime,long,d,1,2.0193,8,1,33,0,1,,,,,
,0.6,,,,,,,,,k,purple,5da880819413e4001505d6b4,2021-11-01_13h28.51.639,forced_choiceRT_color,2021.2.3,Win32,60.0024001,,,,,,,,2,Ontime,long,k,1,2.0933,8,2,34,3,1,,,,,
,1.01,,,,,,,,,j,red,5da880819413e4001505d6b4,2021-11-01_13h28.51.639,forced_choiceRT_color,2021.2.3,Win32,60.0024001,,,,,,,,2,Ontime,long,j,1,2.0122,8,3,35,2,1,,,,,
,0.38,,,,,,,,,k,purple,5da880819413e4001505d6b4,2021-11-01_13h28.51.639,forced_choiceRT_color,2021.2.3,Win32,60.0024001,,,,,,,,2,Ontime,long,k,1,2.0463,9,0,36,3,1,,,,,
,0.33,,,,,,,,,k,purple,5da880819413e4001505d6b4,2021-11-01_13h28.51.639,forced_choiceRT_color,2021.2.3,Win32,60.0024001,,,,,,,,2,Ontime,long,k,1,2.0721,9,1,37,3,1,,,,,
,1.62,,,,,,,,,d,orange,5da880819413e4001505d6b4,2021-11-01_13h28.51.639,forced_choiceRT_color,2021.2.3,Win32,60.0024001,,,,,,,,2,Slow,long,d,1,2.1236,9,2,38,0,1,,,,,
,0.54,,,,,,,,,f,blue,5da880819413e4001505d6b4,2021-11-01_13h28.51.639,forced_choiceRT_color,2021.2.3,Win32,60.0024001,,,,,,,,2,Ontime,long,f,1,2.0231,9,3,39,1,1,,,,,
,,,,,,,,,,,,5da880819413e4001505d6b4,2021-11-01_13h28.51.639,forced_choiceRT_color,2021.2.3,Win32,60.0024001,,,,,,,,,,,,,,,,,,,1,0,1,0,1
,1.29,,,,,,,,,k,purple,5da880819413e4001505d6b4,2021-11-01_13h28.51.639,forced_choiceRT_color,2021.2.3,Win32,60.0024001,,,,,,,,3,Ontime,long,k,1,1.9847,0,0,0,3,1,,,,,
,1.67,,,,,,,,,f,blue,5da880819413e4001505d6b4,2021-11-01_13h28.51.639,forced_choiceRT_color,2021.2.3,Win32,60.0024001,,,,,,,,3,Ontime,long,f,1,1.9729,0,1,1,1,1,,,,,
,1.93,,,,,,,,,f,blue,5da880819413e4001505d6b4,2021-11-01_13h28.51.639,forced_choiceRT_color,2021.2.3,Win32,60.0024001,,,,,,,,3,Ontime,long,j,0,2.0151,0,2,2,1,1,,,,,
,0.16,,,,,,,,,j,red,5da880819413e4001505d6b4,2021-11-01_13h28.51.639,forced_choiceRT_color,2021.2.3,Win32,60.0024001,,,,,,,,3,Ontime,long,j,1,1.9733,0,3,3,2,1,,,,,
,1.74,,,,,,,,,j,red,5da880819413e4001505d6b4,2021-11-01_13h28.51.639,forced_choiceRT_color,2021.2.3,Win32,60.0024001,,,,,,,,3,Slow,long,j,1,2.129,1,0,4,2,1,,,,,
,1.03,,,,,,,,,d,orange,5da880819413e4001505d6b4,2021-11-01_13h28.51.639,forced_choiceRT_color,2021.2.3,Win32,60.0024001,,,,,,,,3,Ontime,long,d,1,1.9736,1,1,5,0,1,,,,,
,0.52,,,,,,,,,j,red,5da880819413e4001505d6b4,2021-11-01_13h28.51.639,forced_choiceRT_color,2021.2.3,Win32,60.0024001,,,,,,,,3,Ontime,long,j,1,1.9494,1,2,6,2,1,,,,,
,1.05,,,,,,,,,f,blue,5da880819413e4001505d6b4,2021-11-01_13h28.51.639,forced_choiceRT_color,2021.2.3,Win32,60.0024001,,,,,,,,3,Ontime,long,d,0,2.0256,1,3,7,1,1,,,,,
,1.48,,,,,,,,,j,red,5da880819413e4001505d6b4,2021-11-01_13h28.51.639,forced_choiceRT_color,2021.2.3,Win32,60.0024001,,,,,,,,3,Fast,long,j,1,1.8719,2,0,8,2,1,,,,,
,1.18,,,,,,,,,k,purple,5da880819413e4001505d6b4,2021-11-01_13h28.51.639,forced_choiceRT_color,2021.2.3,Win32,60.0024001,,,,,,,,3,Ontime,long,k,1,1.9126,2,1,9,3,1,,,,,
,1.79,,,,,,,,,k,purple,5da880819413e4001505d6b4,2021-11-01_13h28.51.639,forced_choiceRT_color,2021.2.3,Win32,60.0024001,,,,,,,,3,Ontime,long,f,0,2.0186,2,2,10,3,1,,,,,
,0.34,,,,,,,,,d,orange,5da880819413e4001505d6b4,2021-11-01_13h28.51.639,forced_choiceRT_color,2021.2.3,Win32,60.0024001,,,,,,,,3,Ontime,long,d,1,1.9721,2,3,11,0,1,,,,,
,0.18,,,,,,,,,k,purple,5da880819413e4001505d6b4,2021-11-01_13h28.51.639,forced_choiceRT_color,2021.2.3,Win32,60.0024001,,,,,,,,3,Ontime,long,k,1,1.9737,3,0,12,3,1,,,,,
,0.41,,,,,,,,,d,orange,5da880819413e4001505d6b4,2021-11-01_13h28.51.639,forced_choiceRT_color,2021.2.3,Win32,60.0024001,,,,,,,,3,Ontime,long,d,1,1.9837,3,1,13,0,1,,,,,
,1.05,,,,,,,,,j,red,5da880819413e4001505d6b4,2021-11-01_13h28.51.639,forced_choiceRT_color,2021.2.3,Win32,60.0024001,,,,,,,,3,Ontime,long,j,1,1.9966,3,2,14,2,1,,,,,
,1.01,,,,,,,,,d,orange,5da880819413e4001505d6b4,2021-11-01_13h28.51.639,forced_choiceRT_color,2021.2.3,Win32,60.0024001,,,,,,,,3,Ontime,long,d,1,1.9985,3,3,15,0,1,,,,,
,1.66,,,,,,,,,j,red,5da880819413e4001505d6b4,2021-11-01_13h28.51.639,forced_choiceRT_color,2021.2.3,Win32,60.0024001,,,,,,,,3,Ontime,long,d,0,2.0411,4,0,16,2,1,,,,,
,1.87,,,,,,,,,d,orange,5da880819413e4001505d6b4,2021-11-01_13h28.51.639,forced_choiceRT_color,2021.2.3,Win32,60.0024001,,,,,,,,3,Ontime,long,j,0,2.0463,4,1,17,0,1,,,,,
,1.38,,,,,,,,,f,blue,5da880819413e4001505d6b4,2021-11-01_13h28.51.639,forced_choiceRT_color,2021.2.3,Win32,60.0024001,,,,,,,,3,Ontime,long,j,0,1.914,4,2,18,1,1,,,,,
,1.57,,,,,,,,,j,red,5da880819413e4001505d6b4,2021-11-01_13h28.51.639,forced_choiceRT_color,2021.2.3,Win32,60.0024001,,,,,,,,3,Fast,long,j,1,1.8599,4,3,19,2,1,,,,,
,1.96,,,,,,,,,k,purple,5da880819413e4001505d6b4,2021-11-01_13h28.51.639,forced_choiceRT_color,2021.2.3,Win32,60.0024001,,,,,,,,3,Ontime,long,j,0,2.0314,5,0,20,3,1,,,,,
,0.36,,,,,,,,,f,blue,5da880819413e4001505d6b4,2021-11-01_13h28.51.639,forced_choiceRT_color,2021.2.3,Win32,60.0024001,,,,,,,,3,Ontime,long,f,1,1.9832,5,1,21,1,1,,,,,
,1.13,,,,,,,,,f,blue,5da880819413e4001505d6b4,2021-11-01_13h28.51.639,forced_choiceRT_color,2021.2.3,Win32,60.0024001,,,,,,,,3,Ontime,long,f,1,2.052,5,2,22,1,1,,,,,
,1.37,,,,,,,,,d,orange,5da880819413e4001505d6b4,2021-11-01_13h28.51.639,forced_choiceRT_color,2021.2.3,Win32,60.0024001,,,,,,,,3,Ontime,long,d,1,2.0415,5,3,23,0,1,,,,,
,1.88,,,,,,,,,f,blue,5da880819413e4001505d6b4,2021-11-01_13h28.51.639,forced_choiceRT_color,2021.2.3,Win32,60.0024001,,,,,,,,3,Ontime,long,j,0,2.0096,6,0,24,1,1,,,,,
,1.02,,,,,,,,,k,purple,5da880819413e4001505d6b4,2021-11-01_13h28.51.639,forced_choiceRT_color,2021.2.3,Win32,60.0024001,,,,,,,,3,Ontime,long,k,1,2.0633,6,1,25,3,1,,,,,
,1.04,,,,,,,,,j,red,5da880819413e4001505d6b4,2021-11-01_13h28.51.639,forced_choiceRT_color,2021.2.3,Win32,60.0024001,,,,,,,,3,Ontime,long,j,1,1.9984,6,2,26,2,1,,,,,
,0.86,,,,,,,,,d,orange,5da880819413e4001505d6b4,2021-11-01_13h28.51.639,forced_choiceRT_color,2021.2.3,Win32,60.0024001,,,,,,,,3,Ontime,long,d,1,2.0408,6,3,27,0,1,,,,,
,0.54,,,,,,,,,d,orange,5da880819413e4001505d6b4,2021-11-01_13h28.51.639,forced_choiceRT_color,2021.2.3,Win32,60.0024001,,,,,,,,3,Ontime,long,d,1,2.0218,7,0,28,0,1,,,,,
,0,,,,,,,,,f,blue,5da880819413e4001505d6b4,2021-11-01_13h28.51.639,forced_choiceRT_color,2021.2.3,Win32,60.0024001,,,,,,,,3,Ontime,long,j,0,2.0151,7,1,29,1,1,,,,,
,0.71,,,,,,,,,k,purple,5da880819413e4001505d6b4,2021-11-01_13h28.51.639,forced_choiceRT_color,2021.2.3,Win32,60.0024001,,,,,,,,3,Ontime,long,k,1,2.0459,7,2,30,3,1,,,,,
,0.85,,,,,,,,,f,blue,5da880819413e4001505d6b4,2021-11-01_13h28.51.639,forced_choiceRT_color,2021.2.3,Win32,60.0024001,,,,,,,,3,Ontime,long,j,0,2.0331,7,3,31,1,1,,,,,
,1.02,,,,,,,,,k,purple,5da880819413e4001505d6b4,2021-11-01_13h28.51.639,forced_choiceRT_color,2021.2.3,Win32,60.0024001,,,,,,,,3,Ontime,long,k,1,2.0297,8,0,32,3,1,,,,,
,0.18,,,,,,,,,d,orange,5da880819413e4001505d6b4,2021-11-01_13h28.51.639,forced_choiceRT_color,2021.2.3,Win32,60.0024001,,,,,,,,3,Ontime,long,d,1,2.0493,8,1,33,0,1,,,,,
,1.08,,,,,,,,,j,red,5da880819413e4001505d6b4,2021-11-01_13h28.51.639,forced_choiceRT_color,2021.2.3,Win32,60.0024001,,,,,,,,3,Ontime,long,j,1,2.0231,8,2,34,2,1,,,,,
,1.29,,,,,,,,,k,purple,5da880819413e4001505d6b4,2021-11-01_13h28.51.639,forced_choiceRT_color,2021.2.3,Win32,60.0024001,,,,,,,,3,Ontime,long,k,1,1.9474,8,3,35,3,1,,,,,
,1.28,,,,,,,,,f,blue,5da880819413e4001505d6b4,2021-11-01_13h28.51.639,forced_choiceRT_color,2021.2.3,Win32,60.0024001,,,,,,,,3,Ontime,long,f,1,2.0017,9,0,36,1,1,,,,,
,1.76,,,,,,,,,k,purple,5da880819413e4001505d6b4,2021-11-01_13h28.51.639,forced_choiceRT_color,2021.2.3,Win32,60.0024001,,,,,,,,3,Ontime,long,j,0,2.0298,9,1,37,3,1,,,,,
,1.09,,,,,,,,,d,orange,5da880819413e4001505d6b4,2021-11-01_13h28.51.639,forced_choiceRT_color,2021.2.3,Win32,60.0024001,,,,,,,,3,Ontime,long,d,1,2.0602,9,2,38,0,1,,,,,
,0.4,,,,,,,,,j,red,5da880819413e4001505d6b4,2021-11-01_13h28.51.639,forced_choiceRT_color,2021.2.3,Win32,60.0024001,,,,,,,,3,Ontime,long,f,0,1.9894,9,3,39,2,1,,,,,
,,,,,,,,,,,,5da880819413e4001505d6b4,2021-11-01_13h28.51.639,forced_choiceRT_color,2021.2.3,Win32,60.0024001,,,,,,,,,,,,,,,,,,,2,0,2,0,1
,0.82,,,,,,,,,j,red,5da880819413e4001505d6b4,2021-11-01_13h28.51.639,forced_choiceRT_color,2021.2.3,Win32,60.0024001,,,,,,,,4,Ontime,long,f,0,2.0189,0,0,0,2,1,,,,,
,1.52,,,,,,,,,k,purple,5da880819413e4001505d6b4,2021-11-01_13h28.51.639,forced_choiceRT_color,2021.2.3,Win32,60.0024001,,,,,,,,4,Ontime,long,k,1,1.9053,0,1,1,3,1,,,,,
,1.54,,,,,,,,,d,orange,5da880819413e4001505d6b4,2021-11-01_13h28.51.639,forced_choiceRT_color,2021.2.3,Win32,60.0024001,,,,,,,,4,Ontime,long,d,1,1.942,0,2,2,0,1,,,,,
,0.93,,,,,,,,,d,orange,5da880819413e4001505d6b4,2021-11-01_13h28.51.639,forced_choiceRT_color,2021.2.3,Win32,60.0024001,,,,,,,,4,Ontime,long,d,1,2.0038,0,3,3,0,1,,,,,
,0.4,,,,,,,,,d,orange,5da880819413e4001505d6b4,2021-11-01_13h28.51.639,forced_choiceRT_color,2021.2.3,Win32,60.0024001,,,,,,,,4,Ontime,long,d,1,2.0428,1,0,4,0,1,,,,,
,0.87,,,,,,,,,f,blue,5da880819413e4001505d6b4,2021-11-01_13h28.51.639,forced_choiceRT_color,2021.2.3,Win32,60.0024001,,,,,,,,4,Ontime,long,f,1,2.0215,1,1,5,1,1,,,,,
,1.4,,,,,,,,,k,purple,5da880819413e4001505d6b4,2021-11-01_13h28.51.639,forced_choiceRT_color,2021.2.3,Win32,60.0024001,,,,,,,,4,Ontime,long,k,1,1.9903,1,2,6,3,1,,,,,
,1.51,,,,,,,,,f,blue,5da880819413e4001505d6b4,2021-11-01_13h28.51.639,forced_choiceRT_color,2021.2.3,Win32,60.0024001,,,,,,,,4,Ontime,long,j,0,2.0482,1,3,7,1,1,,,,,
,0.77,,,,,,,,,d,orange,5da880819413e4001505d6b4,2021-11-01_13h28.51.639,forced_choiceRT_color,2021.2.3,Win32,60.0024001,,,,,,,,4,Ontime,long,d,1,1.9627,2,0,8,0,1,,,,,
,1.18,,,,,,,,,k,purple,5da880819413e4001505d6b4,2021-11-01_13h28.51.639,forced_choiceRT_color,2021.2.3,Win32,60.0024001,,,,,,,,4,Ontime,long,k,1,2.0619,2,1,9,3,1,,,,,
,1.01,,,,,,,,,j,red,5da880819413e4001505d6b4,2021-11-01_13h28.51.639,forced_choiceRT_color,2021.2.3,Win32,60.0024001,,,,,,,,4,Ontime,long,j,1,1.975,2,2,10,2,1,,,,,
,0.22,,,,,,,,,f,blue,5da880819413e4001505d6b4,2021-11-01_13h28.51.639,forced_choiceRT_color,2021.2.3,Win32,60.0024001,,,,,,,,4,Ontime,long,f,1,1.9565,2,3,11,1,1,,,,,
,0.72,,,,,,,,,f,blue,5da880819413e4001505d6b4,2021-11-01_13h28.51.639,forced_choiceRT_color,2021.2.3,Win32,60.0024001,,,,,,,,4,Ontime,long,f,1,1.9809,3,0,12,1,1,,,,,
,0.03,,,,,,,,,f,blue,5da880819413e4001505d6b4,2021-11-01_13h28.51.639,forced_choiceRT_color,2021.2.3,Win32,60.0024001,,,,,,,,4,Ontime,long,f,1,2.024,3,1,13,1,1,,,,,
,1.19,,,,,,,,,d,orange,5da880819413e4001505d6b4,2021-11-01_13h28.51.639,forced_choiceRT_color,2021.2.3,Win32,60.0024001,,,,,,,,4,Ontime,long,d,1,2.0078,3,2,14,0,1,,,,,
,1.32,,,,,,,,,d,orange,5da880819413e4001505d6b4,2021-11-01_13h28.51.639,forced_choiceRT_color,2021.2.3,Win32,60.0024001,,,,,,,,4,Ontime,long,d,1,1.987,3,3,15,0,1,,,,,
,0.02,,,,,,,,,j,red,5da880819413e4001505d6b4,2021-11-01_13h28.51.639,forced_choiceRT_color,2021.2.3,Win32,60.0024001,,,,,,,,4,Ontime,long,j,1,2.0621,4,0,16,2,1,,,,,
,0.34,,,,,,,,,k,purple,5da880819413e4001505d6b4,2021-11-01_13h28.51.639,forced_choiceRT_color,2021.2.3,Win32,60.0024001,,,,,,,,4,Ontime,long,k,1,2.0526,4,1,17,3,1,,,,,
,1.9,,,,,,,,,f,blue,5da880819413e4001505d6b4,2021-11-01_13h28.51.639,forced_choiceRT_color,2021.2.3,Win32,60.0024001,,,,,,,,4,Ontime,long,f,1,2.0056,4,2,18,1,1,,,,,
,0.67,,,,,,,,,f,blue,5da880819413e4001505d6b4,2021-11-01_13h28.51.639,forced_choiceRT_color,2021.2.3,Win32,60.0024001,,,,,,,,4,Ontime,long,f,1,2.0143,4,3,19,1,1,,,,,
,1.2,,,,,,,,,d,orange,5da880819413e4001505d6b4,2021-11-01_13h28.51.639,forced_choiceRT_color,2021.2.3,Win32,60.0024001,,,,,,,,4,Ontime,long,d,1,2.0284,5,0,20,0,1,,,,,
,1.56,,,,,,,,,j,red,5da880819413e4001505d6b4,2021-11-01_13h28.51.639,forced_choiceRT_color,2021.2.3,Win32,60.0024001,,,,,,,,4,Ontime,long,j,1,1.9655,5,1,21,2,1,,,,,
,0.34,,,,,,,,,d,orange,5da880819413e4001505d6b4,2021-11-01_13h28.51.639,forced_choiceRT_color,2021.2.3,Win32,60.0024001,,,,,,,,4,Ontime,long,d,1,1.9933,5,2,22,0,1,,,,,
,1.34,,,,,,,,,f,blue,5da880819413e4001505d6b4,2021-11-01_13h28.51.639,forced_choiceRT_color,2021.2.3,Win32,60.0024001,,,,,,,,4,Ontime,long,f,1,2.0343,5,3,23,1,1,,,,,
,0.73,,,,,,,,,d,orange,5da880819413e4001505d6b4,2021-11-01_13h28.51.639,forced_choiceRT_color,2021.2.3,Win32,60.0024001,,,,,,,,4,Ontime,long,d,1,1.9841,6,0,24,0,1,,,,,
,0.43,,,,,,,,,k,purple,5da880819413e4001505d6b4,2021-11-01_13h28.51.639,forced_choiceRT_color,2021.2.3,Win32,60.0024001,,,,,,,,4,Ontime,long,k,1,2.0178,6,1,25,3,1,,,,,
,0.17,,,,,,,,,k,purple,5da880819413e4001505d6b4,2021-11-01_13h28.51.639,forced_choiceRT_color,2021.2.3,Win32,60.0024001,,,,,,,,4,Ontime,long,k,1,2.0233,6,2,26,3,1,,,,,
,0.97,,,,,,,,,k,purple,5da880819413e4001505d6b4,2021-11-01_13h28.51.639,forced_choiceRT_color,2021.2.3,Win32,60.0024001,,,,,,,,4,Ontime,long,k,1,2.013,6,3,27,3,1,,,,,
,0.45,,,,,,,,,f,blue,5da880819413e4001505d6b4,2021-11-01_13h28.51.639,forced_choiceRT_color,2021.2.3,Win32,60.0024001,,,,,,,,4,Ontime,long,f,1,2,7,0,28,1,1,,,,,
,1.73,,,,,,,,,f,blue,5da880819413e4001505d6b4,2021-11-01_13h28.51.639,forced_choiceRT_color,2021.2.3,Win32,60.0024001,,,,,,,,4,Slow,long,j,0,2.2024,7,1,29,1,1,,,,,
,1.41,,,,,,,,,k,purple,5da880819413e4001505d6b4,2021-11-01_13h28.51.639,forced_choiceRT_color,2021.2.3,Win32,60.0024001,,,,,,,,4,Ontime,long,k,1,2.0571,7,2,30,3,1,,,,,
,1.75,,,,,,,,,d,orange,5da880819413e4001505d6b4,2021-11-01_13h28.51.639,forced_choiceRT_color,2021.2.3,Win32,60.0024001,,,,,,,,4,Slow,long,j,0,2.143,7,3,31,0,1,,,,,
,0.42,,,,,,,,,j,red,5da880819413e4001505d6b4,2021-11-01_13h28.51.639,forced_choiceRT_color,2021.2.3,Win32,60.0024001,,,,,,,,4,Ontime,long,j,1,2.0639,8,0,32,2,1,,,,,
,0.27,,,,,,,,,j,red,5da880819413e4001505d6b4,2021-11-01_13h28.51.639,forced_choiceRT_color,2021.2.3,Win32,60.0024001,,,,,,,,4,Fast,long,j,1,1.8859,8,1,33,2,1,,,,,
,1,,,,,,,,,j,red,5da880819413e4001505d6b4,2021-11-01_13h28.51.639,forced_choiceRT_color,2021.2.3,Win32,60.0024001,,,,,,,,4,Ontime,long,j,1,2.0503,8,2,34,2,1,,,,,
,1.49,,,,,,,,,j,red,5da880819413e4001505d6b4,2021-11-01_13h28.51.639,forced_choiceRT_color,2021.2.3,Win32,60.0024001,,,,,,,,4,Ontime,long,j,1,2.0131,8,3,35,2,1,,,,,
,1.43,,,,,,,,,k,purple,5da880819413e4001505d6b4,2021-11-01_13h28.51.639,forced_choiceRT_color,2021.2.3,Win32,60.0024001,,,,,,,,4,Ontime,long,k,1,2.0186,9,0,36,3,1,,,,,
,1.04,,,,,,,,,j,red,5da880819413e4001505d6b4,2021-11-01_13h28.51.639,forced_choiceRT_color,2021.2.3,Win32,60.0024001,,,,,,,,4,Ontime,long,j,1,2.0296,9,1,37,2,1,,,,,
,0.38,,,,,,,,,j,red,5da880819413e4001505d6b4,2021-11-01_13h28.51.639,forced_choiceRT_color,2021.2.3,Win32,60.0024001,,,,,,,,4,Ontime,long,j,1,2.0464,9,2,38,2,1,,,,,
,1.5,,,,,,,,,k,purple,5da880819413e4001505d6b4,2021-11-01_13h28.51.639,forced_choiceRT_color,2021.2.3,Win32,60.0024001,,,,,,,,4,Ontime,long,k,1,2.0687,9,3,39,3,1,,,,,
,,,,,,,,,,,,5da880819413e4001505d6b4,2021-11-01_13h28.51.639,forced_choiceRT_color,2021.2.3,Win32,60.0024001,,,,,,,,,,,,,,,,,,,3,0,3,0,1
,0.87,,,,,,,,,k,purple,5da880819413e4001505d6b4,2021-11-01_13h28.51.639,forced_choiceRT_color,2021.2.3,Win32,60.0024001,,,,,,,,5,Ontime,long,k,1,2.051,0,0,0,3,1,,,,,
,1.7,,,,,,,,,k,purple,5da880819413e4001505d6b4,2021-11-01_13h28.51.639,forced_choiceRT_color,2021.2.3,Win32,60.0024001,,,,,,,,5,Ontime,long,j,0,2.0733,0,1,1,3,1,,,,,
,1.19,,,,,,,,,d,orange,5da880819413e4001505d6b4,2021-11-01_13h28.51.639,forced_choiceRT_color,2021.2.3,Win32,60.0024001,,,,,,,,5,Ontime,long,d,1,2.0388,0,2,2,0,1,,,,,
,1.28,,,,,,,,,j,red,5da880819413e4001505d6b4,2021-11-01_13h28.51.639,forced_choiceRT_color,2021.2.3,Win32,60.0024001,,,,,,,,5,Ontime,long,j,1,1.9063,0,3,3,2,1,,,,,
,0.15,,,,,,,,,f,blue,5da880819413e4001505d6b4,2021-11-01_13h28.51.639,forced_choiceRT_color,2021.2.3,Win32,60.0024001,,,,,,,,5,Ontime,long,f,1,2.0222,1,0,4,1,1,,,,,
,1,,,,,,,,,f,blue,5da880819413e4001505d6b4,2021-11-01_13h28.51.639,forced_choiceRT_color,2021.2.3,Win32,60.0024001,,,,,,,,5,Ontime,long,f,1,2.0699,1,1,5,1,1,,,,,
,1.8,,,,,,,,,k,purple,5da880819413e4001505d6b4,2021-11-01_13h28.51.639,forced_choiceRT_color,2021.2.3,Win32,60.0024001,,,,,,,,5,Ontime,long,j,0,2.0693,1,2,6,3,1,,,,,
,0.37,,,,,,,,,d,orange,5da880819413e4001505d6b4,2021-11-01_13h28.51.639,forced_choiceRT_color,2021.2.3,Win32,60.0024001,,,,,,,,5,Ontime,long,d,1,2.0731,1,3,7,0,1,,,,,
,0.03,,,,,,,,,f,blue,5da880819413e4001505d6b4,2021-11-01_13h28.51.639,forced_choiceRT_color,2021.2.3,Win32,60.0024001,,,,,,,,5,Ontime,long,f,1,2.0049,2,0,8,1,1,,,,,
,1.18,,,,,,,,,f,blue,5da880819413e4001505d6b4,2021-11-01_13h28.51.639,forced_choiceRT_color,2021.2.3,Win32,60.0024001,,,,,,,,5,Ontime,long,f,1,2.0284,2,1,9,1,1,,,,,
,0.96,,,,,,,,,j,red,5da880819413e4001505d6b4,2021-11-01_13h28.51.639,forced_choiceRT_color,2021.2.3,Win32,60.0024001,,,,,,,,5,Ontime,long,j,1,2.0469,2,2,10,2,1,,,,,
,1.05,,,,,,,,,d,orange,5da880819413e4001505d6b4,2021-11-01_13h28.51.639,forced_choiceRT_color,2021.2.3,Win32,60.0024001,,,,,,,,5,Ontime,long,d,1,2.0363,2,3,11,0,1,,,,,
,0.74,,,,,,,,,k,purple,5da880819413e4001505d6b4,2021-11-01_13h28.51.639,forced_choiceRT_color,2021.2.3,Win32,60.0024001,,,,,,,,5,Ontime,long,k,1,2.0254,3,0,12,3,1,,,,,
,0,,,,,,,,,d,orange,5da880819413e4001505d6b4,2021-11-01_13h28.51.639,forced_choiceRT_color,2021.2.3,Win32,60.0024001,,,,,,,,5,Ontime,long,d,1,1.9994,3,1,13,0,1,,,,,
,1.98,,,,,,,,,j,red,5da880819413e4001505d6b4,2021-11-01_13h28.51.639,forced_choiceRT_color,2021.2.3,Win32,60.0024001,,,,,,,,5,Ontime,long,j,1,2.0855,3,2,14,2,1,,,,,
,0.9,,,,,,,,,k,purple,5da880819413e4001505d6b4,2021-11-01_13h28.51.639,forced_choiceRT_color,2021.2.3,Win32,60.0024001,,,,,,,,5,Ontime,long,k,1,2.0643,3,3,15,3,1,,,,,
,1.56,,,,,,,,,f,blue,5da880819413e4001505d6b4,2021-11-01_13h28.51.639,forced_choiceRT_color,2021.2.3,Win32,60.0024001,,,,,,,,5,Ontime,long,d,0,2.0729,4,0,16,1,1,,,,,
,0.66,,,,,,,,,j,red,5da880819413e4001505d6b4,2021-11-01_13h28.51.639,forced_choiceRT_color,2021.2.3,Win32,60.0024001,,,,,,,,5,Ontime,long,j,1,2.0451,4,1,17,2,1,,,,,
,0.75,,,,,,,,,k,purple,5da880819413e4001505d6b4,2021-11-01_13h28.51.639,forced_choiceRT_color,2021.2.3,Win32,60.0024001,,,,,,,,5,Ontime,long,k,1,2.0512,4,2,18,3,1,,,,,
,1.99,,,,,,,,,j,red,5da880819413e4001505d6b4,2021-11-01_13h28.51.639,forced_choiceRT_color,2021.2.3,Win32,60.0024001,,,,,,,,5,Ontime,long,f,0,2.0212,4,3,19,2,1,,,,,
,0.11,,,,,,,,,d,orange,5da880819413e4001505d6b4,2021-11-01_13h28.51.639,forced_choiceRT_color,2021.2.3,Win32,60.0024001,,,,,,,,5,Ontime,long,d,1,2.0127,5,0,20,0,1,,,,,
,1.09,,,,,,,,,j,red,5da880819413e4001505d6b4,2021-11-01_13h28.51.639,forced_choiceRT_color,2021.2.3,Win32,60.0024001,,,,,,,,5,Ontime,long,j,1,2.0763,5,1,21,2,1,,,,,
,1.33,,,,,,,,,f,blue,5da880819413e4001505d6b4,2021-11-01_13h28.51.639,forced_choiceRT_color,2021.2.3,Win32,60.0024001,,,,,,,,5,Ontime,long,f,1,2.0198,5,2,22,1,1,,,,,
,0.5,,,,,,,,,d,orange,5da880819413e4001505d6b4,2021-11-01_13h28.51.639,forced_choiceRT_color,2021.2.3,Win32,60.0024001,,,,,,,,5,Slow,long,d,1,2.1076,5,3,23,0,1,,,,,
,1.92,,,,,,,,,k,purple,5da880819413e4001505d6b4,2021-11-01_13h28.51.639,forced_choiceRT_color,2021.2.3,Win32,60.0024001,,,,,,,,5,Ontime,long,j,0,2.0682,6,0,24,3,1,,,,,
,1.74,,,,,,,,,f,blue,5da880819413e4001505d6b4,2021-11-01_13h28.51.639,forced_choiceRT_color,2021.2.3,Win32,60.0024001,,,,,,,,5,Ontime,long,k,0,2.0195,6,1,25,1,1,,,,,
,1.45,,,,,,,,,f,blue,5da880819413e4001505d6b4,2021-11-01_13h28.51.639,forced_choiceRT_color,2021.2.3,Win32,60.0024001,,,,,,,,5,Ontime,long,f,1,1.9592,6,2,26,1,1,,,,,
,0.95,,,,,,,,,d,orange,5da880819413e4001505d6b4,2021-11-01_13h28.51.639,forced_choiceRT_color,2021.2.3,Win32,60.0024001,,,,,,,,5,Ontime,long,d,1,2.061,6,3,27,0,1,,,,,
,0.79,,,,,,,,,f,blue,5da880819413e4001505d6b4,2021-11-01_13h28.51.639,forced_choiceRT_color,2021.2.3,Win32,60.0024001,,,,,,,,5,Ontime,long,f,1,2.038,7,0,28,1,1,,,,,
,0.26,,,,,,,,,j,red,5da880819413e4001505d6b4,2021-11-01_13h28.51.639,forced_choiceRT_color,2021.2.3,Win32,60.0024001,,,,,,,,5,Slow,long,j,1,2.1041,7,1,29,2,1,,,,,
,1.36,,,,,,,,,k,purple,5da880819413e4001505d6b4,2021-11-01_13h28.51.639,forced_choiceRT_color,2021.2.3,Win32,60.0024001,,,,,,,,5,Slow,long,k,1,2.1267,7,2,30,3,1,,,,,
,0.74,,,,,,,,,d,orange,5da880819413e4001505d6b4,2021-11-01_13h28.51.639,forced_choiceRT_color,2021.2.3,Win32,60.0024001,,,,,,,,5,Ontime,long,d,1,1.9474,7,3,31,0,1,,,,,
,0.15,,,,,,,,,j,red,5da880819413e4001505d6b4,2021-11-01_13h28.51.639,forced_choiceRT_color,2021.2.3,Win32,60.0024001,,,,,,,,5,Ontime,long,j,1,1.956,8,0,32,2,1,,,,,
,1.33,,,,,,,,,k,purple,5da880819413e4001505d6b4,2021-11-01_13h28.51.639,forced_choiceRT_color,2021.2.3,Win32,60.0024001,,,,,,,,5,Ontime,long,k,1,2.0181,8,1,33,3,1,,,,,
,0.22,,,,,,,,,f,blue,5da880819413e4001505d6b4,2021-11-01_13h28.51.639,forced_choiceRT_color,2021.2.3,Win32,60.0024001,,,,,,,,5,Ontime,long,f,1,1.9491,8,2,34,1,1,,,,,
,0.64,,,,,,,,,k,purple,5da880819413e4001505d6b4,2021-11-01_13h28.51.639,forced_choiceRT_color,2021.2.3,Win32,60.0024001,,,,,,,,5,Ontime,long,k,1,1.962,8,3,35,3,1,,,,,
,1.39,,,,,,,,,j,red,5da880819413e4001505d6b4,2021-11-01_13h28.51.639,forced_choiceRT_color,2021.2.3,Win32,60.0024001,,,,,,,,5,Ontime,long,f,0,1.9613,9,0,36,2,1,,,,,
,0.82,,,,,,,,,d,orange,5da880819413e4001505d6b4,2021-11-01_13h28.51.639,forced_choiceRT_color,2021.2.3,Win32,60.0024001,,,,,,,,5,Ontime,long,d,1,1.9045,9,1,37,0,1,,,,,
,0.67,,,,,,,,,j,red,5da880819413e4001505d6b4,2021-11-01_13h28.51.639,forced_choiceRT_color,2021.2.3,Win32,60.0024001,,,,,,,,5,Fast,long,j,1,1.8206,9,2,38,2,1,,,,,
,0.85,,,,,,,,,d,orange,5da880819413e4001505d6b4,2021-11-01_13h28.51.639,forced_choiceRT_color,2021.2.3,Win32,60.0024001,,,,,,,,5,Ontime,long,d,1,1.9352,9,3,39,0,1,,,,,
,,,,,,,,,,,,5da880819413e4001505d6b4,2021-11-01_13h28.51.639,forced_choiceRT_color,2021.2.3,Win32,60.0024001,,,,,,,,,,,,,,,,,,,4,0,4,0,1
,1.38,,,,,,,,,k,purple,5da880819413e4001505d6b4,2021-11-01_13h28.51.639,forced_choiceRT_color,2021.2.3,Win32,60.0024001,,,,,,,,6,Ontime,long,k,1,1.9582,0,0,0,3,1,,,,,
,0.73,,,,,,,,,k,purple,5da880819413e4001505d6b4,2021-11-01_13h28.51.639,forced_choiceRT_color,2021.2.3,Win32,60.0024001,,,,,,,,6,Fast,long,k,1,1.8908,0,1,1,3,1,,,,,
,0.1,,,,,,,,,k,purple,5da880819413e4001505d6b4,2021-11-01_13h28.51.639,forced_choiceRT_color,2021.2.3,Win32,60.0024001,,,,,,,,6,Ontime,long,k,1,1.9454,0,2,2,3,1,,,,,
,1.42,,,,,,,,,d,orange,5da880819413e4001505d6b4,2021-11-01_13h28.51.639,forced_choiceRT_color,2021.2.3,Win32,60.0024001,,,,,,,,6,Ontime,long,d,1,1.9809,0,3,3,0,1,,,,,
,0.96,,,,,,,,,j,red,5da880819413e4001505d6b4,2021-11-01_13h28.51.639,forced_choiceRT_color,2021.2.3,Win32,60.0024001,,,,,,,,6,Ontime,long,j,1,1.9636,1,0,4,2,1,,,,,
,1.11,,,,,,,,,d,orange,5da880819413e4001505d6b4,2021-11-01_13h28.51.639,forced_choiceRT_color,2021.2.3,Win32,60.0024001,,,,,,,,6,Ontime,long,d,1,1.9286,1,1,5,0,1,,,,,
,1.52,,,,,,,,,j,red,5da880819413e4001505d6b4,2021-11-01_13h28.51.639,forced_choiceRT_color,2021.2.3,Win32,60.0024001,,,,,,,,6,Ontime,long,j,1,1.9495,1,2,6,2,1,,,,,
,1.11,,,,,,,,,d,orange,5da880819413e4001505d6b4,2021-11-01_13h28.51.639,forced_choiceRT_color,2021.2.3,Win32,60.0024001,,,,,,,,6,Ontime,long,d,1,1.9222,1,3,7,0,1,,,,,
,0.98,,,,,,,,,j,red,5da880819413e4001505d6b4,2021-11-01_13h28.51.639,forced_choiceRT_color,2021.2.3,Win32,60.0024001,,,,,,,,6,Ontime,long,j,1,1.9835,2,0,8,2,1,,,,,
,1.82,,,,,,,,,d,orange,5da880819413e4001505d6b4,2021-11-01_13h28.51.639,forced_choiceRT_color,2021.2.3,Win32,60.0024001,,,,,,,,6,Ontime,long,f,0,2.0533,2,1,9,0,1,,,,,
,0.93,,,,,,,,,f,blue,5da880819413e4001505d6b4,2021-11-01_13h28.51.639,forced_choiceRT_color,2021.2.3,Win32,60.0024001,,,,,,,,6,Fast,long,f,1,1.8925,2,2,10,1,1,,,,,
,1.34,,,,,,,,,j,red,5da880819413e4001505d6b4,2021-11-01_13h28.51.639,forced_choiceRT_color,2021.2.3,Win32,60.0024001,,,,,,,,6,Ontime,long,j,1,1.9962,2,3,11,2,1,,,,,
,0.74,,,,,,,,,f,blue,5da880819413e4001505d6b4,2021-11-01_13h28.51.639,forced_choiceRT_color,2021.2.3,Win32,60.0024001,,,,,,,,6,Ontime,long,f,1,2.0275,3,0,12,1,1,,,,,
,1.6,,,,,,,,,j,red,5da880819413e4001505d6b4,2021-11-01_13h28.51.639,forced_choiceRT_color,2021.2.3,Win32,60.0024001,,,,,,,,6,Ontime,long,d,0,1.9209,3,1,13,2,1,,,,,
,0.28,,,,,,,,,k,purple,5da880819413e4001505d6b4,2021-11-01_13h28.51.639,forced_choiceRT_color,2021.2.3,Win32,60.0024001,,,,,,,,6,Ontime,long,k,1,2.0023,3,2,14,3,1,,,,,
,0.36,,,,,,,,,f,blue,5da880819413e4001505d6b4,2021-11-01_13h28.51.639,forced_choiceRT_color,2021.2.3,Win32,60.0024001,,,,,,,,6,Ontime,long,f,1,1.992,3,3,15,1,1,,,,,
,1.93,,,,,,,,,k,purple,5da880819413e4001505d6b4,2021-11-01_13h28.51.639,forced_choiceRT_color,2021.2.3,Win32,60.0024001,,,,,,,,6,Ontime,long,j,0,2.0352,4,0,16,3,1,,,,,
,1.48,,,,,,,,,f,blue,5da880819413e4001505d6b4,2021-11-01_13h28.51.639,forced_choiceRT_color,2021.2.3,Win32,60.0024001,,,,,,,,6,Ontime,long,j,0,2.0391,4,1,17,1,1,,,,,
,1.95,,,,,,,,,k,purple,5da880819413e4001505d6b4,2021-11-01_13h28.51.639,forced_choiceRT_color,2021.2.3,Win32,60.0024001,,,,,,,,6,Ontime,long,k,1,1.9964,4,2,18,3,1,,,,,
,1.7,,,,,,,,,k,purple,5da880819413e4001505d6b4,2021-11-01_13h28.51.639,forced_choiceRT_color,2021.2.3,Win32,60.0024001,,,,,,,,6,Ontime,long,f,0,1.9393,4,3,19,3,1,,,,,
,0.31,,,,,,,,,k,purple,5da880819413e4001505d6b4,2021-11-01_13h28.51.639,forced_choiceRT_color,2021.2.3,Win32,60.0024001,,,,,,,,6,Ontime,long,k,1,2.013,5,0,20,3,1,,,,,
,0.33,,,,,,,,,j,red,5da880819413e4001505d6b4,2021-11-01_13h28.51.639,forced_choiceRT_color,2021.2.3,Win32,60.0024001,,,,,,,,6,Fast,long,f,0,1.8958,5,1,21,2,1,,,,,
,1.07,,,,,,,,,f,blue,5da880819413e4001505d6b4,2021-11-01_13h28.51.639,forced_choiceRT_color,2021.2.3,Win32,60.0024001,,,,,,,,6,Ontime,long,f,1,1.9642,5,2,22,1,1,,,,,
,0.15,,,,,,,,,f,blue,5da880819413e4001505d6b4,2021-11-01_13h28.51.639,forced_choiceRT_color,2021.2.3,Win32,60.0024001,,,,,,,,6,Ontime,long,f,1,1.9844,5,3,23,1,1,,,,,
,1.8,,,,,,,,,d,orange,5da880819413e4001505d6b4,2021-11-01_13h28.51.639,forced_choiceRT_color,2021.2.3,Win32,60.0024001,,,,,,,,6,Ontime,long,j,0,1.9818,6,0,24,0,1,,,,,
,1.18,,,,,,,,,f,blue,5da880819413e4001505d6b4,2021-11-01_13h28.51.639,forced_choiceRT_color,2021.2.3,Win32,60.0024001,,,,,,,,6,Ontime,long,f,1,1.9797,6,1,25,1,1,,,,,
,1.36,,,,,,,,,d,orange,5da880819413e4001505d6b4,2021-11-01_13h28.51.639,forced_choiceRT_color,2021.2.3,Win32,60.0024001,,,,,,,,6,Ontime,long,d,1,1.946,6,2,26,0,1,,,,,
,0.94,,,,,,,,,f,blue,5da880819413e4001505d6b4,2021-11-01_13h28.51.639,forced_choiceRT_color,2021.2.3,Win32,60.0024001,,,,,,,,6,Fast,long,f,1,1.875,6,3,27,1,1,,,,,
,1.71,,,,,,,,,j,red,5da880819413e4001505d6b4,2021-11-01_13h28.51.639,forced_choiceRT_color,2021.2.3,Win32,60.0024001,,,,,,,,6,Fast,long,f,0,1.6127,7,0,28,2,1,,,,,
,0.6,,,,,,,,,d,orange,5da880819413e4001505d6b4,2021-11-01_13h28.51.639,forced_choiceRT_color,2021.2.3,Win32,60.0024001,,,,,,,,6,Ontime,long,d,1,1.9815,7,1,29,0,1,,,,,
,1.53,,,,,,,,,f,blue,5da880819413e4001505d6b4,2021-11-01_13h28.51.639,forced_choiceRT_color,2021.2.3,Win32,60.0024001,,,,,,,,6,Ontime,long,f,1,1.9776,7,2,30,1,1,,,,,
,1.78,,,,,,,,,d,orange,5da880819413e4001505d6b4,2021-11-01_13h28.51.639,forced_choiceRT_color,2021.2.3,Win32,60.0024001,,,,,,,,6,Ontime,long,j,0,1.9803,7,3,31,0,1,,,,,
,1.32,,,,,,,,,d,orange,5da880819413e4001505d6b4,2021-11-01_13h28.51.639,forced_choiceRT_color,2021.2.3,Win32,60.0024001,,,,,,,,6,Fast,long,d,1,1.8799,8,0,32,0,1,,,,,
,1.65,,,,,,,,,k,purple,5da880819413e4001505d6b4,2021-11-01_13h28.51.639,forced_choiceRT_color,2021.2.3,Win32,60.0024001,,,,,,,,6,Ontime,long,f,0,1.9251,8,1,33,3,1,,,,,
,0.28,,,,,,,,,j,red,5da880819413e4001505d6b4,2021-11-01_13h28.51.639,forced_choiceRT_color,2021.2.3,Win32,60.0024001,,,,,,,,6,Ontime,long,j,1,1.9848,8,2,34,2,1,,,,,
,1.98,,,,,,,,,f,blue,5da880819413e4001505d6b4,2021-11-01_13h28.51.639,forced_choiceRT_color,2021.2.3,Win32,60.0024001,,,,,,,,6,Ontime,long,k,0,1.9409,8,3,35,1,1,,,,,
,1.96,,,,,,,,,j,red,5da880819413e4001505d6b4,2021-11-01_13h28.51.639,forced_choiceRT_color,2021.2.3,Win32,60.0024001,,,,,,,,6,Ontime,long,f,0,2.0028,9,0,36,2,1,,,,,
,0.28,,,,,,,,,k,purple,5da880819413e4001505d6b4,2021-11-01_13h28.51.639,forced_choiceRT_color,2021.2.3,Win32,60.0024001,,,,,,,,6,Ontime,long,k,1,1.9569,9,1,37,3,1,,,,,
,0.13,,,,,,,,,j,red,5da880819413e4001505d6b4,2021-11-01_13h28.51.639,forced_choiceRT_color,2021.2.3,Win32,60.0024001,,,,,,,,6,Ontime,long,j,1,2.0083,9,2,38,2,1,,,,,
,0.87,,,,,,,,,d,orange,5da880819413e4001505d6b4,2021-11-01_13h28.51.639,forced_choiceRT_color,2021.2.3,Win32,60.0024001,,,,,,,,6,Ontime,long,d,1,2.0544,9,3,39,0,1,,,,,
,,,,,,,,,,,,5da880819413e4001505d6b4,2021-11-01_13h28.51.639,forced_choiceRT_color,2021.2.3,Win32,60.0024001,,,,,,,,,,,,,,,,,,,5,0,5,0,1
,0.98,,,,,,,,,f,blue,5da880819413e4001505d6b4,2021-11-01_13h28.51.639,forced_choiceRT_color,2021.2.3,Win32,60.0024001,,,,,,,,7,Ontime,long,j,0,1.9789,0,0,0,1,1,,,,,
,0.65,,,,,,,,,k,purple,5da880819413e4001505d6b4,2021-11-01_13h28.51.639,forced_choiceRT_color,2021.2.3,Win32,60.0024001,,,,,,,,7,Ontime,long,k,1,1.9488,0,1,1,3,1,,,,,
,1.27,,,,,,,,,d,orange,5da880819413e4001505d6b4,2021-11-01_13h28.51.639,forced_choiceRT_color,2021.2.3,Win32,60.0024001,,,,,,,,7,Ontime,long,d,1,1.918,0,2,2,0,1,,,,,
,1.35,,,,,,,,,f,blue,5da880819413e4001505d6b4,2021-11-01_13h28.51.639,forced_choiceRT_color,2021.2.3,Win32,60.0024001,,,,,,,,7,Ontime,long,f,1,1.954,0,3,3,1,1,,,,,
,1.2,,,,,,,,,k,purple,5da880819413e4001505d6b4,2021-11-01_13h28.51.639,forced_choiceRT_color,2021.2.3,Win32,60.0024001,,,,,,,,7,Fast,long,k,1,1.8385,1,0,4,3,1,,,,,
,0.3,,,,,,,,,f,blue,5da880819413e4001505d6b4,2021-11-01_13h28.51.639,forced_choiceRT_color,2021.2.3,Win32,60.0024001,,,,,,,,7,Ontime,long,f,1,2.01,1,1,5,1,1,,,,,
,0.8,,,,,,,,,d,orange,5da880819413e4001505d6b4,2021-11-01_13h28.51.639,forced_choiceRT_color,2021.2.3,Win32,60.0024001,,,,,,,,7,Ontime,long,d,1,2.0152,1,2,6,0,1,,,,,
,0.07,,,,,,,,,k,purple,5da880819413e4001505d6b4,2021-11-01_13h28.51.639,forced_choiceRT_color,2021.2.3,Win32,60.0024001,,,,,,,,7,Ontime,long,k,1,2.0207,1,3,7,3,1,,,,,
,1.92,,,,,,,,,j,red,5da880819413e4001505d6b4,2021-11-01_13h28.51.639,forced_choiceRT_color,2021.2.3,Win32,60.0024001,,,,,,,,7,Ontime,long,j,1,1.9983,2,0,8,2,1,,,,,
,1.86,,,,,,,,,d,orange,5da880819413e4001505d6b4,2021-11-01_13h28.51.639,forced_choiceRT_color,2021.2.3,Win32,60.0024001,,,,,,,,7,Ontime,long,f,0,1.9527,2,1,9,0,1,,,,,
,0.1,,,,,,,,,j,red,5da880819413e4001505d6b4,2021-11-01_13h28.51.639,forced_choiceRT_color,2021.2.3,Win32,60.0024001,,,,,,,,7,Ontime,long,j,1,2.0252,2,2,10,2,1,,,,,
,1.97,,,,,,,,,f,blue,5da880819413e4001505d6b4,2021-11-01_13h28.51.639,forced_choiceRT_color,2021.2.3,Win32,60.0024001,,,,,,,,7,Ontime,long,k,0,1.9813,2,3,11,1,1,,,,,
,0.96,,,,,,,,,j,red,5da880819413e4001505d6b4,2021-11-01_13h28.51.639,forced_choiceRT_color,2021.2.3,Win32,60.0024001,,,,,,,,7,Ontime,long,j,1,1.9953,3,0,12,2,1,,,,,
,0.96,,,,,,,,,k,purple,5da880819413e4001505d6b4,2021-11-01_13h28.51.639,forced_choiceRT_color,2021.2.3,Win32,60.0024001,,,,,,,,7,Ontime,long,k,1,1.9484,3,1,13,3,1,,,,,
,1.13,,,,,,,,,k,purple,5da880819413e4001505d6b4,2021-11-01_13h28.51.639,forced_choiceRT_color,2021.2.3,Win32,60.0024001,,,,,,,,7,Ontime,long,k,1,1.9908,3,2,14,3,1,,,,,
,0.91,,,,,,,,,j,red,5da880819413e4001505d6b4,2021-11-01_13h28.51.639,forced_choiceRT_color,2021.2.3,Win32,60.0024001,,,,,,,,7,Ontime,long,j,1,1.9623,3,3,15,2,1,,,,,
,1.3,,,,,,,,,j,red,5da880819413e4001505d6b4,2021-11-01_13h28.51.639,forced_choiceRT_color,2021.2.3,Win32,60.0024001,,,,,,,,7,Ontime,long,j,1,2.0248,4,0,16,2,1,,,,,
,1.01,,,,,,,,,k,purple,5da880819413e4001505d6b4,2021-11-01_13h28.51.639,forced_choiceRT_color,2021.2.3,Win32,60.0024001,,,,,,,,7,Ontime,long,k,1,1.9827,4,1,17,3,1,,,,,
,1.94,,,,,,,,,f,blue,5da880819413e4001505d6b4,2021-11-01_13h28.51.639,forced_choiceRT_color,2021.2.3,Win32,60.0024001,,,,,,,,7,Slow,long,j,0,2.102,4,2,18,1,1,,,,,
,0.03,,,,,,,,,d,orange,5da880819413e4001505d6b4,2021-11-01_13h28.51.639,forced_choiceRT_color,2021.2.3,Win32,60.0024001,,,,,,,,7,Ontime,long,d,1,2.0837,4,3,19,0,1,,,,,
,0.66,,,,,,,,,j,red,5da880819413e4001505d6b4,2021-11-01_13h28.51.639,forced_choiceRT_color,2021.2.3,Win32,60.0024001,,,,,,,,7,Ontime,long,j,1,2.001,5,0,20,2,1,,,,,
,0.07,,,,,,,,,k,purple,5da880819413e4001505d6b4,2021-11-01_13h28.51.639,forced_choiceRT_color,2021.2.3,Win32,60.0024001,,,,,,,,7,Ontime,long,k,1,1.9952,5,1,21,3,1,,,,,
,1.5,,,,,,,,,j,red,5da880819413e4001505d6b4,2021-11-01_13h28.51.639,forced_choiceRT_color,2021.2.3,Win32,60.0024001,,,,,,,,7,Ontime,long,j,1,2.0841,5,2,22,2,1,,,,,
,0.44,,,,,,,,,d,orange,5da880819413e4001505d6b4,2021-11-01_13h28.51.639,forced_choiceRT_color,2021.2.3,Win32,60.0024001,,,,,,,,7,Ontime,long,d,1,1.9985,5,3,23,0,1,,,,,
,1.07,,,,,,,,,d,orange,5da880819413e4001505d6b4,2021-11-01_13h28.51.639,forced_choiceRT_color,2021.2.3,Win32,60.0024001,,,,,,,,7,Ontime,long,d,1,1.9648,6,0,24,0,1,,,,,
,1.87,,,,,,,,,j,red,5da880819413e4001505d6b4,2021-11-01_13h28.51.639,forced_choiceRT_color,2021.2.3,Win32,60.0024001,,,,,,,,7,Ontime,long,j,1,2.0164,6,1,25,2,1,,,,,
,0.24,,,,,,,,,k,purple,5da880819413e4001505d6b4,2021-11-01_13h28.51.639,forced_choiceRT_color,2021.2.3,Win32,60.0024001,,,,,,,,7,Ontime,long,k,1,2.038,6,2,26,3,1,,,,,
,1.88,,,,,,,,,d,orange,5da880819413e4001505d6b4,2021-11-01_13h28.51.639,forced_choiceRT_color,2021.2.3,Win32,60.0024001,,,,,,,,7,Fast,long,j,0,1.8987,6,3,27,0,1,,,,,
,1.6,,,,,,,,,f,blue,5da880819413e4001505d6b4,2021-11-01_13h28.51.639,forced_choiceRT_color,2021.2.3,Win32,60.0024001,,,,,,,,7,Ontime,long,j,0,1.9031,7,0,28,1,1,,,,,
,0.64,,,,,,,,,f,blue,5da880819413e4001505d6b4,2021-11-01_13h28.51.639,forced_choiceRT_color,2021.2.3,Win32,60.0024001,,,,,,,,7,Ontime,long,f,1,2.0596,7,1,29,1,1,,,,,
,0.21,,,,,,,,,f,blue,5da880819413e4001505d6b4,2021-11-01_13h28.51.639,forced_choiceRT_color,2021.2.3,Win32,60.0024001,,,,,,,,7,Ontime,long,f,1,2.04,7,2,30,1,1,,,,,
,1.84,,,,,,,,,k,purple,5da880819413e4001505d6b4,2021-11-01_13h28.51.639,forced_choiceRT_color,2021.2.3,Win32,60.0024001,,,,,,,,7,Ontime,long,j,0,1.9748,7,3,31,3,1,,,,,
,1.97,,,,,,,,,j,red,5da880819413e4001505d6b4,2021-11-01_13h28.51.639,forced_choiceRT_color,2021.2.3,Win32,60.0024001,,,,,,,,7,Ontime,long,k,0,1.9647,8,0,32,2,1,,,,,
,1.15,,,,,,,,,f,blue,5da880819413e4001505d6b4,2021-11-01_13h28.51.639,forced_choiceRT_color,2021.2.3,Win32,60.0024001,,,,,,,,7,Fast,long,f,1,1.8231,8,1,33,1,1,,,,,
,0.28,,,,,,,,,d,orange,5da880819413e4001505d6b4,2021-11-01_13h28.51.639,forced_choiceRT_color,2021.2.3,Win32,60.0024001,,,,,,,,7,Ontime,long,d,1,2.057,8,2,34,0,1,,,,,
,1.38,,,,,,,,,d,orange,5da880819413e4001505d6b4,2021-11-01_13h28.51.639,forced_choiceRT_color,2021.2.3,Win32,60.0024001,,,,,,,,7,Ontime,long,d,1,2.0126,8,3,35,0,1,,,,,
,1.85,,,,,,,,,f,blue,5da880819413e4001505d6b4,2021-11-01_13h28.51.639,forced_choiceRT_color,2021.2.3,Win32,60.0024001,,,,,,,,7,Ontime,long,j,0,2.0083,9,0,36,1,1,,,,,
,1.69,,,,,,,,,j,red,5da880819413e4001505d6b4,2021-11-01_13h28.51.639,forced_choiceRT_color,2021.2.3,Win32,60.0024001,,,,,,,,7,Ontime,long,j,1,1.9554,9,1,37,2,1,,,,,
,0.76,,,,,,,,,d,orange,5da880819413e4001505d6b4,2021-11-01_13h28.51.639,forced_choiceRT_color,2021.2.3,Win32,60.0024001,,,,,,,,7,Ontime,long,d,1,1.9846,9,2,38,0,1,,,,,
,1.97,,,,,,,,,k,purple,5da880819413e4001505d6b4,2021-11-01_13h28.51.639,forced_choiceRT_color,2021.2.3,Win32,60.0024001,,,,,,,,7,Ontime,long,j,0,1.9533,9,3,39,3,1,,,,,
,,,,,,,,,,,,5da880819413e4001505d6b4,2021-11-01_13h28.51.639,forced_choiceRT_color,2021.2.3,Win32,60.0024001,,,,,,,,,,,,,,,,,,,6,0,6,0,1
,1.07,,,,,,,,,k,purple,5da880819413e4001505d6b4,2021-11-01_13h28.51.639,forced_choiceRT_color,2021.2.3,Win32,60.0024001,,,,,,,,8,Ontime,long,k,1,2.02,0,0,0,3,1,,,,,
,1.35,,,,,,,,,j,red,5da880819413e4001505d6b4,2021-11-01_13h28.51.639,forced_choiceRT_color,2021.2.3,Win32,60.0024001,,,,,,,,8,Ontime,long,j,1,1.9954,0,1,1,2,1,,,,,
,0.49,,,,,,,,,k,purple,5da880819413e4001505d6b4,2021-11-01_13h28.51.639,forced_choiceRT_color,2021.2.3,Win32,60.0024001,,,,,,,,8,Ontime,long,k,1,2.0479,0,2,2,3,1,,,,,
,0.85,,,,,,,,,k,purple,5da880819413e4001505d6b4,2021-11-01_13h28.51.639,forced_choiceRT_color,2021.2.3,Win32,60.0024001,,,,,,,,8,Ontime,long,k,1,2.0179,0,3,3,3,1,,,,,
,0.46,,,,,,,,,k,purple,5da880819413e4001505d6b4,2021-11-01_13h28.51.639,forced_choiceRT_color,2021.2.3,Win32,60.0024001,,,,,,,,8,Ontime,long,k,1,2.0046,1,0,4,3,1,,,,,
,1.16,,,,,,,,,f,blue,5da880819413e4001505d6b4,2021-11-01_13h28.51.639,forced_choiceRT_color,2021.2.3,Win32,60.0024001,,,,,,,,8,Ontime,long,f,1,2.02,1,1,5,1,1,,,,,
,0.24,,,,,,,,,d,orange,5da880819413e4001505d6b4,2021-11-01_13h28.51.639,forced_choiceRT_color,2021.2.3,Win32,60.0024001,,,,,,,,8,Ontime,long,d,1,2.003,1,2,6,0,1,,,,,
,0.48,,,,,,,,,k,purple,5da880819413e4001505d6b4,2021-11-01_13h28.51.639,forced_choiceRT_color,2021.2.3,Win32,60.0024001,,,,,,,,8,Ontime,long,k,1,2.0333,1,3,7,3,1,,,,,
,0.27,,,,,,,,,f,blue,5da880819413e4001505d6b4,2021-11-01_13h28.51.639,forced_choiceRT_color,2021.2.3,Win32,60.0024001,,,,,,,,8,Ontime,long,f,1,1.9808,2,0,8,1,1,,,,,
,0.02,,,,,,,,,j,red,5da880819413e4001505d6b4,2021-11-01_13h28.51.639,forced_choiceRT_color,2021.2.3,Win32,60.0024001,,,,,,,,8,Ontime,long,j,1,1.9664,2,1,9,2,1,,,,,
,1.64,,,,,,,,,f,blue,5da880819413e4001505d6b4,2021-11-01_13h28.51.639,forced_choiceRT_color,2021.2.3,Win32,60.0024001,,,,,,,,8,Ontime,long,k,0,1.9783,2,2,10,1,1,,,,,
,0.52,,,,,,,,,j,red,5da880819413e4001505d6b4,2021-11-01_13h28.51.639,forced_choiceRT_color,2021.2.3,Win32,60.0024001,,,,,,,,8,Slow,long,j,1,2.1446,2,3,11,2,1,,,,,
,0.37,,,,,,,,,j,red,5da880819413e4001505d6b4,2021-11-01_13h28.51.639,forced_choiceRT_color,2021.2.3,Win32,60.0024001,,,,,,,,8,Ontime,long,j,1,1.988,3,0,12,2,1,,,,,
,1.12,,,,,,,,,k,purple,5da880819413e4001505d6b4,2021-11-01_13h28.51.639,forced_choiceRT_color,2021.2.3,Win32,60.0024001,,,,,,,,8,Ontime,long,k,1,1.9661,3,1,13,3,1,,,,,
,1.02,,,,,,,,,j,red,5da880819413e4001505d6b4,2021-11-01_13h28.51.639,forced_choiceRT_color,2021.2.3,Win32,60.0024001,,,,,,,,8,Ontime,long,j,1,1.9761,3,2,14,2,1,,,,,
,1.96,,,,,,,,,f,blue,5da880819413e4001505d6b4,2021-11-01_13h28.51.639,forced_choiceRT_color,2021.2.3,Win32,60.0024001,,,,,,,,8,Ontime,long,f,1,1.9677,3,3,15,1,1,,,,,
,0.52,,,,,,,,,j,red,5da880819413e4001505d6b4,2021-11-01_13h28.51.639,forced_choiceRT_color,2021.2.3,Win32,60.0024001,,,,,,,,8,Slow,long,j,1,2.1304,4,0,16,2,1,,,,,
,0.39,,,,,,,,,d,orange,5da880819413e4001505d6b4,2021-11-01_13h28.51.639,forced_choiceRT_color,2021.2.3,Win32,60.0024001,,,,,,,,8,Ontime,long,d,1,2.0403,4,1,17,0,1,,,,,
,0.28,,,,,,,,,f,blue,5da880819413e4001505d6b4,2021-11-01_13h28.51.639,forced_choiceRT_color,2021.2.3,Win32,60.0024001,,,,,,,,8,Ontime,long,f,1,1.9206,4,2,18,1,1,,,,,
,0.14,,,,,,,,,d,orange,5da880819413e4001505d6b4,2021-11-01_13h28.51.639,forced_choiceRT_color,2021.2.3,Win32,60.0024001,,,,,,,,8,Ontime,long,j,0,1.9021,4,3,19,0,1,,,,,
,0.47,,,,,,,,,d,orange,5da880819413e4001505d6b4,2021-11-01_13h28.51.639,forced_choiceRT_color,2021.2.3,Win32,60.0024001,,,,,,,,8,Fast,long,d,1,1.5656,5,0,20,0,1,,,,,
,0.65,,,,,,,,,f,blue,5da880819413e4001505d6b4,2021-11-01_13h28.51.639,forced_choiceRT_color,2021.2.3,Win32,60.0024001,,,,,,,,8,Fast,long,f,1,1.8863,5,1,21,1,1,,,,,
,0.14,,,,,,,,,d,orange,5da880819413e4001505d6b4,2021-11-01_13h28.51.639,forced_choiceRT_color,2021.2.3,Win32,60.0024001,,,,,,,,8,Ontime,long,d,1,1.9376,5,2,22,0,1,,,,,
,0.39,,,,,,,,,k,purple,5da880819413e4001505d6b4,2021-11-01_13h28.51.639,forced_choiceRT_color,2021.2.3,Win32,60.0024001,,,,,,,,8,Ontime,long,k,1,1.9307,5,3,23,3,1,,,,,
,1.29,,,,,,,,,j,red,5da880819413e4001505d6b4,2021-11-01_13h28.51.639,forced_choiceRT_color,2021.2.3,Win32,60.0024001,,,,,,,,8,Ontime,long,f,0,1.9513,6,0,24,2,1,,,,,
,1.37,,,,,,,,,j,red,5da880819413e4001505d6b4,2021-11-01_13h28.51.639,forced_choiceRT_color,2021.2.3,Win32,60.0024001,,,,,,,,8,Ontime,long,j,1,1.9641,6,1,25,2,1,,,,,
,0.77,,,,,,,,,f,blue,5da880819413e4001505d6b4,2021-11-01_13h28.51.639,forced_choiceRT_color,2021.2.3,Win32,60.0024001,,,,,,,,8,Ontime,long,f,1,1.9282,6,2,26,1,1,,,,,
,1.69,,,,,,,,,k,purple,5da880819413e4001505d6b4,2021-11-01_13h28.51.639,forced_choiceRT_color,2021.2.3,Win32,60.0024001,,,,,,,,8,Ontime,long,j,0,2.0244,6,3,27,3,1,,,,,
,0.53,,,,,,,,,j,red,5da880819413e4001505d6b4,2021-11-01_13h28.51.639,forced_choiceRT_color,2021.2.3,Win32,60.0024001,,,,,,,,8,Ontime,long,j,1,1.9369,7,0,28,2,1,,,,,
,0.15,,,,,,,,,j,red,5da880819413e4001505d6b4,2021-11-01_13h28.51.639,forced_choiceRT_color,2021.2.3,Win32,60.0024001,,,,,,,,8,Ontime,long,j,1,1.9793,7,1,29,2,1,,,,,
,1.79,,,,,,,,,k,purple,5da880819413e4001505d6b4,2021-11-01_13h28.51.639,forced_choiceRT_color,2021.2.3,Win32,60.0024001,,,,,,,,8,Ontime,long,f,0,1.9982,7,2,30,3,1,,,,,
,1.2,,,,,,,,,d,orange,5da880819413e4001505d6b4,2021-11-01_13h28.51.639,forced_choiceRT_color,2021.2.3,Win32,60.0024001,,,,,,,,8,Ontime,long,d,1,1.902,7,3,31,0,1,,,,,
,1.86,,,,,,,,,d,orange,5da880819413e4001505d6b4,2021-11-01_13h28.51.639,forced_choiceRT_color,2021.2.3,Win32,60.0024001,,,,,,,,8,Ontime,long,k,0,1.9809,8,0,32,0,1,,,,,
,0.72,,,,,,,,,k,purple,5da880819413e4001505d6b4,2021-11-01_13h28.51.639,forced_choiceRT_color,2021.2.3,Win32,60.0024001,,,,,,,,8,Ontime,long,k,1,2.0214,8,1,33,3,1,,,,,
,0.82,,,,,,,,,d,orange,5da880819413e4001505d6b4,2021-11-01_13h28.51.639,forced_choiceRT_color,2021.2.3,Win32,60.0024001,,,,,,,,8,Ontime,long,d,1,2.0359,8,2,34,0,1,,,,,
,0.47,,,,,,,,,f,blue,5da880819413e4001505d6b4,2021-11-01_13h28.51.639,forced_choiceRT_color,2021.2.3,Win32,60.0024001,,,,,,,,8,Ontime,long,f,1,1.9892,8,3,35,1,1,,,,,
,0.72,,,,,,,,,f,blue,5da880819413e4001505d6b4,2021-11-01_13h28.51.639,forced_choiceRT_color,2021.2.3,Win32,60.0024001,,,,,,,,8,Ontime,long,f,1,1.9651,9,0,36,1,1,,,,,
,0.22,,,,,,,,,d,orange,5da880819413e4001505d6b4,2021-11-01_13h28.51.639,forced_choiceRT_color,2021.2.3,Win32,60.0024001,,,,,,,,8,Ontime,long,d,1,1.9479,9,1,37,0,1,,,,,
,0.55,,,,,,,,,f,blue,5da880819413e4001505d6b4,2021-11-01_13h28.51.639,forced_choiceRT_color,2021.2.3,Win32,60.0024001,,,,,,,,8,Ontime,long,f,1,1.9613,9,2,38,1,1,,,,,
,0.44,,,,,,,,,d,orange,5da880819413e4001505d6b4,2021-11-01_13h28.51.639,forced_choiceRT_color,2021.2.3,Win32,60.0024001,,,,,,,,8,Ontime,long,d,1,2.0193,9,3,39,0,1,,,,,
,,,,,,,,,,,,5da880819413e4001505d6b4,2021-11-01_13h28.51.639,forced_choiceRT_color,2021.2.3,Win32,60.0024001,,,,,,,,,,,,,,,,,,,7,0,7,0,1
,1.93,,,,,,,,,d,orange,5da880819413e4001505d6b4,2021-11-01_13h28.51.639,forced_choiceRT_color,2021.2.3,Win32,60.0024001,,,,,,,,9,Ontime,long,j,0,2.0179,0,0,0,0,1,,,,,
,0.36,,,,,,,,,j,red,5da880819413e4001505d6b4,2021-11-01_13h28.51.639,forced_choiceRT_color,2021.2.3,Win32,60.0024001,,,,,,,,9,Ontime,long,j,1,2.0348,0,1,1,2,1,,,,,
,1.51,,,,,,,,,j,red,5da880819413e4001505d6b4,2021-11-01_13h28.51.639,forced_choiceRT_color,2021.2.3,Win32,60.0024001,,,,,,,,9,Ontime,long,k,0,1.9643,0,2,2,2,1,,,,,
,1.17,,,,,,,,,d,orange,5da880819413e4001505d6b4,2021-11-01_13h28.51.639,forced_choiceRT_color,2021.2.3,Win32,60.0024001,,,,,,,,9,Ontime,long,d,1,1.9378,0,3,3,0,1,,,,,
,0.51,,,,,,,,,f,blue,5da880819413e4001505d6b4,2021-11-01_13h28.51.639,forced_choiceRT_color,2021.2.3,Win32,60.0024001,,,,,,,,9,Ontime,long,f,1,1.9899,1,0,4,1,1,,,,,
,1.17,,,,,,,,,f,blue,5da880819413e4001505d6b4,2021-11-01_13h28.51.639,forced_choiceRT_color,2021.2.3,Win32,60.0024001,,,,,,,,9,Ontime,long,f,1,1.9843,1,1,5,1,1,,,,,
,1.19,,,,,,,,,f,blue,5da880819413e4001505d6b4,2021-11-01_13h28.51.639,forced_choiceRT_color,2021.2.3,Win32,60.0024001,,,,,,,,9,Ontime,long,f,1,2.0061,1,2,6,1,1,,,,,
,1.96,,,,,,,,,k,purple,5da880819413e4001505d6b4,2021-11-01_13h28.51.639,forced_choiceRT_color,2021.2.3,Win32,60.0024001,,,,,,,,9,Ontime,long,k,1,1.9988,1,3,7,3,1,,,,,
,1.73,,,,,,,,,f,blue,5da880819413e4001505d6b4,2021-11-01_13h28.51.639,forced_choiceRT_color,2021.2.3,Win32,60.0024001,,,,,,,,9,Ontime,long,j,0,1.947,2,0,8,1,1,,,,,
,1.67,,,,,,,,,k,purple,5da880819413e4001505d6b4,2021-11-01_13h28.51.639,forced_choiceRT_color,2021.2.3,Win32,60.0024001,,,,,,,,9,Ontime,long,f,0,1.9286,2,1,9,3,1,,,,,
,1.38,,,,,,,,,d,orange,5da880819413e4001505d6b4,2021-11-01_13h28.51.639,forced_choiceRT_color,2021.2.3,Win32,60.0024001,,,,,,,,9,Ontime,long,d,1,2.0666,2,2,10,0,1,,,,,
,0.41,,,,,,,,,d,orange,5da880819413e4001505d6b4,2021-11-01_13h28.51.639,forced_choiceRT_color,2021.2.3,Win32,60.0024001,,,,,,,,9,Ontime,long,d,1,2.0697,2,3,11,0,1,,,,,
,1.08,,,,,,,,,f,blue,5da880819413e4001505d6b4,2021-11-01_13h28.51.639,forced_choiceRT_color,2021.2.3,Win32,60.0024001,,,,,,,,9,Ontime,long,f,1,1.9669,3,0,12,1,1,,,,,
,1.54,,,,,,,,,k,purple,5da880819413e4001505d6b4,2021-11-01_13h28.51.639,forced_choiceRT_color,2021.2.3,Win32,60.0024001,,,,,,,,9,Slow,long,k,1,2.1293,3,1,13,3,1,,,,,
,1.03,,,,,,,,,d,orange,5da880819413e4001505d6b4,2021-11-01_13h28.51.639,forced_choiceRT_color,2021.2.3,Win32,60.0024001,,,,,,,,9,Ontime,long,d,1,2.0321,3,2,14,0,1,,,,,
,1.29,,,,,,,,,d,orange,5da880819413e4001505d6b4,2021-11-01_13h28.51.639,forced_choiceRT_color,2021.2.3,Win32,60.0024001,,,,,,,,9,Ontime,long,d,1,1.9681,3,3,15,0,1,,,,,
,1.05,,,,,,,,,k,purple,5da880819413e4001505d6b4,2021-11-01_13h28.51.639,forced_choiceRT_color,2021.2.3,Win32,60.0024001,,,,,,,,9,Ontime,long,k,1,2.0198,4,0,16,3,1,,,,,
,1.46,,,,,,,,,j,red,5da880819413e4001505d6b4,2021-11-01_13h28.51.639,forced_choiceRT_color,2021.2.3,Win32,60.0024001,,,,,,,,9,Ontime,long,j,1,2.0024,4,1,17,2,1,,,,,
,1.82,,,,,,,,,k,purple,5da880819413e4001505d6b4,2021-11-01_13h28.51.639,forced_choiceRT_color,2021.2.3,Win32,60.0024001,,,,,,,,9,Ontime,long,j,0,2.0198,4,2,18,3,1,,,,,
,0.18,,,,,,,,,j,red,5da880819413e4001505d6b4,2021-11-01_13h28.51.639,forced_choiceRT_color,2021.2.3,Win32,60.0024001,,,,,,,,9,Ontime,long,j,1,1.9415,4,3,19,2,1,,,,,
,0.85,,,,,,,,,k,purple,5da880819413e4001505d6b4,2021-11-01_13h28.51.639,forced_choiceRT_color,2021.2.3,Win32,60.0024001,,,,,,,,9,Ontime,long,k,1,1.966,5,0,20,3,1,,,,,
,0.74,,,,,,,,,f,blue,5da880819413e4001505d6b4,2021-11-01_13h28.51.639,forced_choiceRT_color,2021.2.3,Win32,60.0024001,,,,,,,,9,Ontime,long,f,1,1.9974,5,1,21,1,1,,,,,
,1.64,,,,,,,,,f,blue,5da880819413e4001505d6b4,2021-11-01_13h28.51.639,forced_choiceRT_color,2021.2.3,Win32,60.0024001,,,,,,,,9,Ontime,long,d,0,2.0594,5,2,22,1,1,,,,,
,1.68,,,,,,,,,j,red,5da880819413e4001505d6b4,2021-11-01_13h28.51.639,forced_choiceRT_color,2021.2.3,Win32,60.0024001,,,,,,,,9,Ontime,long,d,0,2.0211,5,3,23,2,1,,,,,
,1.92,,,,,,,,,j,red,5da880819413e4001505d6b4,2021-11-01_13h28.51.639,forced_choiceRT_color,2021.2.3,Win32,60.0024001,,,,,,,,9,Ontime,long,j,1,2.0348,6,0,24,2,1,,,,,
,0,,,,,,,,,j,red,5da880819413e4001505d6b4,2021-11-01_13h28.51.639,forced_choiceRT_color,2021.2.3,Win32,60.0024001,,,,,,,,9,Ontime,long,j,1,2.0076,6,1,25,2,1,,,,,
,1.07,,,,,,,,,f,blue,5da880819413e4001505d6b4,2021-11-01_13h28.51.639,forced_choiceRT_color,2021.2.3,Win32,60.0024001,,,,,,,,9,Ontime,long,f,1,2.0547,6,2,26,1,1,,,,,
,1.62,,,,,,,,,j,red,5da880819413e4001505d6b4,2021-11-01_13h28.51.639,forced_choiceRT_color,2021.2.3,Win32,60.0024001,,,,,,,,9,Fast,long,k,0,1.8375,6,3,27,2,1,,,,,
,1.13,,,,,,,,,k,purple,5da880819413e4001505d6b4,2021-11-01_13h28.51.639,forced_choiceRT_color,2021.2.3,Win32,60.0024001,,,,,,,,9,Ontime,long,k,1,2.0138,7,0,28,3,1,,,,,
,1.96,,,,,,,,,f,blue,5da880819413e4001505d6b4,2021-11-01_13h28.51.639,forced_choiceRT_color,2021.2.3,Win32,60.0024001,,,,,,,,9,Ontime,long,j,0,2.0533,7,1,29,1,1,,,,,
,1.66,,,,,,,,,f,blue,5da880819413e4001505d6b4,2021-11-01_13h28.51.639,forced_choiceRT_color,2021.2.3,Win32,60.0024001,,,,,,,,9,Slow,long,f,1,2.145,7,2,30,1,1,,,,,
,1.81,,,,,,,,,d,orange,5da880819413e4001505d6b4,2021-11-01_13h28.51.639,forced_choiceRT_color,2021.2.3,Win32,60.0024001,,,,,,,,9,Ontime,long,j,0,2.005,7,3,31,0,1,,,,,
,1.52,,,,,,,,,d,orange,5da880819413e4001505d6b4,2021-11-01_13h28.51.639,forced_choiceRT_color,2021.2.3,Win32,60.0024001,,,,,,,,9,Ontime,long,f,0,1.9619,8,0,32,0,1,,,,,
,0.97,,,,,,,,,k,purple,5da880819413e4001505d6b4,2021-11-01_13h28.51.639,forced_choiceRT_color,2021.2.3,Win32,60.0024001,,,,,,,,9,Ontime,long,k,1,2.0841,8,1,33,3,1,,,,,
,1.82,,,,,,,,,k,purple,5da880819413e4001505d6b4,2021-11-01_13h28.51.639,forced_choiceRT_color,2021.2.3,Win32,60.0024001,,,,,,,,9,Ontime,long,j,0,2.0244,8,2,34,3,1,,,,,
,0.4,,,,,,,,,j,red,5da880819413e4001505d6b4,2021-11-01_13h28.51.639,forced_choiceRT_color,2021.2.3,Win32,60.0024001,,,,,,,,9,Ontime,long,j,1,2.0187,8,3,35,2,1,,,,,
,0.35,,,,,,,,,d,orange,5da880819413e4001505d6b4,2021-11-01_13h28.51.639,forced_choiceRT_color,2021.2.3,Win32,60.0024001,,,,,,,,9,Slow,long,d,1,2.1182,9,0,36,0,1,,,,,
,1.77,,,,,,,,,k,purple,5da880819413e4001505d6b4,2021-11-01_13h28.51.639,forced_choiceRT_color,2021.2.3,Win32,60.0024001,,,,,,,,9,Ontime,long,k,1,1.9541,9,1,37,3,1,,,,,
,0.2,,,,,,,,,j,red,5da880819413e4001505d6b4,2021-11-01_13h28.51.639,forced_choiceRT_color,2021.2.3,Win32,60.0024001,,,,,,,,9,Ontime,long,j,1,1.9891,9,2,38,2,1,,,,,
,0.86,,,,,,,,,d,orange,5da880819413e4001505d6b4,2021-11-01_13h28.51.639,forced_choiceRT_color,2021.2.3,Win32,60.0024001,,,,,,,,9,Ontime,long,d,1,1.9992,9,3,39,0,1,,,,,
,,,,,,,,,,,,5da880819413e4001505d6b4,2021-11-01_13h28.51.639,forced_choiceRT_color,2021.2.3,Win32,60.0024001,,,,,,,,,,,,,,,,,,,8,0,8,0,1
,0.61,,,,,,,,,j,red,5da880819413e4001505d6b4,2021-11-01_13h28.51.639,forced_choiceRT_color,2021.2.3,Win32,60.0024001,,,,,,,,10,Ontime,long,j,1,1.9562,0,0,0,2,1,,,,,
,1.31,,,,,,,,,k,purple,5da880819413e4001505d6b4,2021-11-01_13h28.51.639,forced_choiceRT_color,2021.2.3,Win32,60.0024001,,,,,,,,10,Ontime,long,k,1,1.9791,0,1,1,3,1,,,,,
,0.95,,,,,,,,,d,orange,5da880819413e4001505d6b4,2021-11-01_13h28.51.639,forced_choiceRT_color,2021.2.3,Win32,60.0024001,,,,,,,,10,Ontime,long,d,1,1.9905,0,2,2,0,1,,,,,
,0.56,,,,,,,,,f,blue,5da880819413e4001505d6b4,2021-11-01_13h28.51.639,forced_choiceRT_color,2021.2.3,Win32,60.0024001,,,,,,,,10,Ontime,long,f,1,2.0138,0,3,3,1,1,,,,,
,0.16,,,,,,,,,j,red,5da880819413e4001505d6b4,2021-11-01_13h28.51.639,forced_choiceRT_color,2021.2.3,Win32,60.0024001,,,,,,,,10,Ontime,long,j,1,1.9682,1,0,4,2,1,,,,,
,1.23,,,,,,,,,k,purple,5da880819413e4001505d6b4,2021-11-01_13h28.51.639,forced_choiceRT_color,2021.2.3,Win32,60.0024001,,,,,,,,10,Ontime,long,k,1,2.0129,1,1,5,3,1,,,,,
,0.11,,,,,,,,,j,red,5da880819413e4001505d6b4,2021-11-01_13h28.51.639,forced_choiceRT_color,2021.2.3,Win32,60.0024001,,,,,,,,10,Slow,long,j,1,2.1745,1,2,6,2,1,,,,,
,0.46,,,,,,,,,d,orange,5da880819413e4001505d6b4,2021-11-01_13h28.51.639,forced_choiceRT_color,2021.2.3,Win32,60.0024001,,,,,,,,10,Ontime,long,d,1,1.9396,1,3,7,0,1,,,,,
,0.69,,,,,,,,,j,red,5da880819413e4001505d6b4,2021-11-01_13h28.51.639,forced_choiceRT_color,2021.2.3,Win32,60.0024001,,,,,,,,10,Ontime,long,j,1,1.9849,2,0,8,2,1,,,,,
,1.62,,,,,,,,,k,purple,5da880819413e4001505d6b4,2021-11-01_13h28.51.639,forced_choiceRT_color,2021.2.3,Win32,60.0024001,,,,,,,,10,Fast,long,k,1,1.8945,2,1,9,3,1,,,,,
,1.08,,,,,,,,,j,red,5da880819413e4001505d6b4,2021-11-01_13h28.51.639,forced_choiceRT_color,2021.2.3,Win32,60.0024001,,,,,,,,10,Ontime,long,j,1,2.0279,2,2,10,2,1,,,,,
,0.13,,,,,,,,,f,blue,5da880819413e4001505d6b4,2021-11-01_13h28.51.639,forced_choiceRT_color,2021.2.3,Win32,60.0024001,,,,,,,,10,Ontime,long,f,1,1.9638,2,3,11,1,1,,,,,
,1.99,,,,,,,,,k,purple,5da880819413e4001505d6b4,2021-11-01_13h28.51.639,forced_choiceRT_color,2021.2.3,Win32,60.0024001,,,,,,,,10,Ontime,long,j,0,1.9368,3,0,12,3,1,,,,,
,0.59,,,,,,,,,d,orange,5da880819413e4001505d6b4,2021-11-01_13h28.51.639,forced_choiceRT_color,2021.2.3,Win32,60.0024001,,,,,,,,10,Ontime,long,d,1,1.9854,3,1,13,0,1,,,,,
,0.38,,,,,,,,,k,purple,5da880819413e4001505d6b4,2021-11-01_13h28.51.639,forced_choiceRT_color,2021.2.3,Win32,60.0024001,,,,,,,,10,Ontime,long,k,1,1.9815,3,2,14,3,1,,,,,
,1.17,,,,,,,,,k,purple,5da880819413e4001505d6b4,2021-11-01_13h28.51.639,forced_choiceRT_color,2021.2.3,Win32,60.0024001,,,,,,,,10,Ontime,long,k,1,1.9309,3,3,15,3,1,,,,,
,1.24,,,,,,,,,f,blue,5da880819413e4001505d6b4,2021-11-01_13h28.51.639,forced_choiceRT_color,2021.2.3,Win32,60.0024001,,,,,,,,10,Ontime,long,f,1,1.9309,4,0,16,1,1,,,,,
,0.54,,,,,,,,,j,red,5da880819413e4001505d6b4,2021-11-01_13h28.51.639,forced_choiceRT_color,2021.2.3,Win32,60.0024001,,,,,,,,10,Ontime,long,j,1,1.9509,4,1,17,2,1,,,,,
,1.96,,,,,,,,,d,orange,5da880819413e4001505d6b4,2021-11-01_13h28.51.639,forced_choiceRT_color,2021.2.3,Win32,60.0024001,,,,,,,,10,Ontime,long,k,0,1.9543,4,2,18,0,1,,,,,
,1.02,,,,,,,,,d,orange,5da880819413e4001505d6b4,2021-11-01_13h28.51.639,forced_choiceRT_color,2021.2.3,Win32,60.0024001,,,,,,,,10,Ontime,long,d,1,2.0124,4,3,19,0,1,,,,,
,0.49,,,,,,,,,j,red,5da880819413e4001505d6b4,2021-11-01_13h28.51.639,forced_choiceRT_color,2021.2.3,Win32,60.0024001,,,,,,,,10,Ontime,long,j,1,1.9546,5,0,20,2,1,,,,,
,0.24,,,,,,,,,d,orange,5da880819413e4001505d6b4,2021-11-01_13h28.51.639,forced_choiceRT_color,2021.2.3,Win32,60.0024001,,,,,,,,10,Ontime,long,d,1,1.9853,5,1,21,0,1,,,,,
,1.21,,,,,,,,,d,orange,5da880819413e4001505d6b4,2021-11-01_13h28.51.639,forced_choiceRT_color,2021.2.3,Win32,60.0024001,,,,,,,,10,Ontime,long,d,1,1.9074,5,2,22,0,1,,,,,
,1.43,,,,,,,,,d,orange,5da880819413e4001505d6b4,2021-11-01_13h28.51.639,forced_choiceRT_color,2021.2.3,Win32,60.0024001,,,,,,,,10,Ontime,long,d,1,1.9887,5,3,23,0,1,,,,,
,1.36,,,,,,,,,f,blue,5da880819413e4001505d6b4,2021-11-01_13h28.51.639,forced_choiceRT_color,2021.2.3,Win32,60.0024001,,,,,,,,10,Ontime,long,f,1,2.0499,6,0,24,1,1,,,,,
,1.46,,,,,,,,,j,red,5da880819413e4001505d6b4,2021-11-01_13h28.51.639,forced_choiceRT_color,2021.2.3,Win32,60.0024001,,,,,,,,10,Fast,long,j,1,1.7977,6,1,25,2,1,,,,,
,1.46,,,,,,,,,j,red,5da880819413e4001505d6b4,2021-11-01_13h28.51.639,forced_choiceRT_color,2021.2.3,Win32,60.0024001,,,,,,,,10,Ontime,long,j,1,1.9823,6,2,26,2,1,,,,,
,1.84,,,,,,,,,j,red,5da880819413e4001505d6b4,2021-11-01_13h28.51.639,forced_choiceRT_color,2021.2.3,Win32,60.0024001,,,,,,,,10,Ontime,long,f,0,1.9368,6,3,27,2,1,,,,,
,0.14,,,,,,,,,k,purple,5da880819413e4001505d6b4,2021-11-01_13h28.51.639,forced_choiceRT_color,2021.2.3,Win32,60.0024001,,,,,,,,10,Ontime,long,k,1,2.0112,7,0,28,3,1,,,,,
,1.84,,,,,,,,,f,blue,5da880819413e4001505d6b4,2021-11-01_13h28.51.639,forced_choiceRT_color,2021.2.3,Win32,60.0024001,,,,,,,,10,Ontime,long,j,0,2.0111,7,1,29,1,1,,,,,
,1.6,,,,,,,,,d,orange,5da880819413e4001505d6b4,2021-11-01_13h28.51.639,forced_choiceRT_color,2021.2.3,Win32,60.0024001,,,,,,,,10,Fast,long,j,0,1.8955,7,2,30,0,1,,,,,
,0.46,,,,,,,,,f,blue,5da880819413e4001505d6b4,2021-11-01_13h28.51.639,forced_choiceRT_color,2021.2.3,Win32,60.0024001,,,,,,,,10,Ontime,long,f,1,1.9473,7,3,31,1,1,,,,,
,0.62,,,,,,,,,k,purple,5da880819413e4001505d6b4,2021-11-01_13h28.51.639,forced_choiceRT_color,2021.2.3,Win32,60.0024001,,,,,,,,10,Ontime,long,k,1,1.9871,8,0,32,3,1,,,,,
,0.68,,,,,,,,,f,blue,5da880819413e4001505d6b4,2021-11-01_13h28.51.639,forced_choiceRT_color,2021.2.3,Win32,60.0024001,,,,,,,,10,Ontime,long,f,1,1.9556,8,1,33,1,1,,,,,
,0.08,,,,,,,,,k,purple,5da880819413e4001505d6b4,2021-11-01_13h28.51.639,forced_choiceRT_color,2021.2.3,Win32,60.0024001,,,,,,,,10,Ontime,long,k,1,1.9591,8,2,34,3,1,,,,,
,1.99,,,,,,,,,d,orange,5da880819413e4001505d6b4,2021-11-01_13h28.51.639,forced_choiceRT_color,2021.2.3,Win32,60.0024001,,,,,,,,10,Ontime,long,f,0,1.9797,8,3,35,0,1,,,,,
,1.77,,,,,,,,,f,blue,5da880819413e4001505d6b4,2021-11-01_13h28.51.639,forced_choiceRT_color,2021.2.3,Win32,60.0024001,,,,,,,,10,Ontime,long,j,0,1.9743,9,0,36,1,1,,,,,
,1.53,,,,,,,,,f,blue,5da880819413e4001505d6b4,2021-11-01_13h28.51.639,forced_choiceRT_color,2021.2.3,Win32,60.0024001,,,,,,,,10,Ontime,long,f,1,2.0342,9,1,37,1,1,,,,,
,0.33,,,,,,,,,f,blue,5da880819413e4001505d6b4,2021-11-01_13h28.51.639,forced_choiceRT_color,2021.2.3,Win32,60.0024001,,,,,,,,10,Ontime,long,f,1,1.9464,9,2,38,1,1,,,,,
,0.76,,,,,,,,,k,purple,5da880819413e4001505d6b4,2021-11-01_13h28.51.639,forced_choiceRT_color,2021.2.3,Win32,60.0024001,,,,,,,,10,Ontime,long,k,1,2.0005,9,3,39,3,1,,,,,
,,,,,,,,,,,,5da880819413e4001505d6b4,2021-11-01_13h28.51.639,forced_choiceRT_color,2021.2.3,Win32,60.0024001,,,,,,,,,,,,,,,,,,,9,0,9,0,1
