target_onset,trial_resp_sp.keys,trial_resp_sp.corr,trial_resp_sp.rt,trials_train_loop.thisRepN,trials_train_loop.thisTrialN,trials_train_loop.thisN,trials_train_loop.thisIndex,trials_train_loop.ran,correct_key,color,participant,date,expName,psychopyVersion,OS,frameRate,trial_resp_timing.keys,trial_resp_timing.rt,trials_train_timing.thisRepN,trials_train_timing.thisTrialN,trials_train_timing.thisN,trials_train_timing.thisIndex,trials_train_timing.ran,block_id,ontime,feedback_cond,forcedRT_resp.keys,forcedRT_resp.corr,forcedRT_resp.rt,trials.thisRepN,trials.thisTrialN,trials.thisN,trials.thisIndex,trials.ran,blocks.thisRepN,blocks.thisTrialN,blocks.thisN,blocks.thisIndex,blocks.ran
0,k,1,2.517,0,0,0,3,1,k,purple,5daca5b06aa37b00126c8d41,2021-09-27_18h34.05.327,forced_choiceRT_color,2021.2.3,Win32,60.0240096,,,,,,,,,,,,,,,,,,,,,,,
0,f,1,1.549,0,1,1,1,1,f,blue,5daca5b06aa37b00126c8d41,2021-09-27_18h34.05.327,forced_choiceRT_color,2021.2.3,Win32,60.0240096,,,,,,,,,,,,,,,,,,,,,,,
0,d,1,2.317,0,2,2,0,1,d,orange,5daca5b06aa37b00126c8d41,2021-09-27_18h34.05.327,forced_choiceRT_color,2021.2.3,Win32,60.0240096,,,,,,,,,,,,,,,,,,,,,,,
0,f,1,1.205,0,3,3,1,1,f,blue,5daca5b06aa37b00126c8d41,2021-09-27_18h34.05.327,forced_choiceRT_color,2021.2.3,Win32,60.0240096,,,,,,,,,,,,,,,,,,,,,,,
0,j,1,0.852,1,0,4,2,1,j,red,5daca5b06aa37b00126c8d41,2021-09-27_18h34.05.327,forced_choiceRT_color,2021.2.3,Win32,60.0240096,,,,,,,,,,,,,,,,,,,,,,,
0,k,1,0.804,1,1,5,3,1,k,purple,5daca5b06aa37b00126c8d41,2021-09-27_18h34.05.327,forced_choiceRT_color,2021.2.3,Win32,60.0240096,,,,,,,,,,,,,,,,,,,,,,,
0,k,1,0.969,1,2,6,3,1,k,purple,5daca5b06aa37b00126c8d41,2021-09-27_18h34.05.327,forced_choiceRT_color,2021.2.3,Win32,60.0240096,,,,,,,,,,,,,,,,,,,,,,,
0,j,1,0.585,1,3,7,2,1,j,red,5daca5b06aa37b00126c8d41,2021-09-27_18h34.05.327,forced_choiceRT_color,2021.2.3,Win32,60.0240096,,,,,,,,,,,,,,,,,,,,,,,
0,f,1,0.602,2,0,8,1,1,f,blue,5daca5b06aa37b00126c8d41,2021-09-27_18h34.05.327,forced_choiceRT_color,2021.2.3,Win32,60.0240096,,,,,,,,,,,,,,,,,,,,,,,
0,j,1,1.551,2,1,9,2,1,j,red,5daca5b06aa37b00126c8d41,2021-09-27_18h34.05.327,forced_choiceRT_color,2021.2.3,Win32,60.0240096,,,,,,,,,,,,,,,,,,,,,,,
0,f,1,1.171,2,2,10,1,1,f,blue,5daca5b06aa37b00126c8d41,2021-09-27_18h34.05.327,forced_choiceRT_color,2021.2.3,Win32,60.0240096,,,,,,,,,,,,,,,,,,,,,,,
0,k,1,1.482,2,3,11,3,1,k,purple,5daca5b06aa37b00126c8d41,2021-09-27_18h34.05.327,forced_choiceRT_color,2021.2.3,Win32,60.0240096,,,,,,,,,,,,,,,,,,,,,,,
0,f,1,1.4,3,0,12,1,1,f,blue,5daca5b06aa37b00126c8d41,2021-09-27_18h34.05.327,forced_choiceRT_color,2021.2.3,Win32,60.0240096,,,,,,,,,,,,,,,,,,,,,,,
0,k,1,1.151,3,1,13,3,1,k,purple,5daca5b06aa37b00126c8d41,2021-09-27_18h34.05.327,forced_choiceRT_color,2021.2.3,Win32,60.0240096,,,,,,,,,,,,,,,,,,,,,,,
0,f,1,1.406,3,2,14,1,1,f,blue,5daca5b06aa37b00126c8d41,2021-09-27_18h34.05.327,forced_choiceRT_color,2021.2.3,Win32,60.0240096,,,,,,,,,,,,,,,,,,,,,,,
0,j,1,1.035,3,3,15,2,1,j,red,5daca5b06aa37b00126c8d41,2021-09-27_18h34.05.327,forced_choiceRT_color,2021.2.3,Win32,60.0240096,,,,,,,,,,,,,,,,,,,,,,,
0,j,1,0.737,4,0,16,2,1,j,red,5daca5b06aa37b00126c8d41,2021-09-27_18h34.05.327,forced_choiceRT_color,2021.2.3,Win32,60.0240096,,,,,,,,,,,,,,,,,,,,,,,
0,d,1,0.848,4,1,17,0,1,d,orange,5daca5b06aa37b00126c8d41,2021-09-27_18h34.05.327,forced_choiceRT_color,2021.2.3,Win32,60.0240096,,,,,,,,,,,,,,,,,,,,,,,
0,d,1,0.65,4,2,18,0,1,d,orange,5daca5b06aa37b00126c8d41,2021-09-27_18h34.05.327,forced_choiceRT_color,2021.2.3,Win32,60.0240096,,,,,,,,,,,,,,,,,,,,,,,
0,j,1,0.791,4,3,19,2,1,j,red,5daca5b06aa37b00126c8d41,2021-09-27_18h34.05.327,forced_choiceRT_color,2021.2.3,Win32,60.0240096,,,,,,,,,,,,,,,,,,,,,,,
0,f,1,1.105,5,0,20,1,1,f,blue,5daca5b06aa37b00126c8d41,2021-09-27_18h34.05.327,forced_choiceRT_color,2021.2.3,Win32,60.0240096,,,,,,,,,,,,,,,,,,,,,,,
0,d,1,0.859,5,1,21,0,1,d,orange,5daca5b06aa37b00126c8d41,2021-09-27_18h34.05.327,forced_choiceRT_color,2021.2.3,Win32,60.0240096,,,,,,,,,,,,,,,,,,,,,,,
0,k,1,0.843,5,2,22,3,1,k,purple,5daca5b06aa37b00126c8d41,2021-09-27_18h34.05.327,forced_choiceRT_color,2021.2.3,Win32,60.0240096,,,,,,,,,,,,,,,,,,,,,,,
0,j,1,0.757,5,3,23,2,1,j,red,5daca5b06aa37b00126c8d41,2021-09-27_18h34.05.327,forced_choiceRT_color,2021.2.3,Win32,60.0240096,,,,,,,,,,,,,,,,,,,,,,,
0,k,1,0.611,6,0,24,3,1,k,purple,5daca5b06aa37b00126c8d41,2021-09-27_18h34.05.327,forced_choiceRT_color,2021.2.3,Win32,60.0240096,,,,,,,,,,,,,,,,,,,,,,,
0,j,1,0.909,6,1,25,2,1,j,red,5daca5b06aa37b00126c8d41,2021-09-27_18h34.05.327,forced_choiceRT_color,2021.2.3,Win32,60.0240096,,,,,,,,,,,,,,,,,,,,,,,
0,d,1,0.849,6,2,26,0,1,d,orange,5daca5b06aa37b00126c8d41,2021-09-27_18h34.05.327,forced_choiceRT_color,2021.2.3,Win32,60.0240096,,,,,,,,,,,,,,,,,,,,,,,
0,k,1,0.766,6,3,27,3,1,k,purple,5daca5b06aa37b00126c8d41,2021-09-27_18h34.05.327,forced_choiceRT_color,2021.2.3,Win32,60.0240096,,,,,,,,,,,,,,,,,,,,,,,
0,f,1,0.964,7,0,28,1,1,f,blue,5daca5b06aa37b00126c8d41,2021-09-27_18h34.05.327,forced_choiceRT_color,2021.2.3,Win32,60.0240096,,,,,,,,,,,,,,,,,,,,,,,
0,j,1,0.715,7,1,29,2,1,j,red,5daca5b06aa37b00126c8d41,2021-09-27_18h34.05.327,forced_choiceRT_color,2021.2.3,Win32,60.0240096,,,,,,,,,,,,,,,,,,,,,,,
0,k,1,0.588,7,2,30,3,1,k,purple,5daca5b06aa37b00126c8d41,2021-09-27_18h34.05.327,forced_choiceRT_color,2021.2.3,Win32,60.0240096,,,,,,,,,,,,,,,,,,,,,,,
0,f,1,0.915,7,3,31,1,1,f,blue,5daca5b06aa37b00126c8d41,2021-09-27_18h34.05.327,forced_choiceRT_color,2021.2.3,Win32,60.0240096,,,,,,,,,,,,,,,,,,,,,,,
0,k,1,0.862,8,0,32,3,1,k,purple,5daca5b06aa37b00126c8d41,2021-09-27_18h34.05.327,forced_choiceRT_color,2021.2.3,Win32,60.0240096,,,,,,,,,,,,,,,,,,,,,,,
0,d,1,0.839,8,1,33,0,1,d,orange,5daca5b06aa37b00126c8d41,2021-09-27_18h34.05.327,forced_choiceRT_color,2021.2.3,Win32,60.0240096,,,,,,,,,,,,,,,,,,,,,,,
0,d,1,0.689,8,2,34,0,1,d,orange,5daca5b06aa37b00126c8d41,2021-09-27_18h34.05.327,forced_choiceRT_color,2021.2.3,Win32,60.0240096,,,,,,,,,,,,,,,,,,,,,,,
0,d,1,0.469,8,3,35,0,1,d,orange,5daca5b06aa37b00126c8d41,2021-09-27_18h34.05.327,forced_choiceRT_color,2021.2.3,Win32,60.0240096,,,,,,,,,,,,,,,,,,,,,,,
0,d,1,0.438,9,0,36,0,1,d,orange,5daca5b06aa37b00126c8d41,2021-09-27_18h34.05.327,forced_choiceRT_color,2021.2.3,Win32,60.0240096,,,,,,,,,,,,,,,,,,,,,,,
0,k,1,0.801,9,1,37,3,1,k,purple,5daca5b06aa37b00126c8d41,2021-09-27_18h34.05.327,forced_choiceRT_color,2021.2.3,Win32,60.0240096,,,,,,,,,,,,,,,,,,,,,,,
0,f,1,0.922,9,2,38,1,1,f,blue,5daca5b06aa37b00126c8d41,2021-09-27_18h34.05.327,forced_choiceRT_color,2021.2.3,Win32,60.0240096,,,,,,,,,,,,,,,,,,,,,,,
0,d,1,0.687,9,3,39,0,1,d,orange,5daca5b06aa37b00126c8d41,2021-09-27_18h34.05.327,forced_choiceRT_color,2021.2.3,Win32,60.0240096,,,,,,,,,,,,,,,,,,,,,,,
0,k,1,0.619,10,0,40,3,1,k,purple,5daca5b06aa37b00126c8d41,2021-09-27_18h34.05.327,forced_choiceRT_color,2021.2.3,Win32,60.0240096,,,,,,,,,,,,,,,,,,,,,,,
0,d,0,0.887,10,1,41,1,1,f,blue,5daca5b06aa37b00126c8d41,2021-09-27_18h34.05.327,forced_choiceRT_color,2021.2.3,Win32,60.0240096,,,,,,,,,,,,,,,,,,,,,,,
0,k,1,0.882,10,2,42,3,1,k,purple,5daca5b06aa37b00126c8d41,2021-09-27_18h34.05.327,forced_choiceRT_color,2021.2.3,Win32,60.0240096,,,,,,,,,,,,,,,,,,,,,,,
0,f,1,1.007,10,3,43,1,1,f,blue,5daca5b06aa37b00126c8d41,2021-09-27_18h34.05.327,forced_choiceRT_color,2021.2.3,Win32,60.0240096,,,,,,,,,,,,,,,,,,,,,,,
0,f,1,0.586,11,0,44,1,1,f,blue,5daca5b06aa37b00126c8d41,2021-09-27_18h34.05.327,forced_choiceRT_color,2021.2.3,Win32,60.0240096,,,,,,,,,,,,,,,,,,,,,,,
0,d,1,0.885,11,1,45,0,1,d,orange,5daca5b06aa37b00126c8d41,2021-09-27_18h34.05.327,forced_choiceRT_color,2021.2.3,Win32,60.0240096,,,,,,,,,,,,,,,,,,,,,,,
0,d,1,0.585,11,2,46,0,1,d,orange,5daca5b06aa37b00126c8d41,2021-09-27_18h34.05.327,forced_choiceRT_color,2021.2.3,Win32,60.0240096,,,,,,,,,,,,,,,,,,,,,,,
0,j,1,0.75,11,3,47,2,1,j,red,5daca5b06aa37b00126c8d41,2021-09-27_18h34.05.327,forced_choiceRT_color,2021.2.3,Win32,60.0240096,,,,,,,,,,,,,,,,,,,,,,,
0,j,1,0.385,12,0,48,2,1,j,red,5daca5b06aa37b00126c8d41,2021-09-27_18h34.05.327,forced_choiceRT_color,2021.2.3,Win32,60.0240096,,,,,,,,,,,,,,,,,,,,,,,
0,j,1,0.437,12,1,49,2,1,j,red,5daca5b06aa37b00126c8d41,2021-09-27_18h34.05.327,forced_choiceRT_color,2021.2.3,Win32,60.0240096,,,,,,,,,,,,,,,,,,,,,,,
0,f,1,1.05,12,2,50,1,1,f,blue,5daca5b06aa37b00126c8d41,2021-09-27_18h34.05.327,forced_choiceRT_color,2021.2.3,Win32,60.0240096,,,,,,,,,,,,,,,,,,,,,,,
0,k,1,0.738,12,3,51,3,1,k,purple,5daca5b06aa37b00126c8d41,2021-09-27_18h34.05.327,forced_choiceRT_color,2021.2.3,Win32,60.0240096,,,,,,,,,,,,,,,,,,,,,,,
0,d,1,0.936,13,0,52,0,1,d,orange,5daca5b06aa37b00126c8d41,2021-09-27_18h34.05.327,forced_choiceRT_color,2021.2.3,Win32,60.0240096,,,,,,,,,,,,,,,,,,,,,,,
0,d,1,0.785,13,1,53,0,1,d,orange,5daca5b06aa37b00126c8d41,2021-09-27_18h34.05.327,forced_choiceRT_color,2021.2.3,Win32,60.0240096,,,,,,,,,,,,,,,,,,,,,,,
0,k,1,0.735,13,2,54,3,1,k,purple,5daca5b06aa37b00126c8d41,2021-09-27_18h34.05.327,forced_choiceRT_color,2021.2.3,Win32,60.0240096,,,,,,,,,,,,,,,,,,,,,,,
0,j,1,0.835,13,3,55,2,1,j,red,5daca5b06aa37b00126c8d41,2021-09-27_18h34.05.327,forced_choiceRT_color,2021.2.3,Win32,60.0240096,,,,,,,,,,,,,,,,,,,,,,,
0,f,1,0.74,14,0,56,1,1,f,blue,5daca5b06aa37b00126c8d41,2021-09-27_18h34.05.327,forced_choiceRT_color,2021.2.3,Win32,60.0240096,,,,,,,,,,,,,,,,,,,,,,,
0,j,1,1.236,14,1,57,2,1,j,red,5daca5b06aa37b00126c8d41,2021-09-27_18h34.05.327,forced_choiceRT_color,2021.2.3,Win32,60.0240096,,,,,,,,,,,,,,,,,,,,,,,
0,d,1,1.47,14,2,58,0,1,d,orange,5daca5b06aa37b00126c8d41,2021-09-27_18h34.05.327,forced_choiceRT_color,2021.2.3,Win32,60.0240096,,,,,,,,,,,,,,,,,,,,,,,
0,j,1,1.138,14,3,59,2,1,j,red,5daca5b06aa37b00126c8d41,2021-09-27_18h34.05.327,forced_choiceRT_color,2021.2.3,Win32,60.0240096,,,,,,,,,,,,,,,,,,,,,,,
,,,,,,,,,,,5daca5b06aa37b00126c8d41,2021-09-27_18h34.05.327,forced_choiceRT_color,2021.2.3,Win32,60.0240096,d,2.213,0,0,0,0,1,,,,,,,,,,,,,,,,
,,,,,,,,,,,5daca5b06aa37b00126c8d41,2021-09-27_18h34.05.327,forced_choiceRT_color,2021.2.3,Win32,60.0240096,f,1.755,1,0,1,0,1,,,,,,,,,,,,,,,,
,,,,,,,,,,,5daca5b06aa37b00126c8d41,2021-09-27_18h34.05.327,forced_choiceRT_color,2021.2.3,Win32,60.0240096,j,2.055,2,0,2,0,1,,,,,,,,,,,,,,,,
,,,,,,,,,,,5daca5b06aa37b00126c8d41,2021-09-27_18h34.05.327,forced_choiceRT_color,2021.2.3,Win32,60.0240096,k,2.085,3,0,3,0,1,,,,,,,,,,,,,,,,
,,,,,,,,,,,5daca5b06aa37b00126c8d41,2021-09-27_18h34.05.327,forced_choiceRT_color,2021.2.3,Win32,60.0240096,d,2.155,4,0,4,0,1,,,,,,,,,,,,,,,,
,,,,,,,,,,,5daca5b06aa37b00126c8d41,2021-09-27_18h34.05.327,forced_choiceRT_color,2021.2.3,Win32,60.0240096,f,1.988,5,0,5,0,1,,,,,,,,,,,,,,,,
,,,,,,,,,,,5daca5b06aa37b00126c8d41,2021-09-27_18h34.05.327,forced_choiceRT_color,2021.2.3,Win32,60.0240096,j,2.012,6,0,6,0,1,,,,,,,,,,,,,,,,
,,,,,,,,,,,5daca5b06aa37b00126c8d41,2021-09-27_18h34.05.327,forced_choiceRT_color,2021.2.3,Win32,60.0240096,k,2.057,7,0,7,0,1,,,,,,,,,,,,,,,,
,,,,,,,,,,,5daca5b06aa37b00126c8d41,2021-09-27_18h34.05.327,forced_choiceRT_color,2021.2.3,Win32,60.0240096,d,1.988,8,0,8,0,1,,,,,,,,,,,,,,,,
,,,,,,,,,,,5daca5b06aa37b00126c8d41,2021-09-27_18h34.05.327,forced_choiceRT_color,2021.2.3,Win32,60.0240096,f,1.976,9,0,9,0,1,,,,,,,,,,,,,,,,
,,,,,,,,,,,5daca5b06aa37b00126c8d41,2021-09-27_18h34.05.327,forced_choiceRT_color,2021.2.3,Win32,60.0240096,j,1.964,10,0,10,0,1,,,,,,,,,,,,,,,,
,,,,,,,,,,,5daca5b06aa37b00126c8d41,2021-09-27_18h34.05.327,forced_choiceRT_color,2021.2.3,Win32,60.0240096,k,1.818,11,0,11,0,1,,,,,,,,,,,,,,,,
,,,,,,,,,,,5daca5b06aa37b00126c8d41,2021-09-27_18h34.05.327,forced_choiceRT_color,2021.2.3,Win32,60.0240096,d,2.067,12,0,12,0,1,,,,,,,,,,,,,,,,
,,,,,,,,,,,5daca5b06aa37b00126c8d41,2021-09-27_18h34.05.327,forced_choiceRT_color,2021.2.3,Win32,60.0240096,f,1.871,13,0,13,0,1,,,,,,,,,,,,,,,,
,,,,,,,,,,,5daca5b06aa37b00126c8d41,2021-09-27_18h34.05.327,forced_choiceRT_color,2021.2.3,Win32,60.0240096,j,1.97,14,0,14,0,1,,,,,,,,,,,,,,,,
,,,,,,,,,,,5daca5b06aa37b00126c8d41,2021-09-27_18h34.05.327,forced_choiceRT_color,2021.2.3,Win32,60.0240096,k,1.991,15,0,15,0,1,,,,,,,,,,,,,,,,
,,,,,,,,,,,5daca5b06aa37b00126c8d41,2021-09-27_18h34.05.327,forced_choiceRT_color,2021.2.3,Win32,60.0240096,d,2.017,16,0,16,0,1,,,,,,,,,,,,,,,,
,,,,,,,,,,,5daca5b06aa37b00126c8d41,2021-09-27_18h34.05.327,forced_choiceRT_color,2021.2.3,Win32,60.0240096,f,1.985,17,0,17,0,1,,,,,,,,,,,,,,,,
,,,,,,,,,,,5daca5b06aa37b00126c8d41,2021-09-27_18h34.05.327,forced_choiceRT_color,2021.2.3,Win32,60.0240096,j,1.988,18,0,18,0,1,,,,,,,,,,,,,,,,
,,,,,,,,,,,5daca5b06aa37b00126c8d41,2021-09-27_18h34.05.327,forced_choiceRT_color,2021.2.3,Win32,60.0240096,k,1.921,19,0,19,0,1,,,,,,,,,,,,,,,,
0.56,,,,,,,,,d,orange,5daca5b06aa37b00126c8d41,2021-09-27_18h34.05.327,forced_choiceRT_color,2021.2.3,Win32,60.0240096,,,,,,,,1,Slow,long,d,1,2.218,0,0,0,0,1,,,,,
1.08,,,,,,,,,d,orange,5daca5b06aa37b00126c8d41,2021-09-27_18h34.05.327,forced_choiceRT_color,2021.2.3,Win32,60.0240096,,,,,,,,1,Fast,long,d,1,1.868,0,1,1,0,1,,,,,
1.56,,,,,,,,,f,blue,5daca5b06aa37b00126c8d41,2021-09-27_18h34.05.327,forced_choiceRT_color,2021.2.3,Win32,60.0240096,,,,,,,,1,Slow,long,f,1,3.268,0,2,2,1,1,,,,,
1.61,,,,,,,,,f,blue,5daca5b06aa37b00126c8d41,2021-09-27_18h34.05.327,forced_choiceRT_color,2021.2.3,Win32,60.0240096,,,,,,,,1,Slow,long,d,0,2.228,0,3,3,1,1,,,,,
0.62,,,,,,,,,f,blue,5daca5b06aa37b00126c8d41,2021-09-27_18h34.05.327,forced_choiceRT_color,2021.2.3,Win32,60.0240096,,,,,,,,1,Slow,long,f,1,2.134,1,0,4,1,1,,,,,
1.8,,,,,,,,,f,blue,5daca5b06aa37b00126c8d41,2021-09-27_18h34.05.327,forced_choiceRT_color,2021.2.3,Win32,60.0240096,,,,,,,,1,Slow,long,f,1,2.236,1,1,5,1,1,,,,,
0.16,,,,,,,,,k,purple,5daca5b06aa37b00126c8d41,2021-09-27_18h34.05.327,forced_choiceRT_color,2021.2.3,Win32,60.0240096,,,,,,,,1,Ontime,long,k,1,2.088,1,2,6,3,1,,,,,
1.53,,,,,,,,,f,blue,5daca5b06aa37b00126c8d41,2021-09-27_18h34.05.327,forced_choiceRT_color,2021.2.3,Win32,60.0240096,,,,,,,,1,Slow,long,f,1,2.188,1,3,7,1,1,,,,,
0.54,,,,,,,,,k,purple,5daca5b06aa37b00126c8d41,2021-09-27_18h34.05.327,forced_choiceRT_color,2021.2.3,Win32,60.0240096,,,,,,,,1,Ontime,long,k,1,2.051,2,0,8,3,1,,,,,
1.39,,,,,,,,,j,red,5daca5b06aa37b00126c8d41,2021-09-27_18h34.05.327,forced_choiceRT_color,2021.2.3,Win32,60.0240096,,,,,,,,1,Slow,long,j,1,3.375,2,1,9,2,1,,,,,
1.91,,,,,,,,,k,purple,5daca5b06aa37b00126c8d41,2021-09-27_18h34.05.327,forced_choiceRT_color,2021.2.3,Win32,60.0240096,,,,,,,,1,Slow,long,k,1,2.766,2,2,10,3,1,,,,,
1.73,,,,,,,,,d,orange,5daca5b06aa37b00126c8d41,2021-09-27_18h34.05.327,forced_choiceRT_color,2021.2.3,Win32,60.0240096,,,,,,,,1,Slow,long,d,1,2.152,2,3,11,0,1,,,,,
0.73,,,,,,,,,f,blue,5daca5b06aa37b00126c8d41,2021-09-27_18h34.05.327,forced_choiceRT_color,2021.2.3,Win32,60.0240096,,,,,,,,1,Slow,long,j,0,2.318,3,0,12,1,1,,,,,
0.7,,,,,,,,,j,red,5daca5b06aa37b00126c8d41,2021-09-27_18h34.05.327,forced_choiceRT_color,2021.2.3,Win32,60.0240096,,,,,,,,1,Fast,long,k,0,1.864,3,1,13,2,1,,,,,
1.23,,,,,,,,,j,red,5daca5b06aa37b00126c8d41,2021-09-27_18h34.05.327,forced_choiceRT_color,2021.2.3,Win32,60.0240096,,,,,,,,1,Ontime,long,j,1,1.984,3,2,14,2,1,,,,,
0.34,,,,,,,,,d,orange,5daca5b06aa37b00126c8d41,2021-09-27_18h34.05.327,forced_choiceRT_color,2021.2.3,Win32,60.0240096,,,,,,,,1,Slow,long,d,1,2.105,3,3,15,0,1,,,,,
1.93,,,,,,,,,j,red,5daca5b06aa37b00126c8d41,2021-09-27_18h34.05.327,forced_choiceRT_color,2021.2.3,Win32,60.0240096,,,,,,,,1,Slow,long,j,1,3.235,4,0,16,2,1,,,,,
1.44,,,,,,,,,f,blue,5daca5b06aa37b00126c8d41,2021-09-27_18h34.05.327,forced_choiceRT_color,2021.2.3,Win32,60.0240096,,,,,,,,1,Slow,long,d,0,2.283,4,1,17,1,1,,,,,
0.85,,,,,,,,,j,red,5daca5b06aa37b00126c8d41,2021-09-27_18h34.05.327,forced_choiceRT_color,2021.2.3,Win32,60.0240096,,,,,,,,1,Slow,long,j,1,2.42,4,2,18,2,1,,,,,
1.96,,,,,,,,,k,purple,5daca5b06aa37b00126c8d41,2021-09-27_18h34.05.327,forced_choiceRT_color,2021.2.3,Win32,60.0240096,,,,,,,,1,Slow,long,k,1,3.136,4,3,19,3,1,,,,,
1.11,,,,,,,,,f,blue,5daca5b06aa37b00126c8d41,2021-09-27_18h34.05.327,forced_choiceRT_color,2021.2.3,Win32,60.0240096,,,,,,,,1,Slow,long,f,1,2.151,5,0,20,1,1,,,,,
0.88,,,,,,,,,d,orange,5daca5b06aa37b00126c8d41,2021-09-27_18h34.05.327,forced_choiceRT_color,2021.2.3,Win32,60.0240096,,,,,,,,1,Fast,long,d,1,1.654,5,1,21,0,1,,,,,
0.29,,,,,,,,,j,red,5daca5b06aa37b00126c8d41,2021-09-27_18h34.05.327,forced_choiceRT_color,2021.2.3,Win32,60.0240096,,,,,,,,1,Slow,long,j,1,2.267,5,2,22,2,1,,,,,
1.7,,,,,,,,,j,red,5daca5b06aa37b00126c8d41,2021-09-27_18h34.05.327,forced_choiceRT_color,2021.2.3,Win32,60.0240096,,,,,,,,1,Slow,long,j,1,2.719,5,3,23,2,1,,,,,
0.18,,,,,,,,,k,purple,5daca5b06aa37b00126c8d41,2021-09-27_18h34.05.327,forced_choiceRT_color,2021.2.3,Win32,60.0240096,,,,,,,,1,Slow,long,k,1,2.117,6,0,24,3,1,,,,,
1.75,,,,,,,,,j,red,5daca5b06aa37b00126c8d41,2021-09-27_18h34.05.327,forced_choiceRT_color,2021.2.3,Win32,60.0240096,,,,,,,,1,Slow,long,j,1,2.919,6,1,25,2,1,,,,,
1.71,,,,,,,,,d,orange,5daca5b06aa37b00126c8d41,2021-09-27_18h34.05.327,forced_choiceRT_color,2021.2.3,Win32,60.0240096,,,,,,,,1,Slow,long,d,1,2.869,6,2,26,0,1,,,,,
1.13,,,,,,,,,f,blue,5daca5b06aa37b00126c8d41,2021-09-27_18h34.05.327,forced_choiceRT_color,2021.2.3,Win32,60.0240096,,,,,,,,1,Slow,long,f,1,2.184,6,3,27,1,1,,,,,
1.69,,,,,,,,,k,purple,5daca5b06aa37b00126c8d41,2021-09-27_18h34.05.327,forced_choiceRT_color,2021.2.3,Win32,60.0240096,,,,,,,,1,Slow,long,j,0,2.471,7,0,28,3,1,,,,,
0,,,,,,,,,j,red,5daca5b06aa37b00126c8d41,2021-09-27_18h34.05.327,forced_choiceRT_color,2021.2.3,Win32,60.0240096,,,,,,,,1,Ontime,long,j,1,2.065,7,1,29,2,1,,,,,
1.51,,,,,,,,,k,purple,5daca5b06aa37b00126c8d41,2021-09-27_18h34.05.327,forced_choiceRT_color,2021.2.3,Win32,60.0240096,,,,,,,,1,Slow,long,k,1,2.337,7,2,30,3,1,,,,,
0.75,,,,,,,,,d,orange,5daca5b06aa37b00126c8d41,2021-09-27_18h34.05.327,forced_choiceRT_color,2021.2.3,Win32,60.0240096,,,,,,,,1,Slow,long,d,1,2.152,7,3,31,0,1,,,,,
0.57,,,,,,,,,d,orange,5daca5b06aa37b00126c8d41,2021-09-27_18h34.05.327,forced_choiceRT_color,2021.2.3,Win32,60.0240096,,,,,,,,1,Fast,long,d,1,1.865,8,0,32,0,1,,,,,
0.55,,,,,,,,,j,red,5daca5b06aa37b00126c8d41,2021-09-27_18h34.05.327,forced_choiceRT_color,2021.2.3,Win32,60.0240096,,,,,,,,1,Ontime,long,j,1,2.053,8,1,33,2,1,,,,,
1.72,,,,,,,,,d,orange,5daca5b06aa37b00126c8d41,2021-09-27_18h34.05.327,forced_choiceRT_color,2021.2.3,Win32,60.0240096,,,,,,,,1,Slow,long,d,1,2.633,8,2,34,0,1,,,,,
0.28,,,,,,,,,k,purple,5daca5b06aa37b00126c8d41,2021-09-27_18h34.05.327,forced_choiceRT_color,2021.2.3,Win32,60.0240096,,,,,,,,1,Ontime,long,k,1,1.952,8,3,35,3,1,,,,,
1.92,,,,,,,,,k,purple,5daca5b06aa37b00126c8d41,2021-09-27_18h34.05.327,forced_choiceRT_color,2021.2.3,Win32,60.0240096,,,,,,,,1,Slow,long,k,1,2.816,9,0,36,3,1,,,,,
1.22,,,,,,,,,d,orange,5daca5b06aa37b00126c8d41,2021-09-27_18h34.05.327,forced_choiceRT_color,2021.2.3,Win32,60.0240096,,,,,,,,1,Slow,long,d,1,2.25,9,1,37,0,1,,,,,
0.27,,,,,,,,,f,blue,5daca5b06aa37b00126c8d41,2021-09-27_18h34.05.327,forced_choiceRT_color,2021.2.3,Win32,60.0240096,,,,,,,,1,Fast,long,j,0,1.736,9,2,38,1,1,,,,,
1.76,,,,,,,,,k,purple,5daca5b06aa37b00126c8d41,2021-09-27_18h34.05.327,forced_choiceRT_color,2021.2.3,Win32,60.0240096,,,,,,,,1,Slow,long,k,1,3.012,9,3,39,3,1,,,,,
,,,,,,,,,,,5daca5b06aa37b00126c8d41,2021-09-27_18h34.05.327,forced_choiceRT_color,2021.2.3,Win32,60.0240096,,,,,,,,,,,,,,,,,,,0,0,0,0,1
1.79,,,,,,,,,f,blue,5daca5b06aa37b00126c8d41,2021-09-27_18h34.05.327,forced_choiceRT_color,2021.2.3,Win32,60.0240096,,,,,,,,2,Slow,long,f,1,3.326,0,0,0,1,1,,,,,
0.38,,,,,,,,,j,red,5daca5b06aa37b00126c8d41,2021-09-27_18h34.05.327,forced_choiceRT_color,2021.2.3,Win32,60.0240096,,,,,,,,2,Ontime,long,j,1,1.903,0,1,1,2,1,,,,,
0.13,,,,,,,,,d,orange,5daca5b06aa37b00126c8d41,2021-09-27_18h34.05.327,forced_choiceRT_color,2021.2.3,Win32,60.0240096,,,,,,,,2,Fast,long,d,1,1.627,0,2,2,0,1,,,,,
0.16,,,,,,,,,k,purple,5daca5b06aa37b00126c8d41,2021-09-27_18h34.05.327,forced_choiceRT_color,2021.2.3,Win32,60.0240096,,,,,,,,2,Slow,long,k,1,2.135,0,3,3,3,1,,,,,
1.13,,,,,,,,,f,blue,5daca5b06aa37b00126c8d41,2021-09-27_18h34.05.327,forced_choiceRT_color,2021.2.3,Win32,60.0240096,,,,,,,,2,Slow,long,d,0,2.185,1,0,4,1,1,,,,,
0.13,,,,,,,,,k,purple,5daca5b06aa37b00126c8d41,2021-09-27_18h34.05.327,forced_choiceRT_color,2021.2.3,Win32,60.0240096,,,,,,,,2,Slow,long,k,1,2.134,1,1,5,3,1,,,,,
1.09,,,,,,,,,d,orange,5daca5b06aa37b00126c8d41,2021-09-27_18h34.05.327,forced_choiceRT_color,2021.2.3,Win32,60.0240096,,,,,,,,2,Slow,long,d,1,2.171,1,2,6,0,1,,,,,
0.72,,,,,,,,,d,orange,5daca5b06aa37b00126c8d41,2021-09-27_18h34.05.327,forced_choiceRT_color,2021.2.3,Win32,60.0240096,,,,,,,,2,Slow,long,d,1,2.121,1,3,7,0,1,,,,,
0.63,,,,,,,,,d,orange,5daca5b06aa37b00126c8d41,2021-09-27_18h34.05.327,forced_choiceRT_color,2021.2.3,Win32,60.0240096,,,,,,,,2,Ontime,long,d,1,2.055,2,0,8,0,1,,,,,
0.11,,,,,,,,,j,red,5daca5b06aa37b00126c8d41,2021-09-27_18h34.05.327,forced_choiceRT_color,2021.2.3,Win32,60.0240096,,,,,,,,2,Slow,long,j,1,2.119,2,1,9,2,1,,,,,
0.16,,,,,,,,,j,red,5daca5b06aa37b00126c8d41,2021-09-27_18h34.05.327,forced_choiceRT_color,2021.2.3,Win32,60.0240096,,,,,,,,2,Ontime,long,j,1,2.042,2,2,10,2,1,,,,,
1.99,,,,,,,,,j,red,5daca5b06aa37b00126c8d41,2021-09-27_18h34.05.327,forced_choiceRT_color,2021.2.3,Win32,60.0240096,,,,,,,,2,Slow,long,j,1,2.886,2,3,11,2,1,,,,,
1,,,,,,,,,f,blue,5daca5b06aa37b00126c8d41,2021-09-27_18h34.05.327,forced_choiceRT_color,2021.2.3,Win32,60.0240096,,,,,,,,2,Slow,long,f,1,2.172,3,0,12,1,1,,,,,
1.84,,,,,,,,,f,blue,5daca5b06aa37b00126c8d41,2021-09-27_18h34.05.327,forced_choiceRT_color,2021.2.3,Win32,60.0240096,,,,,,,,2,Slow,long,f,1,2.376,3,1,13,1,1,,,,,
1.08,,,,,,,,,j,red,5daca5b06aa37b00126c8d41,2021-09-27_18h34.05.327,forced_choiceRT_color,2021.2.3,Win32,60.0240096,,,,,,,,2,Slow,long,j,1,2.621,3,2,14,2,1,,,,,
1.41,,,,,,,,,k,purple,5daca5b06aa37b00126c8d41,2021-09-27_18h34.05.327,forced_choiceRT_color,2021.2.3,Win32,60.0240096,,,,,,,,2,Slow,long,k,1,2.335,3,3,15,3,1,,,,,
0.16,,,,,,,,,k,purple,5daca5b06aa37b00126c8d41,2021-09-27_18h34.05.327,forced_choiceRT_color,2021.2.3,Win32,60.0240096,,,,,,,,2,Ontime,long,k,1,2.038,4,0,16,3,1,,,,,
1.01,,,,,,,,,k,purple,5daca5b06aa37b00126c8d41,2021-09-27_18h34.05.327,forced_choiceRT_color,2021.2.3,Win32,60.0240096,,,,,,,,2,Ontime,long,k,1,1.972,4,1,17,3,1,,,,,
0.58,,,,,,,,,f,blue,5daca5b06aa37b00126c8d41,2021-09-27_18h34.05.327,forced_choiceRT_color,2021.2.3,Win32,60.0240096,,,,,,,,2,Slow,long,f,1,2.241,4,2,18,1,1,,,,,
1.82,,,,,,,,,j,red,5daca5b06aa37b00126c8d41,2021-09-27_18h34.05.327,forced_choiceRT_color,2021.2.3,Win32,60.0240096,,,,,,,,2,Slow,long,j,1,3.452,4,3,19,2,1,,,,,
0.31,,,,,,,,,f,blue,5daca5b06aa37b00126c8d41,2021-09-27_18h34.05.327,forced_choiceRT_color,2021.2.3,Win32,60.0240096,,,,,,,,2,Ontime,long,f,1,2.013,5,0,20,1,1,,,,,
1.07,,,,,,,,,j,red,5daca5b06aa37b00126c8d41,2021-09-27_18h34.05.327,forced_choiceRT_color,2021.2.3,Win32,60.0240096,,,,,,,,2,Slow,long,j,1,2.164,5,1,21,2,1,,,,,
0.03,,,,,,,,,d,orange,5daca5b06aa37b00126c8d41,2021-09-27_18h34.05.327,forced_choiceRT_color,2021.2.3,Win32,60.0240096,,,,,,,,2,Ontime,long,d,1,2.021,5,2,22,0,1,,,,,
1.57,,,,,,,,,d,orange,5daca5b06aa37b00126c8d41,2021-09-27_18h34.05.327,forced_choiceRT_color,2021.2.3,Win32,60.0240096,,,,,,,,2,Slow,long,d,1,2.486,5,3,23,0,1,,,,,
0.56,,,,,,,,,f,blue,5daca5b06aa37b00126c8d41,2021-09-27_18h34.05.327,forced_choiceRT_color,2021.2.3,Win32,60.0240096,,,,,,,,2,Ontime,long,f,1,1.981,6,0,24,1,1,,,,,
1.69,,,,,,,,,k,purple,5daca5b06aa37b00126c8d41,2021-09-27_18h34.05.327,forced_choiceRT_color,2021.2.3,Win32,60.0240096,,,,,,,,2,Slow,long,k,1,2.567,6,1,25,3,1,,,,,
0.92,,,,,,,,,d,orange,5daca5b06aa37b00126c8d41,2021-09-27_18h34.05.327,forced_choiceRT_color,2021.2.3,Win32,60.0240096,,,,,,,,2,Ontime,long,d,1,1.935,6,2,26,0,1,,,,,
0.32,,,,,,,,,k,purple,5daca5b06aa37b00126c8d41,2021-09-27_18h34.05.327,forced_choiceRT_color,2021.2.3,Win32,60.0240096,,,,,,,,2,Ontime,long,k,1,1.988,6,3,27,3,1,,,,,
0.96,,,,,,,,,f,blue,5daca5b06aa37b00126c8d41,2021-09-27_18h34.05.327,forced_choiceRT_color,2021.2.3,Win32,60.0240096,,,,,,,,2,Slow,long,f,1,2.203,7,0,28,1,1,,,,,
0.65,,,,,,,,,j,red,5daca5b06aa37b00126c8d41,2021-09-27_18h34.05.327,forced_choiceRT_color,2021.2.3,Win32,60.0240096,,,,,,,,2,Ontime,long,j,1,2.036,7,1,29,2,1,,,,,
0.84,,,,,,,,,k,purple,5daca5b06aa37b00126c8d41,2021-09-27_18h34.05.327,forced_choiceRT_color,2021.2.3,Win32,60.0240096,,,,,,,,2,Ontime,long,k,1,1.998,7,2,30,3,1,,,,,
1.25,,,,,,,,,d,orange,5daca5b06aa37b00126c8d41,2021-09-27_18h34.05.327,forced_choiceRT_color,2021.2.3,Win32,60.0240096,,,,,,,,2,Slow,long,d,1,2.22,7,3,31,0,1,,,,,
1.23,,,,,,,,,f,blue,5daca5b06aa37b00126c8d41,2021-09-27_18h34.05.327,forced_choiceRT_color,2021.2.3,Win32,60.0240096,,,,,,,,2,Slow,long,j,0,2.326,8,0,32,1,1,,,,,
0.25,,,,,,,,,j,red,5daca5b06aa37b00126c8d41,2021-09-27_18h34.05.327,forced_choiceRT_color,2021.2.3,Win32,60.0240096,,,,,,,,2,Slow,long,j,1,2.235,8,1,33,2,1,,,,,
1.57,,,,,,,,,d,orange,5daca5b06aa37b00126c8d41,2021-09-27_18h34.05.327,forced_choiceRT_color,2021.2.3,Win32,60.0240096,,,,,,,,2,Slow,long,d,1,2.45,8,2,34,0,1,,,,,
0.54,,,,,,,,,k,purple,5daca5b06aa37b00126c8d41,2021-09-27_18h34.05.327,forced_choiceRT_color,2021.2.3,Win32,60.0240096,,,,,,,,2,Ontime,long,k,1,2.003,8,3,35,3,1,,,,,
1.83,,,,,,,,,j,red,5daca5b06aa37b00126c8d41,2021-09-27_18h34.05.327,forced_choiceRT_color,2021.2.3,Win32,60.0240096,,,,,,,,2,Slow,long,j,1,3.083,9,0,36,2,1,,,,,
1.22,,,,,,,,,f,blue,5daca5b06aa37b00126c8d41,2021-09-27_18h34.05.327,forced_choiceRT_color,2021.2.3,Win32,60.0240096,,,,,,,,2,Ontime,long,f,1,2.068,9,1,37,1,1,,,,,
1.49,,,,,,,,,k,purple,5daca5b06aa37b00126c8d41,2021-09-27_18h34.05.327,forced_choiceRT_color,2021.2.3,Win32,60.0240096,,,,,,,,2,Slow,long,j,0,2.324,9,2,38,3,1,,,,,
1.34,,,,,,,,,d,orange,5daca5b06aa37b00126c8d41,2021-09-27_18h34.05.327,forced_choiceRT_color,2021.2.3,Win32,60.0240096,,,,,,,,2,Slow,long,d,1,2.251,9,3,39,0,1,,,,,
,,,,,,,,,,,5daca5b06aa37b00126c8d41,2021-09-27_18h34.05.327,forced_choiceRT_color,2021.2.3,Win32,60.0240096,,,,,,,,,,,,,,,,,,,1,0,1,0,1
1.19,,,,,,,,,j,red,5daca5b06aa37b00126c8d41,2021-09-27_18h34.05.327,forced_choiceRT_color,2021.2.3,Win32,60.0240096,,,,,,,,3,Slow,long,k,0,2.196,0,0,0,2,1,,,,,
0.46,,,,,,,,,d,orange,5daca5b06aa37b00126c8d41,2021-09-27_18h34.05.327,forced_choiceRT_color,2021.2.3,Win32,60.0240096,,,,,,,,3,Ontime,long,d,1,2.001,0,1,1,0,1,,,,,
1,,,,,,,,,k,purple,5daca5b06aa37b00126c8d41,2021-09-27_18h34.05.327,forced_choiceRT_color,2021.2.3,Win32,60.0240096,,,,,,,,3,Ontime,long,k,1,2.05,0,2,2,3,1,,,,,
1.18,,,,,,,,,j,red,5daca5b06aa37b00126c8d41,2021-09-27_18h34.05.327,forced_choiceRT_color,2021.2.3,Win32,60.0240096,,,,,,,,3,Ontime,long,j,1,1.968,0,3,3,2,1,,,,,
0.49,,,,,,,,,k,purple,5daca5b06aa37b00126c8d41,2021-09-27_18h34.05.327,forced_choiceRT_color,2021.2.3,Win32,60.0240096,,,,,,,,3,Ontime,long,k,1,1.998,1,0,4,3,1,,,,,
0.58,,,,,,,,,f,blue,5daca5b06aa37b00126c8d41,2021-09-27_18h34.05.327,forced_choiceRT_color,2021.2.3,Win32,60.0240096,,,,,,,,3,Ontime,long,d,0,1.952,1,1,5,1,1,,,,,
0.94,,,,,,,,,f,blue,5daca5b06aa37b00126c8d41,2021-09-27_18h34.05.327,forced_choiceRT_color,2021.2.3,Win32,60.0240096,,,,,,,,3,Ontime,long,f,1,2.019,1,2,6,1,1,,,,,
0.3,,,,,,,,,f,blue,5daca5b06aa37b00126c8d41,2021-09-27_18h34.05.327,forced_choiceRT_color,2021.2.3,Win32,60.0240096,,,,,,,,3,Ontime,long,f,1,1.998,1,3,7,1,1,,,,,
0.37,,,,,,,,,f,blue,5daca5b06aa37b00126c8d41,2021-09-27_18h34.05.327,forced_choiceRT_color,2021.2.3,Win32,60.0240096,,,,,,,,3,Ontime,long,f,1,1.969,2,0,8,1,1,,,,,
1.7,,,,,,,,,j,red,5daca5b06aa37b00126c8d41,2021-09-27_18h34.05.327,forced_choiceRT_color,2021.2.3,Win32,60.0240096,,,,,,,,3,Slow,long,k,0,2.27,2,1,9,2,1,,,,,
0.88,,,,,,,,,k,purple,5daca5b06aa37b00126c8d41,2021-09-27_18h34.05.327,forced_choiceRT_color,2021.2.3,Win32,60.0240096,,,,,,,,3,Fast,long,k,1,1.787,2,2,10,3,1,,,,,
0.96,,,,,,,,,k,purple,5daca5b06aa37b00126c8d41,2021-09-27_18h34.05.327,forced_choiceRT_color,2021.2.3,Win32,60.0240096,,,,,,,,3,Ontime,long,k,1,2.054,2,3,11,3,1,,,,,
0.82,,,,,,,,,d,orange,5daca5b06aa37b00126c8d41,2021-09-27_18h34.05.327,forced_choiceRT_color,2021.2.3,Win32,60.0240096,,,,,,,,3,Fast,long,d,1,1.765,3,0,12,0,1,,,,,
0.11,,,,,,,,,j,red,5daca5b06aa37b00126c8d41,2021-09-27_18h34.05.327,forced_choiceRT_color,2021.2.3,Win32,60.0240096,,,,,,,,3,Ontime,long,j,1,1.983,3,1,13,2,1,,,,,
0.6,,,,,,,,,j,red,5daca5b06aa37b00126c8d41,2021-09-27_18h34.05.327,forced_choiceRT_color,2021.2.3,Win32,60.0240096,,,,,,,,3,Ontime,long,j,1,1.951,3,2,14,2,1,,,,,
1.85,,,,,,,,,k,purple,5daca5b06aa37b00126c8d41,2021-09-27_18h34.05.327,forced_choiceRT_color,2021.2.3,Win32,60.0240096,,,,,,,,3,Slow,long,k,1,2.306,3,3,15,3,1,,,,,
0.27,,,,,,,,,d,orange,5daca5b06aa37b00126c8d41,2021-09-27_18h34.05.327,forced_choiceRT_color,2021.2.3,Win32,60.0240096,,,,,,,,3,Ontime,long,d,1,2.036,4,0,16,0,1,,,,,
0.44,,,,,,,,,d,orange,5daca5b06aa37b00126c8d41,2021-09-27_18h34.05.327,forced_choiceRT_color,2021.2.3,Win32,60.0240096,,,,,,,,3,Ontime,long,d,1,1.968,4,1,17,0,1,,,,,
0.6,,,,,,,,,f,blue,5daca5b06aa37b00126c8d41,2021-09-27_18h34.05.327,forced_choiceRT_color,2021.2.3,Win32,60.0240096,,,,,,,,3,Ontime,long,f,1,2.062,4,2,18,1,1,,,,,
1.36,,,,,,,,,k,purple,5daca5b06aa37b00126c8d41,2021-09-27_18h34.05.327,forced_choiceRT_color,2021.2.3,Win32,60.0240096,,,,,,,,3,Ontime,long,k,1,1.973,4,3,19,3,1,,,,,
0.33,,,,,,,,,d,orange,5daca5b06aa37b00126c8d41,2021-09-27_18h34.05.327,forced_choiceRT_color,2021.2.3,Win32,60.0240096,,,,,,,,3,Ontime,long,d,1,2.007,5,0,20,0,1,,,,,
0.08,,,,,,,,,j,red,5daca5b06aa37b00126c8d41,2021-09-27_18h34.05.327,forced_choiceRT_color,2021.2.3,Win32,60.0240096,,,,,,,,3,Ontime,long,j,1,1.985,5,1,21,2,1,,,,,
0.3,,,,,,,,,d,orange,5daca5b06aa37b00126c8d41,2021-09-27_18h34.05.327,forced_choiceRT_color,2021.2.3,Win32,60.0240096,,,,,,,,3,Ontime,long,d,1,1.97,5,2,22,0,1,,,,,
1.44,,,,,,,,,f,blue,5daca5b06aa37b00126c8d41,2021-09-27_18h34.05.327,forced_choiceRT_color,2021.2.3,Win32,60.0240096,,,,,,,,3,Ontime,long,f,1,1.986,5,3,23,1,1,,,,,
1.7,,,,,,,,,j,red,5daca5b06aa37b00126c8d41,2021-09-27_18h34.05.327,forced_choiceRT_color,2021.2.3,Win32,60.0240096,,,,,,,,3,Slow,long,j,1,2.138,6,0,24,2,1,,,,,
1.34,,,,,,,,,d,orange,5daca5b06aa37b00126c8d41,2021-09-27_18h34.05.327,forced_choiceRT_color,2021.2.3,Win32,60.0240096,,,,,,,,3,Ontime,long,d,1,2.085,6,1,25,0,1,,,,,
0.18,,,,,,,,,j,red,5daca5b06aa37b00126c8d41,2021-09-27_18h34.05.327,forced_choiceRT_color,2021.2.3,Win32,60.0240096,,,,,,,,3,Ontime,long,j,1,1.967,6,2,26,2,1,,,,,
0.53,,,,,,,,,d,orange,5daca5b06aa37b00126c8d41,2021-09-27_18h34.05.327,forced_choiceRT_color,2021.2.3,Win32,60.0240096,,,,,,,,3,Slow,long,d,1,2.145,6,3,27,0,1,,,,,
1.66,,,,,,,,,f,blue,5daca5b06aa37b00126c8d41,2021-09-27_18h34.05.327,forced_choiceRT_color,2021.2.3,Win32,60.0240096,,,,,,,,3,Slow,long,f,1,3.036,7,0,28,1,1,,,,,
0.03,,,,,,,,,k,purple,5daca5b06aa37b00126c8d41,2021-09-27_18h34.05.327,forced_choiceRT_color,2021.2.3,Win32,60.0240096,,,,,,,,3,Ontime,long,k,1,1.974,7,1,29,3,1,,,,,
0.94,,,,,,,,,d,orange,5daca5b06aa37b00126c8d41,2021-09-27_18h34.05.327,forced_choiceRT_color,2021.2.3,Win32,60.0240096,,,,,,,,3,Ontime,long,d,1,1.987,7,2,30,0,1,,,,,
1.84,,,,,,,,,d,orange,5daca5b06aa37b00126c8d41,2021-09-27_18h34.05.327,forced_choiceRT_color,2021.2.3,Win32,60.0240096,,,,,,,,3,Slow,long,j,0,2.268,7,3,31,0,1,,,,,
0.64,,,,,,,,,f,blue,5daca5b06aa37b00126c8d41,2021-09-27_18h34.05.327,forced_choiceRT_color,2021.2.3,Win32,60.0240096,,,,,,,,3,Ontime,long,f,1,2.087,8,0,32,1,1,,,,,
0.24,,,,,,,,,j,red,5daca5b06aa37b00126c8d41,2021-09-27_18h34.05.327,forced_choiceRT_color,2021.2.3,Win32,60.0240096,,,,,,,,3,Fast,long,j,1,1.889,8,1,33,2,1,,,,,
1.72,,,,,,,,,k,purple,5daca5b06aa37b00126c8d41,2021-09-27_18h34.05.327,forced_choiceRT_color,2021.2.3,Win32,60.0240096,,,,,,,,3,Slow,long,k,1,2.472,8,2,34,3,1,,,,,
0.19,,,,,,,,,k,purple,5daca5b06aa37b00126c8d41,2021-09-27_18h34.05.327,forced_choiceRT_color,2021.2.3,Win32,60.0240096,,,,,,,,3,Ontime,long,k,1,1.936,8,3,35,3,1,,,,,
1.22,,,,,,,,,k,purple,5daca5b06aa37b00126c8d41,2021-09-27_18h34.05.327,forced_choiceRT_color,2021.2.3,Win32,60.0240096,,,,,,,,3,Ontime,long,k,1,2.088,9,0,36,3,1,,,,,
1.28,,,,,,,,,j,red,5daca5b06aa37b00126c8d41,2021-09-27_18h34.05.327,forced_choiceRT_color,2021.2.3,Win32,60.0240096,,,,,,,,3,Slow,long,j,1,2.302,9,1,37,2,1,,,,,
1.07,,,,,,,,,f,blue,5daca5b06aa37b00126c8d41,2021-09-27_18h34.05.327,forced_choiceRT_color,2021.2.3,Win32,60.0240096,,,,,,,,3,Slow,long,f,1,2.23,9,2,38,1,1,,,,,
1.85,,,,,,,,,f,blue,5daca5b06aa37b00126c8d41,2021-09-27_18h34.05.327,forced_choiceRT_color,2021.2.3,Win32,60.0240096,,,,,,,,3,Slow,long,f,1,3.105,9,3,39,1,1,,,,,
,,,,,,,,,,,5daca5b06aa37b00126c8d41,2021-09-27_18h34.05.327,forced_choiceRT_color,2021.2.3,Win32,60.0240096,,,,,,,,,,,,,,,,,,,2,0,2,0,1
0.11,,,,,,,,,d,orange,5daca5b06aa37b00126c8d41,2021-09-27_18h34.05.327,forced_choiceRT_color,2021.2.3,Win32,60.0240096,,,,,,,,4,Ontime,long,d,1,2.072,0,0,0,0,1,,,,,
0.12,,,,,,,,,k,purple,5daca5b06aa37b00126c8d41,2021-09-27_18h34.05.327,forced_choiceRT_color,2021.2.3,Win32,60.0240096,,,,,,,,4,Ontime,long,k,1,2.021,0,1,1,3,1,,,,,
0.79,,,,,,,,,d,orange,5daca5b06aa37b00126c8d41,2021-09-27_18h34.05.327,forced_choiceRT_color,2021.2.3,Win32,60.0240096,,,,,,,,4,Fast,long,d,1,1.8,0,2,2,0,1,,,,,
1.81,,,,,,,,,k,purple,5daca5b06aa37b00126c8d41,2021-09-27_18h34.05.327,forced_choiceRT_color,2021.2.3,Win32,60.0240096,,,,,,,,4,Slow,long,j,0,2.317,0,3,3,3,1,,,,,
1.36,,,,,,,,,j,red,5daca5b06aa37b00126c8d41,2021-09-27_18h34.05.327,forced_choiceRT_color,2021.2.3,Win32,60.0240096,,,,,,,,4,Ontime,long,j,1,2.052,1,0,4,2,1,,,,,
0.5,,,,,,,,,k,purple,5daca5b06aa37b00126c8d41,2021-09-27_18h34.05.327,forced_choiceRT_color,2021.2.3,Win32,60.0240096,,,,,,,,4,Ontime,long,k,1,1.953,1,1,5,3,1,,,,,
0.59,,,,,,,,,k,purple,5daca5b06aa37b00126c8d41,2021-09-27_18h34.05.327,forced_choiceRT_color,2021.2.3,Win32,60.0240096,,,,,,,,4,Ontime,long,k,1,2.068,1,2,6,3,1,,,,,
1.94,,,,,,,,,f,blue,5daca5b06aa37b00126c8d41,2021-09-27_18h34.05.327,forced_choiceRT_color,2021.2.3,Win32,60.0240096,,,,,,,,4,Slow,long,f,1,3.152,1,3,7,1,1,,,,,
1.19,,,,,,,,,d,orange,5daca5b06aa37b00126c8d41,2021-09-27_18h34.05.327,forced_choiceRT_color,2021.2.3,Win32,60.0240096,,,,,,,,4,Fast,long,d,1,1.648,2,0,8,0,1,,,,,
0.14,,,,,,,,,d,orange,5daca5b06aa37b00126c8d41,2021-09-27_18h34.05.327,forced_choiceRT_color,2021.2.3,Win32,60.0240096,,,,,,,,4,Ontime,long,d,1,2.037,2,1,9,0,1,,,,,
1.21,,,,,,,,,k,purple,5daca5b06aa37b00126c8d41,2021-09-27_18h34.05.327,forced_choiceRT_color,2021.2.3,Win32,60.0240096,,,,,,,,4,Ontime,long,k,1,2.017,2,2,10,3,1,,,,,
1.83,,,,,,,,,f,blue,5daca5b06aa37b00126c8d41,2021-09-27_18h34.05.327,forced_choiceRT_color,2021.2.3,Win32,60.0240096,,,,,,,,4,Slow,long,f,1,2.751,2,3,11,1,1,,,,,
0.37,,,,,,,,,f,blue,5daca5b06aa37b00126c8d41,2021-09-27_18h34.05.327,forced_choiceRT_color,2021.2.3,Win32,60.0240096,,,,,,,,4,Ontime,long,f,1,2.02,3,0,12,1,1,,,,,
1.07,,,,,,,,,d,orange,5daca5b06aa37b00126c8d41,2021-09-27_18h34.05.327,forced_choiceRT_color,2021.2.3,Win32,60.0240096,,,,,,,,4,Slow,long,d,1,2.131,3,1,13,0,1,,,,,
1.76,,,,,,,,,k,purple,5daca5b06aa37b00126c8d41,2021-09-27_18h34.05.327,forced_choiceRT_color,2021.2.3,Win32,60.0240096,,,,,,,,4,Slow,long,j,0,2.27,3,2,14,3,1,,,,,
1.73,,,,,,,,,j,red,5daca5b06aa37b00126c8d41,2021-09-27_18h34.05.327,forced_choiceRT_color,2021.2.3,Win32,60.0240096,,,,,,,,4,Slow,long,j,1,2.571,3,3,15,2,1,,,,,
1.21,,,,,,,,,f,blue,5daca5b06aa37b00126c8d41,2021-09-27_18h34.05.327,forced_choiceRT_color,2021.2.3,Win32,60.0240096,,,,,,,,4,Ontime,long,d,0,1.971,4,0,16,1,1,,,,,
1.79,,,,,,,,,d,orange,5daca5b06aa37b00126c8d41,2021-09-27_18h34.05.327,forced_choiceRT_color,2021.2.3,Win32,60.0240096,,,,,,,,4,Slow,long,d,1,2.118,4,1,17,0,1,,,,,
0.45,,,,,,,,,f,blue,5daca5b06aa37b00126c8d41,2021-09-27_18h34.05.327,forced_choiceRT_color,2021.2.3,Win32,60.0240096,,,,,,,,4,Ontime,long,f,1,1.974,4,2,18,1,1,,,,,
1.23,,,,,,,,,f,blue,5daca5b06aa37b00126c8d41,2021-09-27_18h34.05.327,forced_choiceRT_color,2021.2.3,Win32,60.0240096,,,,,,,,4,Ontime,long,f,1,1.954,4,3,19,1,1,,,,,
0.18,,,,,,,,,j,red,5daca5b06aa37b00126c8d41,2021-09-27_18h34.05.327,forced_choiceRT_color,2021.2.3,Win32,60.0240096,,,,,,,,4,Ontime,long,j,1,2.003,5,0,20,2,1,,,,,
0.66,,,,,,,,,j,red,5daca5b06aa37b00126c8d41,2021-09-27_18h34.05.327,forced_choiceRT_color,2021.2.3,Win32,60.0240096,,,,,,,,4,Ontime,long,j,1,1.988,5,1,21,2,1,,,,,
1.02,,,,,,,,,f,blue,5daca5b06aa37b00126c8d41,2021-09-27_18h34.05.327,forced_choiceRT_color,2021.2.3,Win32,60.0240096,,,,,,,,4,Ontime,long,f,1,2.053,5,2,22,1,1,,,,,
0.95,,,,,,,,,f,blue,5daca5b06aa37b00126c8d41,2021-09-27_18h34.05.327,forced_choiceRT_color,2021.2.3,Win32,60.0240096,,,,,,,,4,Ontime,long,f,1,2.056,5,3,23,1,1,,,,,
1.87,,,,,,,,,k,purple,5daca5b06aa37b00126c8d41,2021-09-27_18h34.05.327,forced_choiceRT_color,2021.2.3,Win32,60.0240096,,,,,,,,4,Slow,long,k,1,2.645,6,0,24,3,1,,,,,
0.67,,,,,,,,,k,purple,5daca5b06aa37b00126c8d41,2021-09-27_18h34.05.327,forced_choiceRT_color,2021.2.3,Win32,60.0240096,,,,,,,,4,Ontime,long,k,1,1.968,6,1,25,3,1,,,,,
1.19,,,,,,,,,d,orange,5daca5b06aa37b00126c8d41,2021-09-27_18h34.05.327,forced_choiceRT_color,2021.2.3,Win32,60.0240096,,,,,,,,4,Ontime,long,d,1,2.001,6,2,26,0,1,,,,,
1.18,,,,,,,,,d,orange,5daca5b06aa37b00126c8d41,2021-09-27_18h34.05.327,forced_choiceRT_color,2021.2.3,Win32,60.0240096,,,,,,,,4,Ontime,long,d,1,1.919,6,3,27,0,1,,,,,
0.18,,,,,,,,,f,blue,5daca5b06aa37b00126c8d41,2021-09-27_18h34.05.327,forced_choiceRT_color,2021.2.3,Win32,60.0240096,,,,,,,,4,Ontime,long,f,1,2.051,7,0,28,1,1,,,,,
1.32,,,,,,,,,j,red,5daca5b06aa37b00126c8d41,2021-09-27_18h34.05.327,forced_choiceRT_color,2021.2.3,Win32,60.0240096,,,,,,,,4,Slow,long,j,1,2.132,7,1,29,2,1,,,,,
1.19,,,,,,,,,d,orange,5daca5b06aa37b00126c8d41,2021-09-27_18h34.05.327,forced_choiceRT_color,2021.2.3,Win32,60.0240096,,,,,,,,4,Slow,long,d,1,2.186,7,2,30,0,1,,,,,
0.3,,,,,,,,,d,orange,5daca5b06aa37b00126c8d41,2021-09-27_18h34.05.327,forced_choiceRT_color,2021.2.3,Win32,60.0240096,,,,,,,,4,Ontime,long,d,1,2.034,7,3,31,0,1,,,,,
0.43,,,,,,,,,j,red,5daca5b06aa37b00126c8d41,2021-09-27_18h34.05.327,forced_choiceRT_color,2021.2.3,Win32,60.0240096,,,,,,,,4,Ontime,long,j,1,2.009,8,0,32,2,1,,,,,
1.32,,,,,,,,,j,red,5daca5b06aa37b00126c8d41,2021-09-27_18h34.05.327,forced_choiceRT_color,2021.2.3,Win32,60.0240096,,,,,,,,4,Ontime,long,j,1,2.034,8,1,33,2,1,,,,,
1.89,,,,,,,,,k,purple,5daca5b06aa37b00126c8d41,2021-09-27_18h34.05.327,forced_choiceRT_color,2021.2.3,Win32,60.0240096,,,,,,,,4,Slow,long,k,1,2.802,8,2,34,3,1,,,,,
1.94,,,,,,,,,f,blue,5daca5b06aa37b00126c8d41,2021-09-27_18h34.05.327,forced_choiceRT_color,2021.2.3,Win32,60.0240096,,,,,,,,4,Slow,long,f,1,2.853,8,3,35,1,1,,,,,
0.97,,,,,,,,,k,purple,5daca5b06aa37b00126c8d41,2021-09-27_18h34.05.327,forced_choiceRT_color,2021.2.3,Win32,60.0240096,,,,,,,,4,Ontime,long,k,1,1.985,9,0,36,3,1,,,,,
0.27,,,,,,,,,j,red,5daca5b06aa37b00126c8d41,2021-09-27_18h34.05.327,forced_choiceRT_color,2021.2.3,Win32,60.0240096,,,,,,,,4,Ontime,long,j,1,1.918,9,1,37,2,1,,,,,
0.99,,,,,,,,,j,red,5daca5b06aa37b00126c8d41,2021-09-27_18h34.05.327,forced_choiceRT_color,2021.2.3,Win32,60.0240096,,,,,,,,4,Slow,long,j,1,2.158,9,2,38,2,1,,,,,
1.73,,,,,,,,,j,red,5daca5b06aa37b00126c8d41,2021-09-27_18h34.05.327,forced_choiceRT_color,2021.2.3,Win32,60.0240096,,,,,,,,4,Slow,long,j,1,2.314,9,3,39,2,1,,,,,
,,,,,,,,,,,5daca5b06aa37b00126c8d41,2021-09-27_18h34.05.327,forced_choiceRT_color,2021.2.3,Win32,60.0240096,,,,,,,,,,,,,,,,,,,3,0,3,0,1
0.88,,,,,,,,,k,purple,5daca5b06aa37b00126c8d41,2021-09-27_18h34.05.327,forced_choiceRT_color,2021.2.3,Win32,60.0240096,,,,,,,,5,Ontime,long,k,1,2.014,0,0,0,3,1,,,,,
1.23,,,,,,,,,f,blue,5daca5b06aa37b00126c8d41,2021-09-27_18h34.05.327,forced_choiceRT_color,2021.2.3,Win32,60.0240096,,,,,,,,5,Slow,long,f,1,2.22,0,1,1,1,1,,,,,
1.65,,,,,,,,,j,red,5daca5b06aa37b00126c8d41,2021-09-27_18h34.05.327,forced_choiceRT_color,2021.2.3,Win32,60.0240096,,,,,,,,5,Slow,long,k,0,2.103,0,2,2,2,1,,,,,
1.97,,,,,,,,,f,blue,5daca5b06aa37b00126c8d41,2021-09-27_18h34.05.327,forced_choiceRT_color,2021.2.3,Win32,60.0240096,,,,,,,,5,Slow,long,d,0,2.518,0,3,3,1,1,,,,,
1.07,,,,,,,,,k,purple,5daca5b06aa37b00126c8d41,2021-09-27_18h34.05.327,forced_choiceRT_color,2021.2.3,Win32,60.0240096,,,,,,,,5,Ontime,long,j,0,2.051,1,0,4,3,1,,,,,
0.05,,,,,,,,,j,red,5daca5b06aa37b00126c8d41,2021-09-27_18h34.05.327,forced_choiceRT_color,2021.2.3,Win32,60.0240096,,,,,,,,5,Ontime,long,j,1,1.918,1,1,5,2,1,,,,,
1.28,,,,,,,,,f,blue,5daca5b06aa37b00126c8d41,2021-09-27_18h34.05.327,forced_choiceRT_color,2021.2.3,Win32,60.0240096,,,,,,,,5,Ontime,long,f,1,1.951,1,2,6,1,1,,,,,
1.68,,,,,,,,,k,purple,5daca5b06aa37b00126c8d41,2021-09-27_18h34.05.327,forced_choiceRT_color,2021.2.3,Win32,60.0240096,,,,,,,,5,Slow,long,k,1,2.703,1,3,7,3,1,,,,,
0.9,,,,,,,,,k,purple,5daca5b06aa37b00126c8d41,2021-09-27_18h34.05.327,forced_choiceRT_color,2021.2.3,Win32,60.0240096,,,,,,,,5,Ontime,long,k,1,2.019,2,0,8,3,1,,,,,
1.8,,,,,,,,,f,blue,5daca5b06aa37b00126c8d41,2021-09-27_18h34.05.327,forced_choiceRT_color,2021.2.3,Win32,60.0240096,,,,,,,,5,Slow,long,f,1,2.77,2,1,9,1,1,,,,,
1,,,,,,,,,j,red,5daca5b06aa37b00126c8d41,2021-09-27_18h34.05.327,forced_choiceRT_color,2021.2.3,Win32,60.0240096,,,,,,,,5,Fast,long,j,1,1.854,2,2,10,2,1,,,,,
0.28,,,,,,,,,f,blue,5daca5b06aa37b00126c8d41,2021-09-27_18h34.05.327,forced_choiceRT_color,2021.2.3,Win32,60.0240096,,,,,,,,5,Ontime,long,f,1,2.005,2,3,11,1,1,,,,,
1.47,,,,,,,,,j,red,5daca5b06aa37b00126c8d41,2021-09-27_18h34.05.327,forced_choiceRT_color,2021.2.3,Win32,60.0240096,,,,,,,,5,Slow,long,j,1,2.261,3,0,12,2,1,,,,,
1.48,,,,,,,,,f,blue,5daca5b06aa37b00126c8d41,2021-09-27_18h34.05.327,forced_choiceRT_color,2021.2.3,Win32,60.0240096,,,,,,,,5,Slow,long,f,1,2.12,3,1,13,1,1,,,,,
1.94,,,,,,,,,f,blue,5daca5b06aa37b00126c8d41,2021-09-27_18h34.05.327,forced_choiceRT_color,2021.2.3,Win32,60.0240096,,,,,,,,5,Slow,long,f,1,2.851,3,2,14,1,1,,,,,
1.65,,,,,,,,,d,orange,5daca5b06aa37b00126c8d41,2021-09-27_18h34.05.327,forced_choiceRT_color,2021.2.3,Win32,60.0240096,,,,,,,,5,Slow,long,d,1,2.367,3,3,15,0,1,,,,,
0.07,,,,,,,,,j,red,5daca5b06aa37b00126c8d41,2021-09-27_18h34.05.327,forced_choiceRT_color,2021.2.3,Win32,60.0240096,,,,,,,,5,Ontime,long,j,1,1.988,4,0,16,2,1,,,,,
0.88,,,,,,,,,d,orange,5daca5b06aa37b00126c8d41,2021-09-27_18h34.05.327,forced_choiceRT_color,2021.2.3,Win32,60.0240096,,,,,,,,5,Slow,long,d,1,2.114,4,1,17,0,1,,,,,
1.7,,,,,,,,,k,purple,5daca5b06aa37b00126c8d41,2021-09-27_18h34.05.327,forced_choiceRT_color,2021.2.3,Win32,60.0240096,,,,,,,,5,Slow,long,k,1,2.437,4,2,18,3,1,,,,,
0.35,,,,,,,,,j,red,5daca5b06aa37b00126c8d41,2021-09-27_18h34.05.327,forced_choiceRT_color,2021.2.3,Win32,60.0240096,,,,,,,,5,Ontime,long,j,1,1.937,4,3,19,2,1,,,,,
1.22,,,,,,,,,k,purple,5daca5b06aa37b00126c8d41,2021-09-27_18h34.05.327,forced_choiceRT_color,2021.2.3,Win32,60.0240096,,,,,,,,5,Ontime,long,k,1,1.901,5,0,20,3,1,,,,,
1.04,,,,,,,,,k,purple,5daca5b06aa37b00126c8d41,2021-09-27_18h34.05.327,forced_choiceRT_color,2021.2.3,Win32,60.0240096,,,,,,,,5,Ontime,long,k,1,2.073,5,1,21,3,1,,,,,
1.07,,,,,,,,,d,orange,5daca5b06aa37b00126c8d41,2021-09-27_18h34.05.327,forced_choiceRT_color,2021.2.3,Win32,60.0240096,,,,,,,,5,Ontime,long,d,1,2.055,5,2,22,0,1,,,,,
0.33,,,,,,,,,f,blue,5daca5b06aa37b00126c8d41,2021-09-27_18h34.05.327,forced_choiceRT_color,2021.2.3,Win32,60.0240096,,,,,,,,5,Ontime,long,f,1,1.961,5,3,23,1,1,,,,,
1.71,,,,,,,,,d,orange,5daca5b06aa37b00126c8d41,2021-09-27_18h34.05.327,forced_choiceRT_color,2021.2.3,Win32,60.0240096,,,,,,,,5,Slow,long,d,1,2.431,6,0,24,0,1,,,,,
0.02,,,,,,,,,f,blue,5daca5b06aa37b00126c8d41,2021-09-27_18h34.05.327,forced_choiceRT_color,2021.2.3,Win32,60.0240096,,,,,,,,5,Ontime,long,f,1,2.054,6,1,25,1,1,,,,,
0.48,,,,,,,,,k,purple,5daca5b06aa37b00126c8d41,2021-09-27_18h34.05.327,forced_choiceRT_color,2021.2.3,Win32,60.0240096,,,,,,,,5,Ontime,long,k,1,1.937,6,2,26,3,1,,,,,
0.08,,,,,,,,,j,red,5daca5b06aa37b00126c8d41,2021-09-27_18h34.05.327,forced_choiceRT_color,2021.2.3,Win32,60.0240096,,,,,,,,5,Ontime,long,j,1,1.905,6,3,27,2,1,,,,,
0.98,,,,,,,,,d,orange,5daca5b06aa37b00126c8d41,2021-09-27_18h34.05.327,forced_choiceRT_color,2021.2.3,Win32,60.0240096,,,,,,,,5,Ontime,long,d,1,2.052,7,0,28,0,1,,,,,
1.61,,,,,,,,,d,orange,5daca5b06aa37b00126c8d41,2021-09-27_18h34.05.327,forced_choiceRT_color,2021.2.3,Win32,60.0240096,,,,,,,,5,Slow,long,d,1,2.237,7,1,29,0,1,,,,,
0.79,,,,,,,,,d,orange,5daca5b06aa37b00126c8d41,2021-09-27_18h34.05.327,forced_choiceRT_color,2021.2.3,Win32,60.0240096,,,,,,,,5,Ontime,long,d,1,2.036,7,2,30,0,1,,,,,
1.53,,,,,,,,,d,orange,5daca5b06aa37b00126c8d41,2021-09-27_18h34.05.327,forced_choiceRT_color,2021.2.3,Win32,60.0240096,,,,,,,,5,Ontime,long,d,1,2.02,7,3,31,0,1,,,,,
1.76,,,,,,,,,f,blue,5daca5b06aa37b00126c8d41,2021-09-27_18h34.05.327,forced_choiceRT_color,2021.2.3,Win32,60.0240096,,,,,,,,5,Slow,long,f,1,2.617,8,0,32,1,1,,,,,
0.55,,,,,,,,,d,orange,5daca5b06aa37b00126c8d41,2021-09-27_18h34.05.327,forced_choiceRT_color,2021.2.3,Win32,60.0240096,,,,,,,,5,Ontime,long,d,1,2.033,8,1,33,0,1,,,,,
0.36,,,,,,,,,j,red,5daca5b06aa37b00126c8d41,2021-09-27_18h34.05.327,forced_choiceRT_color,2021.2.3,Win32,60.0240096,,,,,,,,5,Ontime,long,j,1,2.003,8,2,34,2,1,,,,,
1.12,,,,,,,,,k,purple,5daca5b06aa37b00126c8d41,2021-09-27_18h34.05.327,forced_choiceRT_color,2021.2.3,Win32,60.0240096,,,,,,,,5,Slow,long,k,1,2.119,8,3,35,3,1,,,,,
1.9,,,,,,,,,d,orange,5daca5b06aa37b00126c8d41,2021-09-27_18h34.05.327,forced_choiceRT_color,2021.2.3,Win32,60.0240096,,,,,,,,5,Slow,long,f,0,2.457,9,0,36,0,1,,,,,
0.06,,,,,,,,,j,red,5daca5b06aa37b00126c8d41,2021-09-27_18h34.05.327,forced_choiceRT_color,2021.2.3,Win32,60.0240096,,,,,,,,5,Ontime,long,j,1,1.935,9,1,37,2,1,,,,,
0.24,,,,,,,,,j,red,5daca5b06aa37b00126c8d41,2021-09-27_18h34.05.327,forced_choiceRT_color,2021.2.3,Win32,60.0240096,,,,,,,,5,Ontime,long,j,1,1.901,9,2,38,2,1,,,,,
0.5,,,,,,,,,k,purple,5daca5b06aa37b00126c8d41,2021-09-27_18h34.05.327,forced_choiceRT_color,2021.2.3,Win32,60.0240096,,,,,,,,5,Ontime,long,k,1,2.001,9,3,39,3,1,,,,,
,,,,,,,,,,,5daca5b06aa37b00126c8d41,2021-09-27_18h34.05.327,forced_choiceRT_color,2021.2.3,Win32,60.0240096,,,,,,,,,,,,,,,,,,,4,0,4,0,1
0.37,,,,,,,,,d,orange,5daca5b06aa37b00126c8d41,2021-09-27_18h34.05.327,forced_choiceRT_color,2021.2.3,Win32,60.0240096,,,,,,,,6,Ontime,long,d,1,1.977,0,0,0,0,1,,,,,
0.38,,,,,,,,,j,red,5daca5b06aa37b00126c8d41,2021-09-27_18h34.05.327,forced_choiceRT_color,2021.2.3,Win32,60.0240096,,,,,,,,6,Ontime,long,j,1,1.921,0,1,1,2,1,,,,,
0.46,,,,,,,,,d,orange,5daca5b06aa37b00126c8d41,2021-09-27_18h34.05.327,forced_choiceRT_color,2021.2.3,Win32,60.0240096,,,,,,,,6,Ontime,long,d,1,2.021,0,2,2,0,1,,,,,
1.19,,,,,,,,,k,purple,5daca5b06aa37b00126c8d41,2021-09-27_18h34.05.327,forced_choiceRT_color,2021.2.3,Win32,60.0240096,,,,,,,,6,Slow,long,k,1,2.171,0,3,3,3,1,,,,,
1.76,,,,,,,,,f,blue,5daca5b06aa37b00126c8d41,2021-09-27_18h34.05.327,forced_choiceRT_color,2021.2.3,Win32,60.0240096,,,,,,,,6,Slow,long,f,1,2.604,1,0,4,1,1,,,,,
1.99,,,,,,,,,j,red,5daca5b06aa37b00126c8d41,2021-09-27_18h34.05.327,forced_choiceRT_color,2021.2.3,Win32,60.0240096,,,,,,,,6,Slow,long,j,1,2.834,1,1,5,2,1,,,,,
0.49,,,,,,,,,d,orange,5daca5b06aa37b00126c8d41,2021-09-27_18h34.05.327,forced_choiceRT_color,2021.2.3,Win32,60.0240096,,,,,,,,6,Ontime,long,d,1,2.07,1,2,6,0,1,,,,,
0.94,,,,,,,,,f,blue,5daca5b06aa37b00126c8d41,2021-09-27_18h34.05.327,forced_choiceRT_color,2021.2.3,Win32,60.0240096,,,,,,,,6,Ontime,long,f,1,2,1,3,7,1,1,,,,,
0.8,,,,,,,,,j,red,5daca5b06aa37b00126c8d41,2021-09-27_18h34.05.327,forced_choiceRT_color,2021.2.3,Win32,60.0240096,,,,,,,,6,Ontime,long,j,1,2.038,2,0,8,2,1,,,,,
0.62,,,,,,,,,f,blue,5daca5b06aa37b00126c8d41,2021-09-27_18h34.05.327,forced_choiceRT_color,2021.2.3,Win32,60.0240096,,,,,,,,6,Ontime,long,f,1,1.966,2,1,9,1,1,,,,,
0.82,,,,,,,,,k,purple,5daca5b06aa37b00126c8d41,2021-09-27_18h34.05.327,forced_choiceRT_color,2021.2.3,Win32,60.0240096,,,,,,,,6,Slow,long,k,1,2.302,2,2,10,3,1,,,,,
1.64,,,,,,,,,k,purple,5daca5b06aa37b00126c8d41,2021-09-27_18h34.05.327,forced_choiceRT_color,2021.2.3,Win32,60.0240096,,,,,,,,6,Slow,long,k,1,2.153,2,3,11,3,1,,,,,
1.79,,,,,,,,,j,red,5daca5b06aa37b00126c8d41,2021-09-27_18h34.05.327,forced_choiceRT_color,2021.2.3,Win32,60.0240096,,,,,,,,6,Slow,long,j,1,2.254,3,0,12,2,1,,,,,
0.94,,,,,,,,,f,blue,5daca5b06aa37b00126c8d41,2021-09-27_18h34.05.327,forced_choiceRT_color,2021.2.3,Win32,60.0240096,,,,,,,,6,Slow,long,f,1,2.203,3,1,13,1,1,,,,,
1.11,,,,,,,,,d,orange,5daca5b06aa37b00126c8d41,2021-09-27_18h34.05.327,forced_choiceRT_color,2021.2.3,Win32,60.0240096,,,,,,,,6,Ontime,long,d,1,1.912,3,2,14,0,1,,,,,
0.21,,,,,,,,,d,orange,5daca5b06aa37b00126c8d41,2021-09-27_18h34.05.327,forced_choiceRT_color,2021.2.3,Win32,60.0240096,,,,,,,,6,Ontime,long,d,1,2.068,3,3,15,0,1,,,,,
0.51,,,,,,,,,d,orange,5daca5b06aa37b00126c8d41,2021-09-27_18h34.05.327,forced_choiceRT_color,2021.2.3,Win32,60.0240096,,,,,,,,6,Ontime,long,d,1,1.952,4,0,16,0,1,,,,,
1.43,,,,,,,,,f,blue,5daca5b06aa37b00126c8d41,2021-09-27_18h34.05.327,forced_choiceRT_color,2021.2.3,Win32,60.0240096,,,,,,,,6,Fast,long,f,1,1.886,4,1,17,1,1,,,,,
1.14,,,,,,,,,k,purple,5daca5b06aa37b00126c8d41,2021-09-27_18h34.05.327,forced_choiceRT_color,2021.2.3,Win32,60.0240096,,,,,,,,6,Ontime,long,k,1,1.92,4,2,18,3,1,,,,,
0.12,,,,,,,,,k,purple,5daca5b06aa37b00126c8d41,2021-09-27_18h34.05.327,forced_choiceRT_color,2021.2.3,Win32,60.0240096,,,,,,,,6,Ontime,long,k,1,1.954,4,3,19,3,1,,,,,
0.23,,,,,,,,,j,red,5daca5b06aa37b00126c8d41,2021-09-27_18h34.05.327,forced_choiceRT_color,2021.2.3,Win32,60.0240096,,,,,,,,6,Fast,long,j,1,1.737,5,0,20,2,1,,,,,
0.68,,,,,,,,,f,blue,5daca5b06aa37b00126c8d41,2021-09-27_18h34.05.327,forced_choiceRT_color,2021.2.3,Win32,60.0240096,,,,,,,,6,Ontime,long,f,1,1.921,5,1,21,1,1,,,,,
1.96,,,,,,,,,d,orange,5daca5b06aa37b00126c8d41,2021-09-27_18h34.05.327,forced_choiceRT_color,2021.2.3,Win32,60.0240096,,,,,,,,6,Slow,long,d,1,2.663,5,2,22,0,1,,,,,
0.94,,,,,,,,,k,purple,5daca5b06aa37b00126c8d41,2021-09-27_18h34.05.327,forced_choiceRT_color,2021.2.3,Win32,60.0240096,,,,,,,,6,Fast,long,k,1,1.819,5,3,23,3,1,,,,,
1.26,,,,,,,,,j,red,5daca5b06aa37b00126c8d41,2021-09-27_18h34.05.327,forced_choiceRT_color,2021.2.3,Win32,60.0240096,,,,,,,,6,Ontime,long,j,1,2.056,6,0,24,2,1,,,,,
0.41,,,,,,,,,f,blue,5daca5b06aa37b00126c8d41,2021-09-27_18h34.05.327,forced_choiceRT_color,2021.2.3,Win32,60.0240096,,,,,,,,6,Ontime,long,f,1,1.906,6,1,25,1,1,,,,,
0.76,,,,,,,,,j,red,5daca5b06aa37b00126c8d41,2021-09-27_18h34.05.327,forced_choiceRT_color,2021.2.3,Win32,60.0240096,,,,,,,,6,Ontime,long,j,1,1.957,6,2,26,2,1,,,,,
0.94,,,,,,,,,f,blue,5daca5b06aa37b00126c8d41,2021-09-27_18h34.05.327,forced_choiceRT_color,2021.2.3,Win32,60.0240096,,,,,,,,6,Ontime,long,k,0,1.969,6,3,27,1,1,,,,,
1.96,,,,,,,,,j,red,5daca5b06aa37b00126c8d41,2021-09-27_18h34.05.327,forced_choiceRT_color,2021.2.3,Win32,60.0240096,,,,,,,,6,Slow,long,j,1,2.53,7,0,28,2,1,,,,,
1.2,,,,,,,,,k,purple,5daca5b06aa37b00126c8d41,2021-09-27_18h34.05.327,forced_choiceRT_color,2021.2.3,Win32,60.0240096,,,,,,,,6,Slow,long,k,1,2.17,7,1,29,3,1,,,,,
0.36,,,,,,,,,d,orange,5daca5b06aa37b00126c8d41,2021-09-27_18h34.05.327,forced_choiceRT_color,2021.2.3,Win32,60.0240096,,,,,,,,6,Fast,long,d,1,1.769,7,2,30,0,1,,,,,
1.22,,,,,,,,,j,red,5daca5b06aa37b00126c8d41,2021-09-27_18h34.05.327,forced_choiceRT_color,2021.2.3,Win32,60.0240096,,,,,,,,6,Ontime,long,j,1,1.936,7,3,31,2,1,,,,,
0.63,,,,,,,,,j,red,5daca5b06aa37b00126c8d41,2021-09-27_18h34.05.327,forced_choiceRT_color,2021.2.3,Win32,60.0240096,,,,,,,,6,Ontime,long,j,1,2.1,8,0,32,2,1,,,,,
0.24,,,,,,,,,f,blue,5daca5b06aa37b00126c8d41,2021-09-27_18h34.05.327,forced_choiceRT_color,2021.2.3,Win32,60.0240096,,,,,,,,6,Fast,long,f,1,1.83,8,1,33,1,1,,,,,
1.47,,,,,,,,,k,purple,5daca5b06aa37b00126c8d41,2021-09-27_18h34.05.327,forced_choiceRT_color,2021.2.3,Win32,60.0240096,,,,,,,,6,Ontime,long,f,0,2.037,8,2,34,3,1,,,,,
1.16,,,,,,,,,k,purple,5daca5b06aa37b00126c8d41,2021-09-27_18h34.05.327,forced_choiceRT_color,2021.2.3,Win32,60.0240096,,,,,,,,6,Ontime,long,k,1,2.017,8,3,35,3,1,,,,,
0.74,,,,,,,,,k,purple,5daca5b06aa37b00126c8d41,2021-09-27_18h34.05.327,forced_choiceRT_color,2021.2.3,Win32,60.0240096,,,,,,,,6,Ontime,long,k,1,1.904,9,0,36,3,1,,,,,
0.52,,,,,,,,,f,blue,5daca5b06aa37b00126c8d41,2021-09-27_18h34.05.327,forced_choiceRT_color,2021.2.3,Win32,60.0240096,,,,,,,,6,Fast,long,f,1,1.871,9,1,37,1,1,,,,,
1.79,,,,,,,,,d,orange,5daca5b06aa37b00126c8d41,2021-09-27_18h34.05.327,forced_choiceRT_color,2021.2.3,Win32,60.0240096,,,,,,,,6,Slow,long,d,1,2.383,9,2,38,0,1,,,,,
0.1,,,,,,,,,d,orange,5daca5b06aa37b00126c8d41,2021-09-27_18h34.05.327,forced_choiceRT_color,2021.2.3,Win32,60.0240096,,,,,,,,6,Ontime,long,d,1,2.001,9,3,39,0,1,,,,,
,,,,,,,,,,,5daca5b06aa37b00126c8d41,2021-09-27_18h34.05.327,forced_choiceRT_color,2021.2.3,Win32,60.0240096,,,,,,,,,,,,,,,,,,,5,0,5,0,1
0.15,,,,,,,,,f,blue,5daca5b06aa37b00126c8d41,2021-09-27_18h34.05.327,forced_choiceRT_color,2021.2.3,Win32,60.0240096,,,,,,,,7,Ontime,long,f,1,2.014,0,0,0,1,1,,,,,
1.39,,,,,,,,,j,red,5daca5b06aa37b00126c8d41,2021-09-27_18h34.05.327,forced_choiceRT_color,2021.2.3,Win32,60.0240096,,,,,,,,7,Ontime,long,j,1,2.019,0,1,1,2,1,,,,,
0.65,,,,,,,,,k,purple,5daca5b06aa37b00126c8d41,2021-09-27_18h34.05.327,forced_choiceRT_color,2021.2.3,Win32,60.0240096,,,,,,,,7,Ontime,long,k,1,2.002,0,2,2,3,1,,,,,
1.88,,,,,,,,,k,purple,5daca5b06aa37b00126c8d41,2021-09-27_18h34.05.327,forced_choiceRT_color,2021.2.3,Win32,60.0240096,,,,,,,,7,Ontime,long,d,0,2.048,0,3,3,3,1,,,,,
1.8,,,,,,,,,d,orange,5daca5b06aa37b00126c8d41,2021-09-27_18h34.05.327,forced_choiceRT_color,2021.2.3,Win32,60.0240096,,,,,,,,7,Ontime,long,f,0,2.05,1,0,4,0,1,,,,,
1.28,,,,,,,,,f,blue,5daca5b06aa37b00126c8d41,2021-09-27_18h34.05.327,forced_choiceRT_color,2021.2.3,Win32,60.0240096,,,,,,,,7,Ontime,long,j,0,2.07,1,1,5,1,1,,,,,
1.53,,,,,,,,,j,red,5daca5b06aa37b00126c8d41,2021-09-27_18h34.05.327,forced_choiceRT_color,2021.2.3,Win32,60.0240096,,,,,,,,7,Ontime,long,j,1,2.037,1,2,6,2,1,,,,,
0,,,,,,,,,d,orange,5daca5b06aa37b00126c8d41,2021-09-27_18h34.05.327,forced_choiceRT_color,2021.2.3,Win32,60.0240096,,,,,,,,7,Ontime,long,d,1,2.008,1,3,7,0,1,,,,,
1.44,,,,,,,,,f,blue,5daca5b06aa37b00126c8d41,2021-09-27_18h34.05.327,forced_choiceRT_color,2021.2.3,Win32,60.0240096,,,,,,,,7,Ontime,long,j,0,2.084,2,0,8,1,1,,,,,
0.35,,,,,,,,,k,purple,5daca5b06aa37b00126c8d41,2021-09-27_18h34.05.327,forced_choiceRT_color,2021.2.3,Win32,60.0240096,,,,,,,,7,Ontime,long,k,1,2.036,2,1,9,3,1,,,,,
1,,,,,,,,,j,red,5daca5b06aa37b00126c8d41,2021-09-27_18h34.05.327,forced_choiceRT_color,2021.2.3,Win32,60.0240096,,,,,,,,7,Ontime,long,j,1,1.97,2,2,10,2,1,,,,,
0.06,,,,,,,,,k,purple,5daca5b06aa37b00126c8d41,2021-09-27_18h34.05.327,forced_choiceRT_color,2021.2.3,Win32,60.0240096,,,,,,,,7,Ontime,long,k,1,2.065,2,3,11,3,1,,,,,
1.57,,,,,,,,,f,blue,5daca5b06aa37b00126c8d41,2021-09-27_18h34.05.327,forced_choiceRT_color,2021.2.3,Win32,60.0240096,,,,,,,,7,Slow,long,j,0,2.11,3,0,12,1,1,,,,,
1.51,,,,,,,,,d,orange,5daca5b06aa37b00126c8d41,2021-09-27_18h34.05.327,forced_choiceRT_color,2021.2.3,Win32,60.0240096,,,,,,,,7,Ontime,long,d,1,2.014,3,1,13,0,1,,,,,
1.72,,,,,,,,,f,blue,5daca5b06aa37b00126c8d41,2021-09-27_18h34.05.327,forced_choiceRT_color,2021.2.3,Win32,60.0240096,,,,,,,,7,Ontime,long,f,1,2.07,3,2,14,1,1,,,,,
0.54,,,,,,,,,d,orange,5daca5b06aa37b00126c8d41,2021-09-27_18h34.05.327,forced_choiceRT_color,2021.2.3,Win32,60.0240096,,,,,,,,7,Ontime,long,d,1,1.98,3,3,15,0,1,,,,,
1.46,,,,,,,,,d,orange,5daca5b06aa37b00126c8d41,2021-09-27_18h34.05.327,forced_choiceRT_color,2021.2.3,Win32,60.0240096,,,,,,,,7,Ontime,long,d,1,2.014,4,0,16,0,1,,,,,
0.65,,,,,,,,,d,orange,5daca5b06aa37b00126c8d41,2021-09-27_18h34.05.327,forced_choiceRT_color,2021.2.3,Win32,60.0240096,,,,,,,,7,Ontime,long,d,1,1.987,4,1,17,0,1,,,,,
0.62,,,,,,,,,f,blue,5daca5b06aa37b00126c8d41,2021-09-27_18h34.05.327,forced_choiceRT_color,2021.2.3,Win32,60.0240096,,,,,,,,7,Ontime,long,f,1,2.054,4,2,18,1,1,,,,,
0.11,,,,,,,,,k,purple,5daca5b06aa37b00126c8d41,2021-09-27_18h34.05.327,forced_choiceRT_color,2021.2.3,Win32,60.0240096,,,,,,,,7,Ontime,long,k,1,1.985,4,3,19,3,1,,,,,
0.77,,,,,,,,,d,orange,5daca5b06aa37b00126c8d41,2021-09-27_18h34.05.327,forced_choiceRT_color,2021.2.3,Win32,60.0240096,,,,,,,,7,Ontime,long,d,1,2.021,5,0,20,0,1,,,,,
1.17,,,,,,,,,k,purple,5daca5b06aa37b00126c8d41,2021-09-27_18h34.05.327,forced_choiceRT_color,2021.2.3,Win32,60.0240096,,,,,,,,7,Ontime,long,k,1,2.002,5,1,21,3,1,,,,,
1.77,,,,,,,,,d,orange,5daca5b06aa37b00126c8d41,2021-09-27_18h34.05.327,forced_choiceRT_color,2021.2.3,Win32,60.0240096,,,,,,,,7,Fast,long,d,1,1.891,5,2,22,0,1,,,,,
1.29,,,,,,,,,j,red,5daca5b06aa37b00126c8d41,2021-09-27_18h34.05.327,forced_choiceRT_color,2021.2.3,Win32,60.0240096,,,,,,,,7,Fast,long,j,1,1.885,5,3,23,2,1,,,,,
1.38,,,,,,,,,f,blue,5daca5b06aa37b00126c8d41,2021-09-27_18h34.05.327,forced_choiceRT_color,2021.2.3,Win32,60.0240096,,,,,,,,7,Ontime,long,k,0,1.952,6,0,24,1,1,,,,,
1.77,,,,,,,,,f,blue,5daca5b06aa37b00126c8d41,2021-09-27_18h34.05.327,forced_choiceRT_color,2021.2.3,Win32,60.0240096,,,,,,,,7,Slow,long,f,1,2.299,6,1,25,1,1,,,,,
0,,,,,,,,,d,orange,5daca5b06aa37b00126c8d41,2021-09-27_18h34.05.327,forced_choiceRT_color,2021.2.3,Win32,60.0240096,,,,,,,,7,Ontime,long,d,1,2.021,6,2,26,0,1,,,,,
1.34,,,,,,,,,j,red,5daca5b06aa37b00126c8d41,2021-09-27_18h34.05.327,forced_choiceRT_color,2021.2.3,Win32,60.0240096,,,,,,,,7,Ontime,long,j,1,1.919,6,3,27,2,1,,,,,
0.6,,,,,,,,,j,red,5daca5b06aa37b00126c8d41,2021-09-27_18h34.05.327,forced_choiceRT_color,2021.2.3,Win32,60.0240096,,,,,,,,7,Ontime,long,j,1,2.072,7,0,28,2,1,,,,,
0.21,,,,,,,,,j,red,5daca5b06aa37b00126c8d41,2021-09-27_18h34.05.327,forced_choiceRT_color,2021.2.3,Win32,60.0240096,,,,,,,,7,Ontime,long,j,1,1.941,7,1,29,2,1,,,,,
0.76,,,,,,,,,f,blue,5daca5b06aa37b00126c8d41,2021-09-27_18h34.05.327,forced_choiceRT_color,2021.2.3,Win32,60.0240096,,,,,,,,7,Ontime,long,f,1,1.902,7,2,30,1,1,,,,,
1.75,,,,,,,,,j,red,5daca5b06aa37b00126c8d41,2021-09-27_18h34.05.327,forced_choiceRT_color,2021.2.3,Win32,60.0240096,,,,,,,,7,Fast,long,j,1,1.816,7,3,31,2,1,,,,,
1.65,,,,,,,,,d,orange,5daca5b06aa37b00126c8d41,2021-09-27_18h34.05.327,forced_choiceRT_color,2021.2.3,Win32,60.0240096,,,,,,,,7,Ontime,long,j,0,1.927,8,0,32,0,1,,,,,
1.35,,,,,,,,,k,purple,5daca5b06aa37b00126c8d41,2021-09-27_18h34.05.327,forced_choiceRT_color,2021.2.3,Win32,60.0240096,,,,,,,,7,Slow,long,k,1,2.136,8,1,33,3,1,,,,,
1.23,,,,,,,,,k,purple,5daca5b06aa37b00126c8d41,2021-09-27_18h34.05.327,forced_choiceRT_color,2021.2.3,Win32,60.0240096,,,,,,,,7,Fast,long,k,1,1.85,8,2,34,3,1,,,,,
1.17,,,,,,,,,j,red,5daca5b06aa37b00126c8d41,2021-09-27_18h34.05.327,forced_choiceRT_color,2021.2.3,Win32,60.0240096,,,,,,,,7,Ontime,long,j,1,1.97,8,3,35,2,1,,,,,
1.25,,,,,,,,,f,blue,5daca5b06aa37b00126c8d41,2021-09-27_18h34.05.327,forced_choiceRT_color,2021.2.3,Win32,60.0240096,,,,,,,,7,Ontime,long,f,1,1.966,9,0,36,1,1,,,,,
0.46,,,,,,,,,j,red,5daca5b06aa37b00126c8d41,2021-09-27_18h34.05.327,forced_choiceRT_color,2021.2.3,Win32,60.0240096,,,,,,,,7,Ontime,long,j,1,2.022,9,1,37,2,1,,,,,
0.34,,,,,,,,,k,purple,5daca5b06aa37b00126c8d41,2021-09-27_18h34.05.327,forced_choiceRT_color,2021.2.3,Win32,60.0240096,,,,,,,,7,Ontime,long,k,1,1.919,9,2,38,3,1,,,,,
0.43,,,,,,,,,k,purple,5daca5b06aa37b00126c8d41,2021-09-27_18h34.05.327,forced_choiceRT_color,2021.2.3,Win32,60.0240096,,,,,,,,7,Fast,long,k,1,1.872,9,3,39,3,1,,,,,
,,,,,,,,,,,5daca5b06aa37b00126c8d41,2021-09-27_18h34.05.327,forced_choiceRT_color,2021.2.3,Win32,60.0240096,,,,,,,,,,,,,,,,,,,6,0,6,0,1
0.73,,,,,,,,,f,blue,5daca5b06aa37b00126c8d41,2021-09-27_18h34.05.327,forced_choiceRT_color,2021.2.3,Win32,60.0240096,,,,,,,,8,Ontime,long,f,1,2.015,0,0,0,1,1,,,,,
1.89,,,,,,,,,k,purple,5daca5b06aa37b00126c8d41,2021-09-27_18h34.05.327,forced_choiceRT_color,2021.2.3,Win32,60.0240096,,,,,,,,8,Slow,long,k,1,2.753,0,1,1,3,1,,,,,
1.6,,,,,,,,,j,red,5daca5b06aa37b00126c8d41,2021-09-27_18h34.05.327,forced_choiceRT_color,2021.2.3,Win32,60.0240096,,,,,,,,8,Ontime,long,d,0,1.933,0,2,2,2,1,,,,,
1.21,,,,,,,,,f,blue,5daca5b06aa37b00126c8d41,2021-09-27_18h34.05.327,forced_choiceRT_color,2021.2.3,Win32,60.0240096,,,,,,,,8,Ontime,long,f,1,1.951,0,3,3,1,1,,,,,
0.81,,,,,,,,,f,blue,5daca5b06aa37b00126c8d41,2021-09-27_18h34.05.327,forced_choiceRT_color,2021.2.3,Win32,60.0240096,,,,,,,,8,Ontime,long,f,1,1.918,1,0,4,1,1,,,,,
0.82,,,,,,,,,d,orange,5daca5b06aa37b00126c8d41,2021-09-27_18h34.05.327,forced_choiceRT_color,2021.2.3,Win32,60.0240096,,,,,,,,8,Ontime,long,d,1,2.086,1,1,5,0,1,,,,,
0.69,,,,,,,,,j,red,5daca5b06aa37b00126c8d41,2021-09-27_18h34.05.327,forced_choiceRT_color,2021.2.3,Win32,60.0240096,,,,,,,,8,Fast,long,j,1,1.887,1,2,6,2,1,,,,,
1.67,,,,,,,,,f,blue,5daca5b06aa37b00126c8d41,2021-09-27_18h34.05.327,forced_choiceRT_color,2021.2.3,Win32,60.0240096,,,,,,,,8,Ontime,long,k,0,1.905,1,3,7,1,1,,,,,
0.97,,,,,,,,,d,orange,5daca5b06aa37b00126c8d41,2021-09-27_18h34.05.327,forced_choiceRT_color,2021.2.3,Win32,60.0240096,,,,,,,,8,Ontime,long,d,1,1.954,2,0,8,0,1,,,,,
0.43,,,,,,,,,j,red,5daca5b06aa37b00126c8d41,2021-09-27_18h34.05.327,forced_choiceRT_color,2021.2.3,Win32,60.0240096,,,,,,,,8,Fast,long,j,1,1.869,2,1,9,2,1,,,,,
0.79,,,,,,,,,f,blue,5daca5b06aa37b00126c8d41,2021-09-27_18h34.05.327,forced_choiceRT_color,2021.2.3,Win32,60.0240096,,,,,,,,8,Ontime,long,f,1,1.99,2,2,10,1,1,,,,,
0.26,,,,,,,,,d,orange,5daca5b06aa37b00126c8d41,2021-09-27_18h34.05.327,forced_choiceRT_color,2021.2.3,Win32,60.0240096,,,,,,,,8,Ontime,long,d,1,1.937,2,3,11,0,1,,,,,
0.81,,,,,,,,,d,orange,5daca5b06aa37b00126c8d41,2021-09-27_18h34.05.327,forced_choiceRT_color,2021.2.3,Win32,60.0240096,,,,,,,,8,Fast,long,d,1,1.874,3,0,12,0,1,,,,,
0.92,,,,,,,,,f,blue,5daca5b06aa37b00126c8d41,2021-09-27_18h34.05.327,forced_choiceRT_color,2021.2.3,Win32,60.0240096,,,,,,,,8,Ontime,long,f,1,1.984,3,1,13,1,1,,,,,
0.83,,,,,,,,,d,orange,5daca5b06aa37b00126c8d41,2021-09-27_18h34.05.327,forced_choiceRT_color,2021.2.3,Win32,60.0240096,,,,,,,,8,Ontime,long,d,1,2.037,3,2,14,0,1,,,,,
1.04,,,,,,,,,j,red,5daca5b06aa37b00126c8d41,2021-09-27_18h34.05.327,forced_choiceRT_color,2021.2.3,Win32,60.0240096,,,,,,,,8,Ontime,long,j,1,2.085,3,3,15,2,1,,,,,
1.88,,,,,,,,,k,purple,5daca5b06aa37b00126c8d41,2021-09-27_18h34.05.327,forced_choiceRT_color,2021.2.3,Win32,60.0240096,,,,,,,,8,Fast,long,k,1,1.871,4,0,16,3,1,,,,,
1.26,,,,,,,,,k,purple,5daca5b06aa37b00126c8d41,2021-09-27_18h34.05.327,forced_choiceRT_color,2021.2.3,Win32,60.0240096,,,,,,,,8,Ontime,long,k,1,1.92,4,1,17,3,1,,,,,
0.08,,,,,,,,,j,red,5daca5b06aa37b00126c8d41,2021-09-27_18h34.05.327,forced_choiceRT_color,2021.2.3,Win32,60.0240096,,,,,,,,8,Ontime,long,j,1,2.042,4,2,18,2,1,,,,,
0.77,,,,,,,,,k,purple,5daca5b06aa37b00126c8d41,2021-09-27_18h34.05.327,forced_choiceRT_color,2021.2.3,Win32,60.0240096,,,,,,,,8,Ontime,long,k,1,2.024,4,3,19,3,1,,,,,
1.92,,,,,,,,,k,purple,5daca5b06aa37b00126c8d41,2021-09-27_18h34.05.327,forced_choiceRT_color,2021.2.3,Win32,60.0240096,,,,,,,,8,Slow,long,k,1,2.235,5,0,20,3,1,,,,,
0.04,,,,,,,,,j,red,5daca5b06aa37b00126c8d41,2021-09-27_18h34.05.327,forced_choiceRT_color,2021.2.3,Win32,60.0240096,,,,,,,,8,Ontime,long,j,1,1.935,5,1,21,2,1,,,,,
1.81,,,,,,,,,j,red,5daca5b06aa37b00126c8d41,2021-09-27_18h34.05.327,forced_choiceRT_color,2021.2.3,Win32,60.0240096,,,,,,,,8,Ontime,long,d,0,1.934,5,2,22,2,1,,,,,
0.92,,,,,,,,,k,purple,5daca5b06aa37b00126c8d41,2021-09-27_18h34.05.327,forced_choiceRT_color,2021.2.3,Win32,60.0240096,,,,,,,,8,Ontime,long,k,1,1.986,5,3,23,3,1,,,,,
0.34,,,,,,,,,d,orange,5daca5b06aa37b00126c8d41,2021-09-27_18h34.05.327,forced_choiceRT_color,2021.2.3,Win32,60.0240096,,,,,,,,8,Ontime,long,d,1,1.95,6,0,24,0,1,,,,,
1.22,,,,,,,,,k,purple,5daca5b06aa37b00126c8d41,2021-09-27_18h34.05.327,forced_choiceRT_color,2021.2.3,Win32,60.0240096,,,,,,,,8,Ontime,long,k,1,1.92,6,1,25,3,1,,,,,
1.55,,,,,,,,,f,blue,5daca5b06aa37b00126c8d41,2021-09-27_18h34.05.327,forced_choiceRT_color,2021.2.3,Win32,60.0240096,,,,,,,,8,Fast,long,j,0,1.887,6,2,26,1,1,,,,,
1.77,,,,,,,,,j,red,5daca5b06aa37b00126c8d41,2021-09-27_18h34.05.327,forced_choiceRT_color,2021.2.3,Win32,60.0240096,,,,,,,,8,Ontime,long,f,0,1.97,6,3,27,2,1,,,,,
0.49,,,,,,,,,f,blue,5daca5b06aa37b00126c8d41,2021-09-27_18h34.05.327,forced_choiceRT_color,2021.2.3,Win32,60.0240096,,,,,,,,8,Ontime,long,f,1,1.952,7,0,28,1,1,,,,,
0.42,,,,,,,,,d,orange,5daca5b06aa37b00126c8d41,2021-09-27_18h34.05.327,forced_choiceRT_color,2021.2.3,Win32,60.0240096,,,,,,,,8,Ontime,long,d,1,2.003,7,1,29,0,1,,,,,
1.5,,,,,,,,,k,purple,5daca5b06aa37b00126c8d41,2021-09-27_18h34.05.327,forced_choiceRT_color,2021.2.3,Win32,60.0240096,,,,,,,,8,Ontime,long,f,0,2.005,7,2,30,3,1,,,,,
1.72,,,,,,,,,k,purple,5daca5b06aa37b00126c8d41,2021-09-27_18h34.05.327,forced_choiceRT_color,2021.2.3,Win32,60.0240096,,,,,,,,8,Fast,long,k,1,1.887,7,3,31,3,1,,,,,
0.61,,,,,,,,,d,orange,5daca5b06aa37b00126c8d41,2021-09-27_18h34.05.327,forced_choiceRT_color,2021.2.3,Win32,60.0240096,,,,,,,,8,Fast,long,d,1,1.751,8,0,32,0,1,,,,,
0.46,,,,,,,,,j,red,5daca5b06aa37b00126c8d41,2021-09-27_18h34.05.327,forced_choiceRT_color,2021.2.3,Win32,60.0240096,,,,,,,,8,Ontime,long,j,1,1.989,8,1,33,2,1,,,,,
1.92,,,,,,,,,d,orange,5daca5b06aa37b00126c8d41,2021-09-27_18h34.05.327,forced_choiceRT_color,2021.2.3,Win32,60.0240096,,,,,,,,8,Ontime,long,f,0,2.074,8,2,34,0,1,,,,,
0.44,,,,,,,,,f,blue,5daca5b06aa37b00126c8d41,2021-09-27_18h34.05.327,forced_choiceRT_color,2021.2.3,Win32,60.0240096,,,,,,,,8,Ontime,long,f,1,1.918,8,3,35,1,1,,,,,
0.09,,,,,,,,,f,blue,5daca5b06aa37b00126c8d41,2021-09-27_18h34.05.327,forced_choiceRT_color,2021.2.3,Win32,60.0240096,,,,,,,,8,Ontime,long,f,1,1.983,9,0,36,1,1,,,,,
1.67,,,,,,,,,d,orange,5daca5b06aa37b00126c8d41,2021-09-27_18h34.05.327,forced_choiceRT_color,2021.2.3,Win32,60.0240096,,,,,,,,8,Ontime,long,k,0,1.987,9,1,37,0,1,,,,,
0.21,,,,,,,,,j,red,5daca5b06aa37b00126c8d41,2021-09-27_18h34.05.327,forced_choiceRT_color,2021.2.3,Win32,60.0240096,,,,,,,,8,Ontime,long,j,1,1.97,9,2,38,2,1,,,,,
1.5,,,,,,,,,k,purple,5daca5b06aa37b00126c8d41,2021-09-27_18h34.05.327,forced_choiceRT_color,2021.2.3,Win32,60.0240096,,,,,,,,8,Fast,long,k,1,1.868,9,3,39,3,1,,,,,
,,,,,,,,,,,5daca5b06aa37b00126c8d41,2021-09-27_18h34.05.327,forced_choiceRT_color,2021.2.3,Win32,60.0240096,,,,,,,,,,,,,,,,,,,7,0,7,0,1
1,,,,,,,,,j,red,5daca5b06aa37b00126c8d41,2021-09-27_18h34.05.327,forced_choiceRT_color,2021.2.3,Win32,60.0240096,,,,,,,,9,Ontime,long,j,1,2.083,0,0,0,2,1,,,,,
0.47,,,,,,,,,f,blue,5daca5b06aa37b00126c8d41,2021-09-27_18h34.05.327,forced_choiceRT_color,2021.2.3,Win32,60.0240096,,,,,,,,9,Ontime,long,f,1,2.002,0,1,1,1,1,,,,,
0.96,,,,,,,,,k,purple,5daca5b06aa37b00126c8d41,2021-09-27_18h34.05.327,forced_choiceRT_color,2021.2.3,Win32,60.0240096,,,,,,,,9,Ontime,long,k,1,1.954,0,2,2,3,1,,,,,
0.92,,,,,,,,,d,orange,5daca5b06aa37b00126c8d41,2021-09-27_18h34.05.327,forced_choiceRT_color,2021.2.3,Win32,60.0240096,,,,,,,,9,Ontime,long,d,1,2.022,0,3,3,0,1,,,,,
1.38,,,,,,,,,k,purple,5daca5b06aa37b00126c8d41,2021-09-27_18h34.05.327,forced_choiceRT_color,2021.2.3,Win32,60.0240096,,,,,,,,9,Ontime,long,j,0,1.902,1,0,4,3,1,,,,,
0.66,,,,,,,,,f,blue,5daca5b06aa37b00126c8d41,2021-09-27_18h34.05.327,forced_choiceRT_color,2021.2.3,Win32,60.0240096,,,,,,,,9,Ontime,long,f,1,1.975,1,1,5,1,1,,,,,
1.43,,,,,,,,,d,orange,5daca5b06aa37b00126c8d41,2021-09-27_18h34.05.327,forced_choiceRT_color,2021.2.3,Win32,60.0240096,,,,,,,,9,Ontime,long,d,1,1.996,1,2,6,0,1,,,,,
0.99,,,,,,,,,k,purple,5daca5b06aa37b00126c8d41,2021-09-27_18h34.05.327,forced_choiceRT_color,2021.2.3,Win32,60.0240096,,,,,,,,9,Ontime,long,k,1,1.953,1,3,7,3,1,,,,,
1.89,,,,,,,,,f,blue,5daca5b06aa37b00126c8d41,2021-09-27_18h34.05.327,forced_choiceRT_color,2021.2.3,Win32,60.0240096,,,,,,,,9,Ontime,long,j,0,1.921,2,0,8,1,1,,,,,
0.37,,,,,,,,,k,purple,5daca5b06aa37b00126c8d41,2021-09-27_18h34.05.327,forced_choiceRT_color,2021.2.3,Win32,60.0240096,,,,,,,,9,Ontime,long,k,1,2.05,2,1,9,3,1,,,,,
0.61,,,,,,,,,k,purple,5daca5b06aa37b00126c8d41,2021-09-27_18h34.05.327,forced_choiceRT_color,2021.2.3,Win32,60.0240096,,,,,,,,9,Ontime,long,k,1,1.986,2,2,10,3,1,,,,,
1.98,,,,,,,,,d,orange,5daca5b06aa37b00126c8d41,2021-09-27_18h34.05.327,forced_choiceRT_color,2021.2.3,Win32,60.0240096,,,,,,,,9,Ontime,long,j,0,1.985,2,3,11,0,1,,,,,
1.99,,,,,,,,,k,purple,5daca5b06aa37b00126c8d41,2021-09-27_18h34.05.327,forced_choiceRT_color,2021.2.3,Win32,60.0240096,,,,,,,,9,Ontime,long,d,0,1.938,3,0,12,3,1,,,,,
0.85,,,,,,,,,j,red,5daca5b06aa37b00126c8d41,2021-09-27_18h34.05.327,forced_choiceRT_color,2021.2.3,Win32,60.0240096,,,,,,,,9,Ontime,long,j,1,1.986,3,1,13,2,1,,,,,
1.96,,,,,,,,,k,purple,5daca5b06aa37b00126c8d41,2021-09-27_18h34.05.327,forced_choiceRT_color,2021.2.3,Win32,60.0240096,,,,,,,,9,Fast,long,f,0,1.869,3,2,14,3,1,,,,,
0.15,,,,,,,,,j,red,5daca5b06aa37b00126c8d41,2021-09-27_18h34.05.327,forced_choiceRT_color,2021.2.3,Win32,60.0240096,,,,,,,,9,Fast,long,j,1,1.769,3,3,15,2,1,,,,,
1.41,,,,,,,,,d,orange,5daca5b06aa37b00126c8d41,2021-09-27_18h34.05.327,forced_choiceRT_color,2021.2.3,Win32,60.0240096,,,,,,,,9,Ontime,long,d,1,1.989,4,0,16,0,1,,,,,
0.59,,,,,,,,,f,blue,5daca5b06aa37b00126c8d41,2021-09-27_18h34.05.327,forced_choiceRT_color,2021.2.3,Win32,60.0240096,,,,,,,,9,Ontime,long,f,1,2.039,4,1,17,1,1,,,,,
0.52,,,,,,,,,j,red,5daca5b06aa37b00126c8d41,2021-09-27_18h34.05.327,forced_choiceRT_color,2021.2.3,Win32,60.0240096,,,,,,,,9,Ontime,long,j,1,1.952,4,2,18,2,1,,,,,
1.39,,,,,,,,,d,orange,5daca5b06aa37b00126c8d41,2021-09-27_18h34.05.327,forced_choiceRT_color,2021.2.3,Win32,60.0240096,,,,,,,,9,Ontime,long,d,1,1.953,4,3,19,0,1,,,,,
1.91,,,,,,,,,k,purple,5daca5b06aa37b00126c8d41,2021-09-27_18h34.05.327,forced_choiceRT_color,2021.2.3,Win32,60.0240096,,,,,,,,9,Ontime,long,f,0,2.052,5,0,20,3,1,,,,,
0.11,,,,,,,,,f,blue,5daca5b06aa37b00126c8d41,2021-09-27_18h34.05.327,forced_choiceRT_color,2021.2.3,Win32,60.0240096,,,,,,,,9,Ontime,long,f,1,2.001,5,1,21,1,1,,,,,
1.92,,,,,,,,,j,red,5daca5b06aa37b00126c8d41,2021-09-27_18h34.05.327,forced_choiceRT_color,2021.2.3,Win32,60.0240096,,,,,,,,9,Ontime,long,f,0,1.952,5,2,22,2,1,,,,,
1.08,,,,,,,,,f,blue,5daca5b06aa37b00126c8d41,2021-09-27_18h34.05.327,forced_choiceRT_color,2021.2.3,Win32,60.0240096,,,,,,,,9,Ontime,long,f,1,2.069,5,3,23,1,1,,,,,
0.07,,,,,,,,,k,purple,5daca5b06aa37b00126c8d41,2021-09-27_18h34.05.327,forced_choiceRT_color,2021.2.3,Win32,60.0240096,,,,,,,,9,Ontime,long,k,1,2.074,6,0,24,3,1,,,,,
1.1,,,,,,,,,j,red,5daca5b06aa37b00126c8d41,2021-09-27_18h34.05.327,forced_choiceRT_color,2021.2.3,Win32,60.0240096,,,,,,,,9,Ontime,long,j,1,1.954,6,1,25,2,1,,,,,
1.46,,,,,,,,,d,orange,5daca5b06aa37b00126c8d41,2021-09-27_18h34.05.327,forced_choiceRT_color,2021.2.3,Win32,60.0240096,,,,,,,,9,Ontime,long,d,1,1.935,6,2,26,0,1,,,,,
0.63,,,,,,,,,f,blue,5daca5b06aa37b00126c8d41,2021-09-27_18h34.05.327,forced_choiceRT_color,2021.2.3,Win32,60.0240096,,,,,,,,9,Ontime,long,f,1,1.968,6,3,27,1,1,,,,,
0.85,,,,,,,,,f,blue,5daca5b06aa37b00126c8d41,2021-09-27_18h34.05.327,forced_choiceRT_color,2021.2.3,Win32,60.0240096,,,,,,,,9,Fast,long,j,0,1.886,7,0,28,1,1,,,,,
0.62,,,,,,,,,d,orange,5daca5b06aa37b00126c8d41,2021-09-27_18h34.05.327,forced_choiceRT_color,2021.2.3,Win32,60.0240096,,,,,,,,9,Ontime,long,d,1,2.06,7,1,29,0,1,,,,,
0.63,,,,,,,,,f,blue,5daca5b06aa37b00126c8d41,2021-09-27_18h34.05.327,forced_choiceRT_color,2021.2.3,Win32,60.0240096,,,,,,,,9,Ontime,long,f,1,1.988,7,2,30,1,1,,,,,
1.45,,,,,,,,,j,red,5daca5b06aa37b00126c8d41,2021-09-27_18h34.05.327,forced_choiceRT_color,2021.2.3,Win32,60.0240096,,,,,,,,9,Ontime,long,f,0,1.989,7,3,31,2,1,,,,,
0.52,,,,,,,,,d,orange,5daca5b06aa37b00126c8d41,2021-09-27_18h34.05.327,forced_choiceRT_color,2021.2.3,Win32,60.0240096,,,,,,,,9,Ontime,long,d,1,2.007,8,0,32,0,1,,,,,
1.9,,,,,,,,,d,orange,5daca5b06aa37b00126c8d41,2021-09-27_18h34.05.327,forced_choiceRT_color,2021.2.3,Win32,60.0240096,,,,,,,,9,Ontime,long,d,1,1.998,8,1,33,0,1,,,,,
1.43,,,,,,,,,j,red,5daca5b06aa37b00126c8d41,2021-09-27_18h34.05.327,forced_choiceRT_color,2021.2.3,Win32,60.0240096,,,,,,,,9,Ontime,long,j,1,1.937,8,2,34,2,1,,,,,
1.26,,,,,,,,,j,red,5daca5b06aa37b00126c8d41,2021-09-27_18h34.05.327,forced_choiceRT_color,2021.2.3,Win32,60.0240096,,,,,,,,9,Ontime,long,j,1,1.902,8,3,35,2,1,,,,,
1.25,,,,,,,,,f,blue,5daca5b06aa37b00126c8d41,2021-09-27_18h34.05.327,forced_choiceRT_color,2021.2.3,Win32,60.0240096,,,,,,,,9,Ontime,long,j,0,1.941,9,0,36,1,1,,,,,
0.07,,,,,,,,,k,purple,5daca5b06aa37b00126c8d41,2021-09-27_18h34.05.327,forced_choiceRT_color,2021.2.3,Win32,60.0240096,,,,,,,,9,Ontime,long,k,1,1.959,9,1,37,3,1,,,,,
0.08,,,,,,,,,j,red,5daca5b06aa37b00126c8d41,2021-09-27_18h34.05.327,forced_choiceRT_color,2021.2.3,Win32,60.0240096,,,,,,,,9,Ontime,long,j,1,1.988,9,2,38,2,1,,,,,
0.8,,,,,,,,,d,orange,5daca5b06aa37b00126c8d41,2021-09-27_18h34.05.327,forced_choiceRT_color,2021.2.3,Win32,60.0240096,,,,,,,,9,Ontime,long,d,1,1.935,9,3,39,0,1,,,,,
,,,,,,,,,,,5daca5b06aa37b00126c8d41,2021-09-27_18h34.05.327,forced_choiceRT_color,2021.2.3,Win32,60.0240096,,,,,,,,,,,,,,,,,,,8,0,8,0,1
1,,,,,,,,,f,blue,5daca5b06aa37b00126c8d41,2021-09-27_18h34.05.327,forced_choiceRT_color,2021.2.3,Win32,60.0240096,,,,,,,,10,Ontime,long,f,1,2.068,0,0,0,1,1,,,,,
0.21,,,,,,,,,k,purple,5daca5b06aa37b00126c8d41,2021-09-27_18h34.05.327,forced_choiceRT_color,2021.2.3,Win32,60.0240096,,,,,,,,10,Ontime,long,k,1,1.935,0,1,1,3,1,,,,,
0.89,,,,,,,,,d,orange,5daca5b06aa37b00126c8d41,2021-09-27_18h34.05.327,forced_choiceRT_color,2021.2.3,Win32,60.0240096,,,,,,,,10,Ontime,long,d,1,1.95,0,2,2,0,1,,,,,
1.71,,,,,,,,,d,orange,5daca5b06aa37b00126c8d41,2021-09-27_18h34.05.327,forced_choiceRT_color,2021.2.3,Win32,60.0240096,,,,,,,,10,Fast,long,k,0,1.86,0,3,3,0,1,,,,,
0.24,,,,,,,,,j,red,5daca5b06aa37b00126c8d41,2021-09-27_18h34.05.327,forced_choiceRT_color,2021.2.3,Win32,60.0240096,,,,,,,,10,Ontime,long,j,1,1.953,1,0,4,2,1,,,,,
1.48,,,,,,,,,k,purple,5daca5b06aa37b00126c8d41,2021-09-27_18h34.05.327,forced_choiceRT_color,2021.2.3,Win32,60.0240096,,,,,,,,10,Slow,long,k,1,2.168,1,1,5,3,1,,,,,
1.39,,,,,,,,,j,red,5daca5b06aa37b00126c8d41,2021-09-27_18h34.05.327,forced_choiceRT_color,2021.2.3,Win32,60.0240096,,,,,,,,10,Ontime,long,j,1,1.988,1,2,6,2,1,,,,,
1.84,,,,,,,,,d,orange,5daca5b06aa37b00126c8d41,2021-09-27_18h34.05.327,forced_choiceRT_color,2021.2.3,Win32,60.0240096,,,,,,,,10,Ontime,long,d,1,2.089,1,3,7,0,1,,,,,
1.44,,,,,,,,,k,purple,5daca5b06aa37b00126c8d41,2021-09-27_18h34.05.327,forced_choiceRT_color,2021.2.3,Win32,60.0240096,,,,,,,,10,Ontime,long,j,0,1.922,2,0,8,3,1,,,,,
1.42,,,,,,,,,k,purple,5daca5b06aa37b00126c8d41,2021-09-27_18h34.05.327,forced_choiceRT_color,2021.2.3,Win32,60.0240096,,,,,,,,10,Ontime,long,k,1,1.931,2,1,9,3,1,,,,,
0.2,,,,,,,,,j,red,5daca5b06aa37b00126c8d41,2021-09-27_18h34.05.327,forced_choiceRT_color,2021.2.3,Win32,60.0240096,,,,,,,,10,Ontime,long,j,1,1.936,2,2,10,2,1,,,,,
1.56,,,,,,,,,d,orange,5daca5b06aa37b00126c8d41,2021-09-27_18h34.05.327,forced_choiceRT_color,2021.2.3,Win32,60.0240096,,,,,,,,10,Ontime,long,k,0,1.918,2,3,11,0,1,,,,,
1.12,,,,,,,,,k,purple,5daca5b06aa37b00126c8d41,2021-09-27_18h34.05.327,forced_choiceRT_color,2021.2.3,Win32,60.0240096,,,,,,,,10,Ontime,long,k,1,1.984,3,0,12,3,1,,,,,
1.75,,,,,,,,,j,red,5daca5b06aa37b00126c8d41,2021-09-27_18h34.05.327,forced_choiceRT_color,2021.2.3,Win32,60.0240096,,,,,,,,10,Ontime,long,d,0,1.986,3,1,13,2,1,,,,,
1.2,,,,,,,,,d,orange,5daca5b06aa37b00126c8d41,2021-09-27_18h34.05.327,forced_choiceRT_color,2021.2.3,Win32,60.0240096,,,,,,,,10,Fast,long,d,1,1.833,3,2,14,0,1,,,,,
0.62,,,,,,,,,k,purple,5daca5b06aa37b00126c8d41,2021-09-27_18h34.05.327,forced_choiceRT_color,2021.2.3,Win32,60.0240096,,,,,,,,10,Ontime,long,k,1,1.986,3,3,15,3,1,,,,,
1.32,,,,,,,,,d,orange,5daca5b06aa37b00126c8d41,2021-09-27_18h34.05.327,forced_choiceRT_color,2021.2.3,Win32,60.0240096,,,,,,,,10,Ontime,long,d,1,2,4,0,16,0,1,,,,,
1.1,,,,,,,,,f,blue,5daca5b06aa37b00126c8d41,2021-09-27_18h34.05.327,forced_choiceRT_color,2021.2.3,Win32,60.0240096,,,,,,,,10,Ontime,long,f,1,1.968,4,1,17,1,1,,,,,
0.89,,,,,,,,,f,blue,5daca5b06aa37b00126c8d41,2021-09-27_18h34.05.327,forced_choiceRT_color,2021.2.3,Win32,60.0240096,,,,,,,,10,Ontime,long,f,1,2.004,4,2,18,1,1,,,,,
0.37,,,,,,,,,d,orange,5daca5b06aa37b00126c8d41,2021-09-27_18h34.05.327,forced_choiceRT_color,2021.2.3,Win32,60.0240096,,,,,,,,10,Ontime,long,d,1,2.02,4,3,19,0,1,,,,,
0.81,,,,,,,,,j,red,5daca5b06aa37b00126c8d41,2021-09-27_18h34.05.327,forced_choiceRT_color,2021.2.3,Win32,60.0240096,,,,,,,,10,Ontime,long,j,1,1.954,5,0,20,2,1,,,,,
0.96,,,,,,,,,j,red,5daca5b06aa37b00126c8d41,2021-09-27_18h34.05.327,forced_choiceRT_color,2021.2.3,Win32,60.0240096,,,,,,,,10,Ontime,long,j,1,1.966,5,1,21,2,1,,,,,
1.21,,,,,,,,,d,orange,5daca5b06aa37b00126c8d41,2021-09-27_18h34.05.327,forced_choiceRT_color,2021.2.3,Win32,60.0240096,,,,,,,,10,Ontime,long,d,1,1.953,5,2,22,0,1,,,,,
1.91,,,,,,,,,k,purple,5daca5b06aa37b00126c8d41,2021-09-27_18h34.05.327,forced_choiceRT_color,2021.2.3,Win32,60.0240096,,,,,,,,10,Ontime,long,k,1,1.927,5,3,23,3,1,,,,,
0.71,,,,,,,,,j,red,5daca5b06aa37b00126c8d41,2021-09-27_18h34.05.327,forced_choiceRT_color,2021.2.3,Win32,60.0240096,,,,,,,,10,Ontime,long,j,1,1.967,6,0,24,2,1,,,,,
0.83,,,,,,,,,j,red,5daca5b06aa37b00126c8d41,2021-09-27_18h34.05.327,forced_choiceRT_color,2021.2.3,Win32,60.0240096,,,,,,,,10,Ontime,long,j,1,1.918,6,1,25,2,1,,,,,
0.96,,,,,,,,,j,red,5daca5b06aa37b00126c8d41,2021-09-27_18h34.05.327,forced_choiceRT_color,2021.2.3,Win32,60.0240096,,,,,,,,10,Ontime,long,j,1,1.935,6,2,26,2,1,,,,,
1.33,,,,,,,,,j,red,5daca5b06aa37b00126c8d41,2021-09-27_18h34.05.327,forced_choiceRT_color,2021.2.3,Win32,60.0240096,,,,,,,,10,Fast,long,j,1,1.881,6,3,27,2,1,,,,,
1.22,,,,,,,,,f,blue,5daca5b06aa37b00126c8d41,2021-09-27_18h34.05.327,forced_choiceRT_color,2021.2.3,Win32,60.0240096,,,,,,,,10,Ontime,long,f,1,1.977,7,0,28,1,1,,,,,
0.2,,,,,,,,,k,purple,5daca5b06aa37b00126c8d41,2021-09-27_18h34.05.327,forced_choiceRT_color,2021.2.3,Win32,60.0240096,,,,,,,,10,Fast,long,k,1,1.882,7,1,29,3,1,,,,,
1.14,,,,,,,,,k,purple,5daca5b06aa37b00126c8d41,2021-09-27_18h34.05.327,forced_choiceRT_color,2021.2.3,Win32,60.0240096,,,,,,,,10,Ontime,long,k,1,2.069,7,2,30,3,1,,,,,
0.57,,,,,,,,,k,purple,5daca5b06aa37b00126c8d41,2021-09-27_18h34.05.327,forced_choiceRT_color,2021.2.3,Win32,60.0240096,,,,,,,,10,Ontime,long,k,1,2.021,7,3,31,3,1,,,,,
0.02,,,,,,,,,f,blue,5daca5b06aa37b00126c8d41,2021-09-27_18h34.05.327,forced_choiceRT_color,2021.2.3,Win32,60.0240096,,,,,,,,10,Ontime,long,f,1,2.018,8,0,32,1,1,,,,,
1.66,,,,,,,,,f,blue,5daca5b06aa37b00126c8d41,2021-09-27_18h34.05.327,forced_choiceRT_color,2021.2.3,Win32,60.0240096,,,,,,,,10,Ontime,long,j,0,2.002,8,1,33,1,1,,,,,
0.05,,,,,,,,,f,blue,5daca5b06aa37b00126c8d41,2021-09-27_18h34.05.327,forced_choiceRT_color,2021.2.3,Win32,60.0240096,,,,,,,,10,Ontime,long,f,1,2.002,8,2,34,1,1,,,,,
0.42,,,,,,,,,d,orange,5daca5b06aa37b00126c8d41,2021-09-27_18h34.05.327,forced_choiceRT_color,2021.2.3,Win32,60.0240096,,,,,,,,10,Ontime,long,d,1,1.932,8,3,35,0,1,,,,,
1.97,,,,,,,,,d,orange,5daca5b06aa37b00126c8d41,2021-09-27_18h34.05.327,forced_choiceRT_color,2021.2.3,Win32,60.0240096,,,,,,,,10,Ontime,long,k,0,1.997,9,0,36,0,1,,,,,
0.51,,,,,,,,,f,blue,5daca5b06aa37b00126c8d41,2021-09-27_18h34.05.327,forced_choiceRT_color,2021.2.3,Win32,60.0240096,,,,,,,,10,Ontime,long,f,1,1.991,9,1,37,1,1,,,,,
1.15,,,,,,,,,f,blue,5daca5b06aa37b00126c8d41,2021-09-27_18h34.05.327,forced_choiceRT_color,2021.2.3,Win32,60.0240096,,,,,,,,10,Ontime,long,f,1,1.919,9,2,38,1,1,,,,,
0.21,,,,,,,,,f,blue,5daca5b06aa37b00126c8d41,2021-09-27_18h34.05.327,forced_choiceRT_color,2021.2.3,Win32,60.0240096,,,,,,,,10,Fast,long,f,1,1.86,9,3,39,1,1,,,,,
,,,,,,,,,,,5daca5b06aa37b00126c8d41,2021-09-27_18h34.05.327,forced_choiceRT_color,2021.2.3,Win32,60.0240096,,,,,,,,,,,,,,,,,,,9,0,9,0,1
