target_onset,trial_resp_sp.keys,trial_resp_sp.corr,trial_resp_sp.rt,trials_train_loop.thisRepN,trials_train_loop.thisTrialN,trials_train_loop.thisN,trials_train_loop.thisIndex,trials_train_loop.ran,correct_key,color,participant,date,expName,psychopyVersion,OS,frameRate,trial_resp_timing.keys,trial_resp_timing.rt,trials_train_timing.thisRepN,trials_train_timing.thisTrialN,trials_train_timing.thisN,trials_train_timing.thisIndex,trials_train_timing.ran,block_id,ontime,feedback_cond,forcedRT_resp.keys,forcedRT_resp.corr,forcedRT_resp.rt,trials.thisRepN,trials.thisTrialN,trials.thisN,trials.thisIndex,trials.ran,blocks.thisRepN,blocks.thisTrialN,blocks.thisN,blocks.thisIndex,blocks.ran
0,k,1,1.183,0,0,0,3,1,k,purple,5db103ed236ef00013611a6f,2021-09-28_12h26.26.116,forced_choiceRT_color,2021.2.3,Win32,120.1923077,,,,,,,,,,,,,,,,,,,,,,,
0,j,1,1.617,0,1,1,2,1,j,red,5db103ed236ef00013611a6f,2021-09-28_12h26.26.116,forced_choiceRT_color,2021.2.3,Win32,120.1923077,,,,,,,,,,,,,,,,,,,,,,,
0,f,1,0.934,0,2,2,1,1,f,blue,5db103ed236ef00013611a6f,2021-09-28_12h26.26.116,forced_choiceRT_color,2021.2.3,Win32,120.1923077,,,,,,,,,,,,,,,,,,,,,,,
0,k,1,1.633,0,3,3,3,1,k,purple,5db103ed236ef00013611a6f,2021-09-28_12h26.26.116,forced_choiceRT_color,2021.2.3,Win32,120.1923077,,,,,,,,,,,,,,,,,,,,,,,
0,j,1,1.544,1,0,4,2,1,j,red,5db103ed236ef00013611a6f,2021-09-28_12h26.26.116,forced_choiceRT_color,2021.2.3,Win32,120.1923077,,,,,,,,,,,,,,,,,,,,,,,
0,f,0,4.258,1,1,5,3,1,k,purple,5db103ed236ef00013611a6f,2021-09-28_12h26.26.116,forced_choiceRT_color,2021.2.3,Win32,120.1923077,,,,,,,,,,,,,,,,,,,,,,,
0,j,1,1.31,1,2,6,2,1,j,red,5db103ed236ef00013611a6f,2021-09-28_12h26.26.116,forced_choiceRT_color,2021.2.3,Win32,120.1923077,,,,,,,,,,,,,,,,,,,,,,,
0,f,1,1.291,1,3,7,1,1,f,blue,5db103ed236ef00013611a6f,2021-09-28_12h26.26.116,forced_choiceRT_color,2021.2.3,Win32,120.1923077,,,,,,,,,,,,,,,,,,,,,,,
0,k,1,1.834,2,0,8,3,1,k,purple,5db103ed236ef00013611a6f,2021-09-28_12h26.26.116,forced_choiceRT_color,2021.2.3,Win32,120.1923077,,,,,,,,,,,,,,,,,,,,,,,
0,j,1,1.085,2,1,9,2,1,j,red,5db103ed236ef00013611a6f,2021-09-28_12h26.26.116,forced_choiceRT_color,2021.2.3,Win32,120.1923077,,,,,,,,,,,,,,,,,,,,,,,
0,d,1,0.958,2,2,10,0,1,d,orange,5db103ed236ef00013611a6f,2021-09-28_12h26.26.116,forced_choiceRT_color,2021.2.3,Win32,120.1923077,,,,,,,,,,,,,,,,,,,,,,,
0,d,1,1.111,2,3,11,0,1,d,orange,5db103ed236ef00013611a6f,2021-09-28_12h26.26.116,forced_choiceRT_color,2021.2.3,Win32,120.1923077,,,,,,,,,,,,,,,,,,,,,,,
0,k,1,0.736,3,0,12,3,1,k,purple,5db103ed236ef00013611a6f,2021-09-28_12h26.26.116,forced_choiceRT_color,2021.2.3,Win32,120.1923077,,,,,,,,,,,,,,,,,,,,,,,
0,k,1,0.935,3,1,13,3,1,k,purple,5db103ed236ef00013611a6f,2021-09-28_12h26.26.116,forced_choiceRT_color,2021.2.3,Win32,120.1923077,,,,,,,,,,,,,,,,,,,,,,,
0,d,1,0.816,3,2,14,0,1,d,orange,5db103ed236ef00013611a6f,2021-09-28_12h26.26.116,forced_choiceRT_color,2021.2.3,Win32,120.1923077,,,,,,,,,,,,,,,,,,,,,,,
0,j,1,0.753,3,3,15,2,1,j,red,5db103ed236ef00013611a6f,2021-09-28_12h26.26.116,forced_choiceRT_color,2021.2.3,Win32,120.1923077,,,,,,,,,,,,,,,,,,,,,,,
0,j,1,0.917,4,0,16,2,1,j,red,5db103ed236ef00013611a6f,2021-09-28_12h26.26.116,forced_choiceRT_color,2021.2.3,Win32,120.1923077,,,,,,,,,,,,,,,,,,,,,,,
0,k,1,0.734,4,1,17,3,1,k,purple,5db103ed236ef00013611a6f,2021-09-28_12h26.26.116,forced_choiceRT_color,2021.2.3,Win32,120.1923077,,,,,,,,,,,,,,,,,,,,,,,
0,j,1,0.876,4,2,18,2,1,j,red,5db103ed236ef00013611a6f,2021-09-28_12h26.26.116,forced_choiceRT_color,2021.2.3,Win32,120.1923077,,,,,,,,,,,,,,,,,,,,,,,
0,d,1,1.26,4,3,19,0,1,d,orange,5db103ed236ef00013611a6f,2021-09-28_12h26.26.116,forced_choiceRT_color,2021.2.3,Win32,120.1923077,,,,,,,,,,,,,,,,,,,,,,,
0,j,1,1.162,5,0,20,2,1,j,red,5db103ed236ef00013611a6f,2021-09-28_12h26.26.116,forced_choiceRT_color,2021.2.3,Win32,120.1923077,,,,,,,,,,,,,,,,,,,,,,,
0,k,1,0.719,5,1,21,3,1,k,purple,5db103ed236ef00013611a6f,2021-09-28_12h26.26.116,forced_choiceRT_color,2021.2.3,Win32,120.1923077,,,,,,,,,,,,,,,,,,,,,,,
0,k,1,0.877,5,2,22,3,1,k,purple,5db103ed236ef00013611a6f,2021-09-28_12h26.26.116,forced_choiceRT_color,2021.2.3,Win32,120.1923077,,,,,,,,,,,,,,,,,,,,,,,
0,d,1,0.943,5,3,23,0,1,d,orange,5db103ed236ef00013611a6f,2021-09-28_12h26.26.116,forced_choiceRT_color,2021.2.3,Win32,120.1923077,,,,,,,,,,,,,,,,,,,,,,,
0,f,1,0.785,6,0,24,1,1,f,blue,5db103ed236ef00013611a6f,2021-09-28_12h26.26.116,forced_choiceRT_color,2021.2.3,Win32,120.1923077,,,,,,,,,,,,,,,,,,,,,,,
0,f,1,1.068,6,1,25,1,1,f,blue,5db103ed236ef00013611a6f,2021-09-28_12h26.26.116,forced_choiceRT_color,2021.2.3,Win32,120.1923077,,,,,,,,,,,,,,,,,,,,,,,
0,d,1,2.093,6,2,26,0,1,d,orange,5db103ed236ef00013611a6f,2021-09-28_12h26.26.116,forced_choiceRT_color,2021.2.3,Win32,120.1923077,,,,,,,,,,,,,,,,,,,,,,,
0,j,1,1.417,6,3,27,2,1,j,red,5db103ed236ef00013611a6f,2021-09-28_12h26.26.116,forced_choiceRT_color,2021.2.3,Win32,120.1923077,,,,,,,,,,,,,,,,,,,,,,,
0,j,1,0.793,7,0,28,2,1,j,red,5db103ed236ef00013611a6f,2021-09-28_12h26.26.116,forced_choiceRT_color,2021.2.3,Win32,120.1923077,,,,,,,,,,,,,,,,,,,,,,,
0,j,1,0.626,7,1,29,2,1,j,red,5db103ed236ef00013611a6f,2021-09-28_12h26.26.116,forced_choiceRT_color,2021.2.3,Win32,120.1923077,,,,,,,,,,,,,,,,,,,,,,,
0,k,1,0.925,7,2,30,3,1,k,purple,5db103ed236ef00013611a6f,2021-09-28_12h26.26.116,forced_choiceRT_color,2021.2.3,Win32,120.1923077,,,,,,,,,,,,,,,,,,,,,,,
0,d,0,0.802,7,3,31,1,1,f,blue,5db103ed236ef00013611a6f,2021-09-28_12h26.26.116,forced_choiceRT_color,2021.2.3,Win32,120.1923077,,,,,,,,,,,,,,,,,,,,,,,
0,f,1,1.051,8,0,32,1,1,f,blue,5db103ed236ef00013611a6f,2021-09-28_12h26.26.116,forced_choiceRT_color,2021.2.3,Win32,120.1923077,,,,,,,,,,,,,,,,,,,,,,,
0,f,1,0.729,8,1,33,1,1,f,blue,5db103ed236ef00013611a6f,2021-09-28_12h26.26.116,forced_choiceRT_color,2021.2.3,Win32,120.1923077,,,,,,,,,,,,,,,,,,,,,,,
0,j,1,0.809,8,2,34,2,1,j,red,5db103ed236ef00013611a6f,2021-09-28_12h26.26.116,forced_choiceRT_color,2021.2.3,Win32,120.1923077,,,,,,,,,,,,,,,,,,,,,,,
0,d,1,0.767,8,3,35,0,1,d,orange,5db103ed236ef00013611a6f,2021-09-28_12h26.26.116,forced_choiceRT_color,2021.2.3,Win32,120.1923077,,,,,,,,,,,,,,,,,,,,,,,
0,f,1,1.57,9,0,36,1,1,f,blue,5db103ed236ef00013611a6f,2021-09-28_12h26.26.116,forced_choiceRT_color,2021.2.3,Win32,120.1923077,,,,,,,,,,,,,,,,,,,,,,,
0,f,1,0.942,9,1,37,1,1,f,blue,5db103ed236ef00013611a6f,2021-09-28_12h26.26.116,forced_choiceRT_color,2021.2.3,Win32,120.1923077,,,,,,,,,,,,,,,,,,,,,,,
0,j,1,1.41,9,2,38,2,1,j,red,5db103ed236ef00013611a6f,2021-09-28_12h26.26.116,forced_choiceRT_color,2021.2.3,Win32,120.1923077,,,,,,,,,,,,,,,,,,,,,,,
0,f,1,0.901,9,3,39,1,1,f,blue,5db103ed236ef00013611a6f,2021-09-28_12h26.26.116,forced_choiceRT_color,2021.2.3,Win32,120.1923077,,,,,,,,,,,,,,,,,,,,,,,
0,f,1,0.801,10,0,40,1,1,f,blue,5db103ed236ef00013611a6f,2021-09-28_12h26.26.116,forced_choiceRT_color,2021.2.3,Win32,120.1923077,,,,,,,,,,,,,,,,,,,,,,,
0,d,1,0.876,10,1,41,0,1,d,orange,5db103ed236ef00013611a6f,2021-09-28_12h26.26.116,forced_choiceRT_color,2021.2.3,Win32,120.1923077,,,,,,,,,,,,,,,,,,,,,,,
0,d,1,0.826,10,2,42,0,1,d,orange,5db103ed236ef00013611a6f,2021-09-28_12h26.26.116,forced_choiceRT_color,2021.2.3,Win32,120.1923077,,,,,,,,,,,,,,,,,,,,,,,
0,f,1,0.811,10,3,43,1,1,f,blue,5db103ed236ef00013611a6f,2021-09-28_12h26.26.116,forced_choiceRT_color,2021.2.3,Win32,120.1923077,,,,,,,,,,,,,,,,,,,,,,,
0,k,1,0.745,11,0,44,3,1,k,purple,5db103ed236ef00013611a6f,2021-09-28_12h26.26.116,forced_choiceRT_color,2021.2.3,Win32,120.1923077,,,,,,,,,,,,,,,,,,,,,,,
0,j,1,0.868,11,1,45,2,1,j,red,5db103ed236ef00013611a6f,2021-09-28_12h26.26.116,forced_choiceRT_color,2021.2.3,Win32,120.1923077,,,,,,,,,,,,,,,,,,,,,,,
0,f,1,0.926,11,2,46,1,1,f,blue,5db103ed236ef00013611a6f,2021-09-28_12h26.26.116,forced_choiceRT_color,2021.2.3,Win32,120.1923077,,,,,,,,,,,,,,,,,,,,,,,
0,d,1,0.743,11,3,47,0,1,d,orange,5db103ed236ef00013611a6f,2021-09-28_12h26.26.116,forced_choiceRT_color,2021.2.3,Win32,120.1923077,,,,,,,,,,,,,,,,,,,,,,,
0,d,1,0.801,12,0,48,0,1,d,orange,5db103ed236ef00013611a6f,2021-09-28_12h26.26.116,forced_choiceRT_color,2021.2.3,Win32,120.1923077,,,,,,,,,,,,,,,,,,,,,,,
0,f,1,0.744,12,1,49,1,1,f,blue,5db103ed236ef00013611a6f,2021-09-28_12h26.26.116,forced_choiceRT_color,2021.2.3,Win32,120.1923077,,,,,,,,,,,,,,,,,,,,,,,
0,j,1,0.876,12,2,50,2,1,j,red,5db103ed236ef00013611a6f,2021-09-28_12h26.26.116,forced_choiceRT_color,2021.2.3,Win32,120.1923077,,,,,,,,,,,,,,,,,,,,,,,
0,k,1,0.71,12,3,51,3,1,k,purple,5db103ed236ef00013611a6f,2021-09-28_12h26.26.116,forced_choiceRT_color,2021.2.3,Win32,120.1923077,,,,,,,,,,,,,,,,,,,,,,,
0,d,1,0.676,13,0,52,0,1,d,orange,5db103ed236ef00013611a6f,2021-09-28_12h26.26.116,forced_choiceRT_color,2021.2.3,Win32,120.1923077,,,,,,,,,,,,,,,,,,,,,,,
0,f,1,0.717,13,1,53,1,1,f,blue,5db103ed236ef00013611a6f,2021-09-28_12h26.26.116,forced_choiceRT_color,2021.2.3,Win32,120.1923077,,,,,,,,,,,,,,,,,,,,,,,
0,k,1,0.633,13,2,54,3,1,k,purple,5db103ed236ef00013611a6f,2021-09-28_12h26.26.116,forced_choiceRT_color,2021.2.3,Win32,120.1923077,,,,,,,,,,,,,,,,,,,,,,,
0,k,1,0.685,13,3,55,3,1,k,purple,5db103ed236ef00013611a6f,2021-09-28_12h26.26.116,forced_choiceRT_color,2021.2.3,Win32,120.1923077,,,,,,,,,,,,,,,,,,,,,,,
0,k,1,0.577,14,0,56,3,1,k,purple,5db103ed236ef00013611a6f,2021-09-28_12h26.26.116,forced_choiceRT_color,2021.2.3,Win32,120.1923077,,,,,,,,,,,,,,,,,,,,,,,
0,d,1,0.819,14,1,57,0,1,d,orange,5db103ed236ef00013611a6f,2021-09-28_12h26.26.116,forced_choiceRT_color,2021.2.3,Win32,120.1923077,,,,,,,,,,,,,,,,,,,,,,,
0,d,1,0.618,14,2,58,0,1,d,orange,5db103ed236ef00013611a6f,2021-09-28_12h26.26.116,forced_choiceRT_color,2021.2.3,Win32,120.1923077,,,,,,,,,,,,,,,,,,,,,,,
0,d,1,0.553,14,3,59,0,1,d,orange,5db103ed236ef00013611a6f,2021-09-28_12h26.26.116,forced_choiceRT_color,2021.2.3,Win32,120.1923077,,,,,,,,,,,,,,,,,,,,,,,
,,,,,,,,,,,5db103ed236ef00013611a6f,2021-09-28_12h26.26.116,forced_choiceRT_color,2021.2.3,Win32,120.1923077,k,2.262,0,0,0,0,1,,,,,,,,,,,,,,,,
,,,,,,,,,,,5db103ed236ef00013611a6f,2021-09-28_12h26.26.116,forced_choiceRT_color,2021.2.3,Win32,120.1923077,j,2.043,1,0,1,0,1,,,,,,,,,,,,,,,,
,,,,,,,,,,,5db103ed236ef00013611a6f,2021-09-28_12h26.26.116,forced_choiceRT_color,2021.2.3,Win32,120.1923077,f,1.96,2,0,2,0,1,,,,,,,,,,,,,,,,
,,,,,,,,,,,5db103ed236ef00013611a6f,2021-09-28_12h26.26.116,forced_choiceRT_color,2021.2.3,Win32,120.1923077,d,2.027,3,0,3,0,1,,,,,,,,,,,,,,,,
,,,,,,,,,,,5db103ed236ef00013611a6f,2021-09-28_12h26.26.116,forced_choiceRT_color,2021.2.3,Win32,120.1923077,f,2.067,4,0,4,0,1,,,,,,,,,,,,,,,,
,,,,,,,,,,,5db103ed236ef00013611a6f,2021-09-28_12h26.26.116,forced_choiceRT_color,2021.2.3,Win32,120.1923077,d,2.093,5,0,5,0,1,,,,,,,,,,,,,,,,
,,,,,,,,,,,5db103ed236ef00013611a6f,2021-09-28_12h26.26.116,forced_choiceRT_color,2021.2.3,Win32,120.1923077,f,2.101,6,0,6,0,1,,,,,,,,,,,,,,,,
,,,,,,,,,,,5db103ed236ef00013611a6f,2021-09-28_12h26.26.116,forced_choiceRT_color,2021.2.3,Win32,120.1923077,j,1.878,7,0,7,0,1,,,,,,,,,,,,,,,,
,,,,,,,,,,,5db103ed236ef00013611a6f,2021-09-28_12h26.26.116,forced_choiceRT_color,2021.2.3,Win32,120.1923077,k,1.944,8,0,8,0,1,,,,,,,,,,,,,,,,
,,,,,,,,,,,5db103ed236ef00013611a6f,2021-09-28_12h26.26.116,forced_choiceRT_color,2021.2.3,Win32,120.1923077,f,2.1,9,0,9,0,1,,,,,,,,,,,,,,,,
,,,,,,,,,,,5db103ed236ef00013611a6f,2021-09-28_12h26.26.116,forced_choiceRT_color,2021.2.3,Win32,120.1923077,j,2.068,10,0,10,0,1,,,,,,,,,,,,,,,,
,,,,,,,,,,,5db103ed236ef00013611a6f,2021-09-28_12h26.26.116,forced_choiceRT_color,2021.2.3,Win32,120.1923077,d,2.034,11,0,11,0,1,,,,,,,,,,,,,,,,
,,,,,,,,,,,5db103ed236ef00013611a6f,2021-09-28_12h26.26.116,forced_choiceRT_color,2021.2.3,Win32,120.1923077,f,2.002,12,0,12,0,1,,,,,,,,,,,,,,,,
,,,,,,,,,,,5db103ed236ef00013611a6f,2021-09-28_12h26.26.116,forced_choiceRT_color,2021.2.3,Win32,120.1923077,k,2.117,13,0,13,0,1,,,,,,,,,,,,,,,,
,,,,,,,,,,,5db103ed236ef00013611a6f,2021-09-28_12h26.26.116,forced_choiceRT_color,2021.2.3,Win32,120.1923077,k,2.035,14,0,14,0,1,,,,,,,,,,,,,,,,
,,,,,,,,,,,5db103ed236ef00013611a6f,2021-09-28_12h26.26.116,forced_choiceRT_color,2021.2.3,Win32,120.1923077,j,2.068,15,0,15,0,1,,,,,,,,,,,,,,,,
,,,,,,,,,,,5db103ed236ef00013611a6f,2021-09-28_12h26.26.116,forced_choiceRT_color,2021.2.3,Win32,120.1923077,f,2.076,16,0,16,0,1,,,,,,,,,,,,,,,,
,,,,,,,,,,,5db103ed236ef00013611a6f,2021-09-28_12h26.26.116,forced_choiceRT_color,2021.2.3,Win32,120.1923077,d,2.087,17,0,17,0,1,,,,,,,,,,,,,,,,
,,,,,,,,,,,5db103ed236ef00013611a6f,2021-09-28_12h26.26.116,forced_choiceRT_color,2021.2.3,Win32,120.1923077,f,2.043,18,0,18,0,1,,,,,,,,,,,,,,,,
,,,,,,,,,,,5db103ed236ef00013611a6f,2021-09-28_12h26.26.116,forced_choiceRT_color,2021.2.3,Win32,120.1923077,j,2.125,19,0,19,0,1,,,,,,,,,,,,,,,,
0.12,,,,,,,,,d,orange,5db103ed236ef00013611a6f,2021-09-28_12h26.26.116,forced_choiceRT_color,2021.2.3,Win32,120.1923077,,,,,,,,1,Slow,long,f,0,2.329,0,0,0,0,1,,,,,
0.4,,,,,,,,,f,blue,5db103ed236ef00013611a6f,2021-09-28_12h26.26.116,forced_choiceRT_color,2021.2.3,Win32,120.1923077,,,,,,,,1,Fast,long,d,0,1.726,0,1,1,1,1,,,,,
1.06,,,,,,,,,d,orange,5db103ed236ef00013611a6f,2021-09-28_12h26.26.116,forced_choiceRT_color,2021.2.3,Win32,120.1923077,,,,,,,,1,Ontime,long,d,1,1.913,0,2,2,0,1,,,,,
0.36,,,,,,,,,j,red,5db103ed236ef00013611a6f,2021-09-28_12h26.26.116,forced_choiceRT_color,2021.2.3,Win32,120.1923077,,,,,,,,1,Slow,long,j,1,2.276,0,3,3,2,1,,,,,
0.68,,,,,,,,,f,blue,5db103ed236ef00013611a6f,2021-09-28_12h26.26.116,forced_choiceRT_color,2021.2.3,Win32,120.1923077,,,,,,,,1,Ontime,long,f,1,2.069,1,0,4,1,1,,,,,
0.38,,,,,,,,,k,purple,5db103ed236ef00013611a6f,2021-09-28_12h26.26.116,forced_choiceRT_color,2021.2.3,Win32,120.1923077,,,,,,,,1,Slow,long,k,1,2.236,1,1,5,3,1,,,,,
0.29,,,,,,,,,j,red,5db103ed236ef00013611a6f,2021-09-28_12h26.26.116,forced_choiceRT_color,2021.2.3,Win32,120.1923077,,,,,,,,1,Ontime,long,j,1,2.001,1,2,6,2,1,,,,,
1.05,,,,,,,,,k,purple,5db103ed236ef00013611a6f,2021-09-28_12h26.26.116,forced_choiceRT_color,2021.2.3,Win32,120.1923077,,,,,,,,1,Slow,long,k,1,2.116,1,3,7,3,1,,,,,
0.5,,,,,,,,,k,purple,5db103ed236ef00013611a6f,2021-09-28_12h26.26.116,forced_choiceRT_color,2021.2.3,Win32,120.1923077,,,,,,,,1,Slow,long,k,1,2.2,2,0,8,3,1,,,,,
1.55,,,,,,,,,k,purple,5db103ed236ef00013611a6f,2021-09-28_12h26.26.116,forced_choiceRT_color,2021.2.3,Win32,120.1923077,,,,,,,,1,Slow,long,k,1,2.26,2,1,9,3,1,,,,,
1.44,,,,,,,,,j,red,5db103ed236ef00013611a6f,2021-09-28_12h26.26.116,forced_choiceRT_color,2021.2.3,Win32,120.1923077,,,,,,,,1,Ontime,long,j,1,2.084,2,2,10,2,1,,,,,
0.79,,,,,,,,,j,red,5db103ed236ef00013611a6f,2021-09-28_12h26.26.116,forced_choiceRT_color,2021.2.3,Win32,120.1923077,,,,,,,,1,Fast,long,j,1,1.317,2,3,11,2,1,,,,,
0.49,,,,,,,,,f,blue,5db103ed236ef00013611a6f,2021-09-28_12h26.26.116,forced_choiceRT_color,2021.2.3,Win32,120.1923077,,,,,,,,1,Slow,long,f,1,2.183,3,0,12,1,1,,,,,
1.89,,,,,,,,,k,purple,5db103ed236ef00013611a6f,2021-09-28_12h26.26.116,forced_choiceRT_color,2021.2.3,Win32,120.1923077,,,,,,,,1,Slow,long,k,1,2.326,3,1,13,3,1,,,,,
1.06,,,,,,,,,f,blue,5db103ed236ef00013611a6f,2021-09-28_12h26.26.116,forced_choiceRT_color,2021.2.3,Win32,120.1923077,,,,,,,,1,Ontime,long,f,1,1.91,3,2,14,1,1,,,,,
0.1,,,,,,,,,j,red,5db103ed236ef00013611a6f,2021-09-28_12h26.26.116,forced_choiceRT_color,2021.2.3,Win32,120.1923077,,,,,,,,1,Ontime,long,j,1,1.96,3,3,15,2,1,,,,,
0.69,,,,,,,,,j,red,5db103ed236ef00013611a6f,2021-09-28_12h26.26.116,forced_choiceRT_color,2021.2.3,Win32,120.1923077,,,,,,,,1,Ontime,long,j,1,1.961,4,0,16,2,1,,,,,
0.71,,,,,,,,,d,orange,5db103ed236ef00013611a6f,2021-09-28_12h26.26.116,forced_choiceRT_color,2021.2.3,Win32,120.1923077,,,,,,,,1,Fast,long,d,1,1.702,4,1,17,0,1,,,,,
1.79,,,,,,,,,f,blue,5db103ed236ef00013611a6f,2021-09-28_12h26.26.116,forced_choiceRT_color,2021.2.3,Win32,120.1923077,,,,,,,,1,Slow,long,j,0,2.317,4,2,18,1,1,,,,,
1.23,,,,,,,,,f,blue,5db103ed236ef00013611a6f,2021-09-28_12h26.26.116,forced_choiceRT_color,2021.2.3,Win32,120.1923077,,,,,,,,1,Ontime,long,f,1,2.042,4,3,19,1,1,,,,,
1.76,,,,,,,,,d,orange,5db103ed236ef00013611a6f,2021-09-28_12h26.26.116,forced_choiceRT_color,2021.2.3,Win32,120.1923077,,,,,,,,1,Slow,long,j,0,2.301,5,0,20,0,1,,,,,
0.68,,,,,,,,,k,purple,5db103ed236ef00013611a6f,2021-09-28_12h26.26.116,forced_choiceRT_color,2021.2.3,Win32,120.1923077,,,,,,,,1,Fast,long,k,1,1.751,5,1,21,3,1,,,,,
0.29,,,,,,,,,f,blue,5db103ed236ef00013611a6f,2021-09-28_12h26.26.116,forced_choiceRT_color,2021.2.3,Win32,120.1923077,,,,,,,,1,Fast,long,f,1,1.771,5,2,22,1,1,,,,,
1.9,,,,,,,,,j,red,5db103ed236ef00013611a6f,2021-09-28_12h26.26.116,forced_choiceRT_color,2021.2.3,Win32,120.1923077,,,,,,,,1,Slow,long,k,0,2.75,5,3,23,2,1,,,,,
0.23,,,,,,,,,d,orange,5db103ed236ef00013611a6f,2021-09-28_12h26.26.116,forced_choiceRT_color,2021.2.3,Win32,120.1923077,,,,,,,,1,Ontime,long,d,1,2.001,6,0,24,0,1,,,,,
0.56,,,,,,,,,k,purple,5db103ed236ef00013611a6f,2021-09-28_12h26.26.116,forced_choiceRT_color,2021.2.3,Win32,120.1923077,,,,,,,,1,Fast,long,k,1,1.893,6,1,25,3,1,,,,,
1.91,,,,,,,,,d,orange,5db103ed236ef00013611a6f,2021-09-28_12h26.26.116,forced_choiceRT_color,2021.2.3,Win32,120.1923077,,,,,,,,1,Slow,long,j,0,2.327,6,2,26,0,1,,,,,
0.25,,,,,,,,,d,orange,5db103ed236ef00013611a6f,2021-09-28_12h26.26.116,forced_choiceRT_color,2021.2.3,Win32,120.1923077,,,,,,,,1,Ontime,long,d,1,2.017,6,3,27,0,1,,,,,
0.38,,,,,,,,,j,red,5db103ed236ef00013611a6f,2021-09-28_12h26.26.116,forced_choiceRT_color,2021.2.3,Win32,120.1923077,,,,,,,,1,Ontime,long,j,1,2.001,7,0,28,2,1,,,,,
1.06,,,,,,,,,k,purple,5db103ed236ef00013611a6f,2021-09-28_12h26.26.116,forced_choiceRT_color,2021.2.3,Win32,120.1923077,,,,,,,,1,Fast,long,d,0,1.826,7,1,29,3,1,,,,,
0.49,,,,,,,,,d,orange,5db103ed236ef00013611a6f,2021-09-28_12h26.26.116,forced_choiceRT_color,2021.2.3,Win32,120.1923077,,,,,,,,1,Fast,long,d,1,1.778,7,2,30,0,1,,,,,
1.68,,,,,,,,,j,red,5db103ed236ef00013611a6f,2021-09-28_12h26.26.116,forced_choiceRT_color,2021.2.3,Win32,120.1923077,,,,,,,,1,Slow,long,j,1,3.699,7,3,31,2,1,,,,,
1.31,,,,,,,,,d,orange,5db103ed236ef00013611a6f,2021-09-28_12h26.26.116,forced_choiceRT_color,2021.2.3,Win32,120.1923077,,,,,,,,1,Slow,long,d,1,2.101,8,0,32,0,1,,,,,
1.26,,,,,,,,,f,blue,5db103ed236ef00013611a6f,2021-09-28_12h26.26.116,forced_choiceRT_color,2021.2.3,Win32,120.1923077,,,,,,,,1,Fast,long,f,1,1.792,8,1,33,1,1,,,,,
0.18,,,,,,,,,k,purple,5db103ed236ef00013611a6f,2021-09-28_12h26.26.116,forced_choiceRT_color,2021.2.3,Win32,120.1923077,,,,,,,,1,Ontime,long,k,1,2.035,8,2,34,3,1,,,,,
1.61,,,,,,,,,k,purple,5db103ed236ef00013611a6f,2021-09-28_12h26.26.116,forced_choiceRT_color,2021.2.3,Win32,120.1923077,,,,,,,,1,Slow,long,k,1,2.302,8,3,35,3,1,,,,,
0.51,,,,,,,,,d,orange,5db103ed236ef00013611a6f,2021-09-28_12h26.26.116,forced_choiceRT_color,2021.2.3,Win32,120.1923077,,,,,,,,1,Ontime,long,d,1,2.029,9,0,36,0,1,,,,,
0.15,,,,,,,,,f,blue,5db103ed236ef00013611a6f,2021-09-28_12h26.26.116,forced_choiceRT_color,2021.2.3,Win32,120.1923077,,,,,,,,1,Slow,long,f,1,2.11,9,1,37,1,1,,,,,
1.57,,,,,,,,,j,red,5db103ed236ef00013611a6f,2021-09-28_12h26.26.116,forced_choiceRT_color,2021.2.3,Win32,120.1923077,,,,,,,,1,Slow,long,j,1,2.17,9,2,38,2,1,,,,,
1.84,,,,,,,,,f,blue,5db103ed236ef00013611a6f,2021-09-28_12h26.26.116,forced_choiceRT_color,2021.2.3,Win32,120.1923077,,,,,,,,1,Slow,long,j,0,2.336,9,3,39,1,1,,,,,
,,,,,,,,,,,5db103ed236ef00013611a6f,2021-09-28_12h26.26.116,forced_choiceRT_color,2021.2.3,Win32,120.1923077,,,,,,,,,,,,,,,,,,,0,0,0,0,1
1.87,,,,,,,,,k,purple,5db103ed236ef00013611a6f,2021-09-28_12h26.26.116,forced_choiceRT_color,2021.2.3,Win32,120.1923077,,,,,,,,2,Slow,long,j,0,2.112,0,0,0,3,1,,,,,
0.14,,,,,,,,,j,red,5db103ed236ef00013611a6f,2021-09-28_12h26.26.116,forced_choiceRT_color,2021.2.3,Win32,120.1923077,,,,,,,,2,Ontime,long,j,1,2.042,0,1,1,2,1,,,,,
1.55,,,,,,,,,f,blue,5db103ed236ef00013611a6f,2021-09-28_12h26.26.116,forced_choiceRT_color,2021.2.3,Win32,120.1923077,,,,,,,,2,Slow,long,f,1,2.143,0,2,2,1,1,,,,,
0.79,,,,,,,,,f,blue,5db103ed236ef00013611a6f,2021-09-28_12h26.26.116,forced_choiceRT_color,2021.2.3,Win32,120.1923077,,,,,,,,2,Ontime,long,j,0,1.951,0,3,3,1,1,,,,,
0.54,,,,,,,,,d,orange,5db103ed236ef00013611a6f,2021-09-28_12h26.26.116,forced_choiceRT_color,2021.2.3,Win32,120.1923077,,,,,,,,2,Ontime,long,d,1,1.933,1,0,4,0,1,,,,,
1.95,,,,,,,,,j,red,5db103ed236ef00013611a6f,2021-09-28_12h26.26.116,forced_choiceRT_color,2021.2.3,Win32,120.1923077,,,,,,,,2,Slow,long,j,1,2.461,1,1,5,2,1,,,,,
1.62,,,,,,,,,j,red,5db103ed236ef00013611a6f,2021-09-28_12h26.26.116,forced_choiceRT_color,2021.2.3,Win32,120.1923077,,,,,,,,2,Slow,long,f,0,2.1,1,2,6,2,1,,,,,
0.35,,,,,,,,,f,blue,5db103ed236ef00013611a6f,2021-09-28_12h26.26.116,forced_choiceRT_color,2021.2.3,Win32,120.1923077,,,,,,,,2,Ontime,long,f,1,2.02,1,3,7,1,1,,,,,
1.16,,,,,,,,,d,orange,5db103ed236ef00013611a6f,2021-09-28_12h26.26.116,forced_choiceRT_color,2021.2.3,Win32,120.1923077,,,,,,,,2,Fast,long,f,0,1.892,2,0,8,0,1,,,,,
1.87,,,,,,,,,j,red,5db103ed236ef00013611a6f,2021-09-28_12h26.26.116,forced_choiceRT_color,2021.2.3,Win32,120.1923077,,,,,,,,2,Slow,long,j,1,2.185,2,1,9,2,1,,,,,
1.31,,,,,,,,,k,purple,5db103ed236ef00013611a6f,2021-09-28_12h26.26.116,forced_choiceRT_color,2021.2.3,Win32,120.1923077,,,,,,,,2,Ontime,long,k,1,2.026,2,2,10,3,1,,,,,
0.89,,,,,,,,,j,red,5db103ed236ef00013611a6f,2021-09-28_12h26.26.116,forced_choiceRT_color,2021.2.3,Win32,120.1923077,,,,,,,,2,Ontime,long,f,0,1.902,2,3,11,2,1,,,,,
1.92,,,,,,,,,k,purple,5db103ed236ef00013611a6f,2021-09-28_12h26.26.116,forced_choiceRT_color,2021.2.3,Win32,120.1923077,,,,,,,,2,Slow,long,k,1,2.135,3,0,12,3,1,,,,,
0.9,,,,,,,,,j,red,5db103ed236ef00013611a6f,2021-09-28_12h26.26.116,forced_choiceRT_color,2021.2.3,Win32,120.1923077,,,,,,,,2,Fast,long,j,1,1.335,3,1,13,2,1,,,,,
1.54,,,,,,,,,j,red,5db103ed236ef00013611a6f,2021-09-28_12h26.26.116,forced_choiceRT_color,2021.2.3,Win32,120.1923077,,,,,,,,2,Ontime,long,j,1,2.062,3,2,14,2,1,,,,,
0.86,,,,,,,,,k,purple,5db103ed236ef00013611a6f,2021-09-28_12h26.26.116,forced_choiceRT_color,2021.2.3,Win32,120.1923077,,,,,,,,2,Fast,long,k,1,1.875,3,3,15,3,1,,,,,
1.61,,,,,,,,,d,orange,5db103ed236ef00013611a6f,2021-09-28_12h26.26.116,forced_choiceRT_color,2021.2.3,Win32,120.1923077,,,,,,,,2,Ontime,long,f,0,2.076,4,0,16,0,1,,,,,
0.64,,,,,,,,,d,orange,5db103ed236ef00013611a6f,2021-09-28_12h26.26.116,forced_choiceRT_color,2021.2.3,Win32,120.1923077,,,,,,,,2,Ontime,long,d,1,2.041,4,1,17,0,1,,,,,
1.31,,,,,,,,,f,blue,5db103ed236ef00013611a6f,2021-09-28_12h26.26.116,forced_choiceRT_color,2021.2.3,Win32,120.1923077,,,,,,,,2,Ontime,long,j,0,2.059,4,2,18,1,1,,,,,
0.6,,,,,,,,,k,purple,5db103ed236ef00013611a6f,2021-09-28_12h26.26.116,forced_choiceRT_color,2021.2.3,Win32,120.1923077,,,,,,,,2,Slow,long,k,1,2.118,4,3,19,3,1,,,,,
0.07,,,,,,,,,d,orange,5db103ed236ef00013611a6f,2021-09-28_12h26.26.116,forced_choiceRT_color,2021.2.3,Win32,120.1923077,,,,,,,,2,Ontime,long,d,1,2.041,5,0,20,0,1,,,,,
1.85,,,,,,,,,f,blue,5db103ed236ef00013611a6f,2021-09-28_12h26.26.116,forced_choiceRT_color,2021.2.3,Win32,120.1923077,,,,,,,,2,Slow,long,j,0,2.393,5,1,21,1,1,,,,,
1.86,,,,,,,,,k,purple,5db103ed236ef00013611a6f,2021-09-28_12h26.26.116,forced_choiceRT_color,2021.2.3,Win32,120.1923077,,,,,,,,2,Ontime,long,f,0,1.985,5,2,22,3,1,,,,,
1.49,,,,,,,,,k,purple,5db103ed236ef00013611a6f,2021-09-28_12h26.26.116,forced_choiceRT_color,2021.2.3,Win32,120.1923077,,,,,,,,2,Ontime,long,k,1,1.91,5,3,23,3,1,,,,,
0.61,,,,,,,,,f,blue,5db103ed236ef00013611a6f,2021-09-28_12h26.26.116,forced_choiceRT_color,2021.2.3,Win32,120.1923077,,,,,,,,2,Fast,long,d,0,1.276,6,0,24,1,1,,,,,
0.24,,,,,,,,,d,orange,5db103ed236ef00013611a6f,2021-09-28_12h26.26.116,forced_choiceRT_color,2021.2.3,Win32,120.1923077,,,,,,,,2,Fast,long,d,1,1.743,6,1,25,0,1,,,,,
1.46,,,,,,,,,j,red,5db103ed236ef00013611a6f,2021-09-28_12h26.26.116,forced_choiceRT_color,2021.2.3,Win32,120.1923077,,,,,,,,2,Ontime,long,f,0,1.97,6,2,26,2,1,,,,,
0.41,,,,,,,,,d,orange,5db103ed236ef00013611a6f,2021-09-28_12h26.26.116,forced_choiceRT_color,2021.2.3,Win32,120.1923077,,,,,,,,2,Slow,long,d,1,2.168,6,3,27,0,1,,,,,
0.68,,,,,,,,,d,orange,5db103ed236ef00013611a6f,2021-09-28_12h26.26.116,forced_choiceRT_color,2021.2.3,Win32,120.1923077,,,,,,,,2,Ontime,long,d,1,1.903,7,0,28,0,1,,,,,
1.8,,,,,,,,,j,red,5db103ed236ef00013611a6f,2021-09-28_12h26.26.116,forced_choiceRT_color,2021.2.3,Win32,120.1923077,,,,,,,,2,Slow,long,j,1,2.25,7,1,29,2,1,,,,,
0.8,,,,,,,,,d,orange,5db103ed236ef00013611a6f,2021-09-28_12h26.26.116,forced_choiceRT_color,2021.2.3,Win32,120.1923077,,,,,,,,2,Fast,long,d,1,1.86,7,2,30,0,1,,,,,
0.01,,,,,,,,,f,blue,5db103ed236ef00013611a6f,2021-09-28_12h26.26.116,forced_choiceRT_color,2021.2.3,Win32,120.1923077,,,,,,,,2,Fast,long,f,1,1.853,7,3,31,1,1,,,,,
0.25,,,,,,,,,k,purple,5db103ed236ef00013611a6f,2021-09-28_12h26.26.116,forced_choiceRT_color,2021.2.3,Win32,120.1923077,,,,,,,,2,Ontime,long,k,1,1.968,8,0,32,3,1,,,,,
0.93,,,,,,,,,f,blue,5db103ed236ef00013611a6f,2021-09-28_12h26.26.116,forced_choiceRT_color,2021.2.3,Win32,120.1923077,,,,,,,,2,Fast,long,d,0,1.884,8,1,33,1,1,,,,,
1.17,,,,,,,,,k,purple,5db103ed236ef00013611a6f,2021-09-28_12h26.26.116,forced_choiceRT_color,2021.2.3,Win32,120.1923077,,,,,,,,2,Ontime,long,k,1,2.003,8,2,34,3,1,,,,,
1.75,,,,,,,,,d,orange,5db103ed236ef00013611a6f,2021-09-28_12h26.26.116,forced_choiceRT_color,2021.2.3,Win32,120.1923077,,,,,,,,2,Slow,long,f,0,2.336,8,3,35,0,1,,,,,
0.09,,,,,,,,,j,red,5db103ed236ef00013611a6f,2021-09-28_12h26.26.116,forced_choiceRT_color,2021.2.3,Win32,120.1923077,,,,,,,,2,Fast,long,j,1,1.768,9,0,36,2,1,,,,,
0.4,,,,,,,,,f,blue,5db103ed236ef00013611a6f,2021-09-28_12h26.26.116,forced_choiceRT_color,2021.2.3,Win32,120.1923077,,,,,,,,2,Fast,long,j,0,1.784,9,1,37,1,1,,,,,
1.77,,,,,,,,,k,purple,5db103ed236ef00013611a6f,2021-09-28_12h26.26.116,forced_choiceRT_color,2021.2.3,Win32,120.1923077,,,,,,,,2,Slow,long,f,0,2.211,9,2,38,3,1,,,,,
0.41,,,,,,,,,f,blue,5db103ed236ef00013611a6f,2021-09-28_12h26.26.116,forced_choiceRT_color,2021.2.3,Win32,120.1923077,,,,,,,,2,Fast,long,f,1,1.811,9,3,39,1,1,,,,,
,,,,,,,,,,,5db103ed236ef00013611a6f,2021-09-28_12h26.26.116,forced_choiceRT_color,2021.2.3,Win32,120.1923077,,,,,,,,,,,,,,,,,,,1,0,1,0,1
1.61,,,,,,,,,k,purple,5db103ed236ef00013611a6f,2021-09-28_12h26.26.116,forced_choiceRT_color,2021.2.3,Win32,120.1923077,,,,,,,,3,Slow,long,k,1,2.138,0,0,0,3,1,,,,,
1.04,,,,,,,,,j,red,5db103ed236ef00013611a6f,2021-09-28_12h26.26.116,forced_choiceRT_color,2021.2.3,Win32,120.1923077,,,,,,,,3,Fast,long,f,0,1.618,0,1,1,2,1,,,,,
0.23,,,,,,,,,d,orange,5db103ed236ef00013611a6f,2021-09-28_12h26.26.116,forced_choiceRT_color,2021.2.3,Win32,120.1923077,,,,,,,,3,Ontime,long,d,1,1.96,0,2,2,0,1,,,,,
0.14,,,,,,,,,f,blue,5db103ed236ef00013611a6f,2021-09-28_12h26.26.116,forced_choiceRT_color,2021.2.3,Win32,120.1923077,,,,,,,,3,Ontime,long,f,1,1.979,0,3,3,1,1,,,,,
1.01,,,,,,,,,j,red,5db103ed236ef00013611a6f,2021-09-28_12h26.26.116,forced_choiceRT_color,2021.2.3,Win32,120.1923077,,,,,,,,3,Ontime,long,f,0,2.05,1,0,4,2,1,,,,,
0.38,,,,,,,,,d,orange,5db103ed236ef00013611a6f,2021-09-28_12h26.26.116,forced_choiceRT_color,2021.2.3,Win32,120.1923077,,,,,,,,3,Ontime,long,d,1,2.059,1,1,5,0,1,,,,,
1.54,,,,,,,,,f,blue,5db103ed236ef00013611a6f,2021-09-28_12h26.26.116,forced_choiceRT_color,2021.2.3,Win32,120.1923077,,,,,,,,3,Ontime,long,f,1,2.076,1,2,6,1,1,,,,,
1.81,,,,,,,,,j,red,5db103ed236ef00013611a6f,2021-09-28_12h26.26.116,forced_choiceRT_color,2021.2.3,Win32,120.1923077,,,,,,,,3,Slow,long,j,1,2.411,1,3,7,2,1,,,,,
0.11,,,,,,,,,j,red,5db103ed236ef00013611a6f,2021-09-28_12h26.26.116,forced_choiceRT_color,2021.2.3,Win32,120.1923077,,,,,,,,3,Fast,long,j,1,0.594,2,0,8,2,1,,,,,
0.26,,,,,,,,,f,blue,5db103ed236ef00013611a6f,2021-09-28_12h26.26.116,forced_choiceRT_color,2021.2.3,Win32,120.1923077,,,,,,,,3,Ontime,long,f,1,2.009,2,1,9,1,1,,,,,
0.07,,,,,,,,,j,red,5db103ed236ef00013611a6f,2021-09-28_12h26.26.116,forced_choiceRT_color,2021.2.3,Win32,120.1923077,,,,,,,,3,Ontime,long,j,1,1.992,2,2,10,2,1,,,,,
0.2,,,,,,,,,d,orange,5db103ed236ef00013611a6f,2021-09-28_12h26.26.116,forced_choiceRT_color,2021.2.3,Win32,120.1923077,,,,,,,,3,Ontime,long,d,1,2.079,2,3,11,0,1,,,,,
0.46,,,,,,,,,f,blue,5db103ed236ef00013611a6f,2021-09-28_12h26.26.116,forced_choiceRT_color,2021.2.3,Win32,120.1923077,,,,,,,,3,Ontime,long,f,1,2.036,3,0,12,1,1,,,,,
0.35,,,,,,,,,k,purple,5db103ed236ef00013611a6f,2021-09-28_12h26.26.116,forced_choiceRT_color,2021.2.3,Win32,120.1923077,,,,,,,,3,Ontime,long,k,1,2.068,3,1,13,3,1,,,,,
1.94,,,,,,,,,d,orange,5db103ed236ef00013611a6f,2021-09-28_12h26.26.116,forced_choiceRT_color,2021.2.3,Win32,120.1923077,,,,,,,,3,Slow,long,f,0,2.492,3,2,14,0,1,,,,,
0.38,,,,,,,,,k,purple,5db103ed236ef00013611a6f,2021-09-28_12h26.26.116,forced_choiceRT_color,2021.2.3,Win32,120.1923077,,,,,,,,3,Ontime,long,k,1,1.977,3,3,15,3,1,,,,,
1.24,,,,,,,,,k,purple,5db103ed236ef00013611a6f,2021-09-28_12h26.26.116,forced_choiceRT_color,2021.2.3,Win32,120.1923077,,,,,,,,3,Ontime,long,k,1,2.003,4,0,16,3,1,,,,,
1.78,,,,,,,,,f,blue,5db103ed236ef00013611a6f,2021-09-28_12h26.26.116,forced_choiceRT_color,2021.2.3,Win32,120.1923077,,,,,,,,3,Slow,long,j,0,2.536,4,1,17,1,1,,,,,
1.54,,,,,,,,,k,purple,5db103ed236ef00013611a6f,2021-09-28_12h26.26.116,forced_choiceRT_color,2021.2.3,Win32,120.1923077,,,,,,,,3,Slow,long,j,0,2.119,4,2,18,3,1,,,,,
1.36,,,,,,,,,f,blue,5db103ed236ef00013611a6f,2021-09-28_12h26.26.116,forced_choiceRT_color,2021.2.3,Win32,120.1923077,,,,,,,,3,Ontime,long,f,1,1.995,4,3,19,1,1,,,,,
1.36,,,,,,,,,k,purple,5db103ed236ef00013611a6f,2021-09-28_12h26.26.116,forced_choiceRT_color,2021.2.3,Win32,120.1923077,,,,,,,,3,Ontime,long,k,1,2.052,5,0,20,3,1,,,,,
0.38,,,,,,,,,k,purple,5db103ed236ef00013611a6f,2021-09-28_12h26.26.116,forced_choiceRT_color,2021.2.3,Win32,120.1923077,,,,,,,,3,Ontime,long,k,1,2.051,5,1,21,3,1,,,,,
0.13,,,,,,,,,k,purple,5db103ed236ef00013611a6f,2021-09-28_12h26.26.116,forced_choiceRT_color,2021.2.3,Win32,120.1923077,,,,,,,,3,Ontime,long,k,1,2.011,5,2,22,3,1,,,,,
1.18,,,,,,,,,d,orange,5db103ed236ef00013611a6f,2021-09-28_12h26.26.116,forced_choiceRT_color,2021.2.3,Win32,120.1923077,,,,,,,,3,Ontime,long,d,1,1.984,5,3,23,0,1,,,,,
0.4,,,,,,,,,k,purple,5db103ed236ef00013611a6f,2021-09-28_12h26.26.116,forced_choiceRT_color,2021.2.3,Win32,120.1923077,,,,,,,,3,Ontime,long,k,1,2.067,6,0,24,3,1,,,,,
0.93,,,,,,,,,j,red,5db103ed236ef00013611a6f,2021-09-28_12h26.26.116,forced_choiceRT_color,2021.2.3,Win32,120.1923077,,,,,,,,3,Fast,long,j,1,1.893,6,1,25,2,1,,,,,
1.67,,,,,,,,,d,orange,5db103ed236ef00013611a6f,2021-09-28_12h26.26.116,forced_choiceRT_color,2021.2.3,Win32,120.1923077,,,,,,,,3,Slow,long,d,1,2.103,6,2,26,0,1,,,,,
1.83,,,,,,,,,d,orange,5db103ed236ef00013611a6f,2021-09-28_12h26.26.116,forced_choiceRT_color,2021.2.3,Win32,120.1923077,,,,,,,,3,Slow,long,d,1,2.178,6,3,27,0,1,,,,,
1.79,,,,,,,,,f,blue,5db103ed236ef00013611a6f,2021-09-28_12h26.26.116,forced_choiceRT_color,2021.2.3,Win32,120.1923077,,,,,,,,3,Slow,long,k,0,2.201,7,0,28,1,1,,,,,
0,,,,,,,,,d,orange,5db103ed236ef00013611a6f,2021-09-28_12h26.26.116,forced_choiceRT_color,2021.2.3,Win32,120.1923077,,,,,,,,3,Fast,long,d,1,1.734,7,1,29,0,1,,,,,
0.81,,,,,,,,,f,blue,5db103ed236ef00013611a6f,2021-09-28_12h26.26.116,forced_choiceRT_color,2021.2.3,Win32,120.1923077,,,,,,,,3,Ontime,long,j,0,2.061,7,2,30,1,1,,,,,
0.05,,,,,,,,,d,orange,5db103ed236ef00013611a6f,2021-09-28_12h26.26.116,forced_choiceRT_color,2021.2.3,Win32,120.1923077,,,,,,,,3,Ontime,long,d,1,1.911,7,3,31,0,1,,,,,
0.37,,,,,,,,,f,blue,5db103ed236ef00013611a6f,2021-09-28_12h26.26.116,forced_choiceRT_color,2021.2.3,Win32,120.1923077,,,,,,,,3,Ontime,long,f,1,2.019,8,0,32,1,1,,,,,
1.51,,,,,,,,,j,red,5db103ed236ef00013611a6f,2021-09-28_12h26.26.116,forced_choiceRT_color,2021.2.3,Win32,120.1923077,,,,,,,,3,Ontime,long,k,0,2.017,8,1,33,2,1,,,,,
0.36,,,,,,,,,j,red,5db103ed236ef00013611a6f,2021-09-28_12h26.26.116,forced_choiceRT_color,2021.2.3,Win32,120.1923077,,,,,,,,3,Ontime,long,j,1,1.912,8,2,34,2,1,,,,,
1.02,,,,,,,,,j,red,5db103ed236ef00013611a6f,2021-09-28_12h26.26.116,forced_choiceRT_color,2021.2.3,Win32,120.1923077,,,,,,,,3,Fast,long,j,1,1.85,8,3,35,2,1,,,,,
0.86,,,,,,,,,d,orange,5db103ed236ef00013611a6f,2021-09-28_12h26.26.116,forced_choiceRT_color,2021.2.3,Win32,120.1923077,,,,,,,,3,Fast,long,d,1,1.742,9,0,36,0,1,,,,,
1.64,,,,,,,,,k,purple,5db103ed236ef00013611a6f,2021-09-28_12h26.26.116,forced_choiceRT_color,2021.2.3,Win32,120.1923077,,,,,,,,3,Slow,long,k,1,2.167,9,1,37,3,1,,,,,
0.55,,,,,,,,,j,red,5db103ed236ef00013611a6f,2021-09-28_12h26.26.116,forced_choiceRT_color,2021.2.3,Win32,120.1923077,,,,,,,,3,Fast,long,j,1,1.743,9,2,38,2,1,,,,,
0.06,,,,,,,,,f,blue,5db103ed236ef00013611a6f,2021-09-28_12h26.26.116,forced_choiceRT_color,2021.2.3,Win32,120.1923077,,,,,,,,3,Fast,long,f,1,1.551,9,3,39,1,1,,,,,
,,,,,,,,,,,5db103ed236ef00013611a6f,2021-09-28_12h26.26.116,forced_choiceRT_color,2021.2.3,Win32,120.1923077,,,,,,,,,,,,,,,,,,,2,0,2,0,1
1.41,,,,,,,,,d,orange,5db103ed236ef00013611a6f,2021-09-28_12h26.26.116,forced_choiceRT_color,2021.2.3,Win32,120.1923077,,,,,,,,4,Ontime,long,d,1,1.964,0,0,0,0,1,,,,,
1.58,,,,,,,,,k,purple,5db103ed236ef00013611a6f,2021-09-28_12h26.26.116,forced_choiceRT_color,2021.2.3,Win32,120.1923077,,,,,,,,4,Slow,long,k,1,2.2,0,1,1,3,1,,,,,
0.59,,,,,,,,,d,orange,5db103ed236ef00013611a6f,2021-09-28_12h26.26.116,forced_choiceRT_color,2021.2.3,Win32,120.1923077,,,,,,,,4,Fast,long,d,1,1.51,0,2,2,0,1,,,,,
1.36,,,,,,,,,k,purple,5db103ed236ef00013611a6f,2021-09-28_12h26.26.116,forced_choiceRT_color,2021.2.3,Win32,120.1923077,,,,,,,,4,Slow,long,k,1,2.186,0,3,3,3,1,,,,,
1.73,,,,,,,,,k,purple,5db103ed236ef00013611a6f,2021-09-28_12h26.26.116,forced_choiceRT_color,2021.2.3,Win32,120.1923077,,,,,,,,4,Slow,long,f,0,2.202,1,0,4,3,1,,,,,
1.92,,,,,,,,,d,orange,5db103ed236ef00013611a6f,2021-09-28_12h26.26.116,forced_choiceRT_color,2021.2.3,Win32,120.1923077,,,,,,,,4,Ontime,long,k,0,2.034,1,1,5,0,1,,,,,
1.82,,,,,,,,,f,blue,5db103ed236ef00013611a6f,2021-09-28_12h26.26.116,forced_choiceRT_color,2021.2.3,Win32,120.1923077,,,,,,,,4,Slow,long,f,1,2.575,1,2,6,1,1,,,,,
0.67,,,,,,,,,f,blue,5db103ed236ef00013611a6f,2021-09-28_12h26.26.116,forced_choiceRT_color,2021.2.3,Win32,120.1923077,,,,,,,,4,Fast,long,f,1,1.351,1,3,7,1,1,,,,,
1.3,,,,,,,,,j,red,5db103ed236ef00013611a6f,2021-09-28_12h26.26.116,forced_choiceRT_color,2021.2.3,Win32,120.1923077,,,,,,,,4,Fast,long,j,1,1.804,2,0,8,2,1,,,,,
0.55,,,,,,,,,d,orange,5db103ed236ef00013611a6f,2021-09-28_12h26.26.116,forced_choiceRT_color,2021.2.3,Win32,120.1923077,,,,,,,,4,Ontime,long,d,1,2.028,2,1,9,0,1,,,,,
1.97,,,,,,,,,j,red,5db103ed236ef00013611a6f,2021-09-28_12h26.26.116,forced_choiceRT_color,2021.2.3,Win32,120.1923077,,,,,,,,4,Slow,long,j,1,2.459,2,2,10,2,1,,,,,
1.96,,,,,,,,,f,blue,5db103ed236ef00013611a6f,2021-09-28_12h26.26.116,forced_choiceRT_color,2021.2.3,Win32,120.1923077,,,,,,,,4,Slow,long,d,0,2.534,2,3,11,1,1,,,,,
0.94,,,,,,,,,d,orange,5db103ed236ef00013611a6f,2021-09-28_12h26.26.116,forced_choiceRT_color,2021.2.3,Win32,120.1923077,,,,,,,,4,Fast,long,d,1,1.877,3,0,12,0,1,,,,,
1.08,,,,,,,,,k,purple,5db103ed236ef00013611a6f,2021-09-28_12h26.26.116,forced_choiceRT_color,2021.2.3,Win32,120.1923077,,,,,,,,4,Fast,long,k,1,1.735,3,1,13,3,1,,,,,
0.89,,,,,,,,,f,blue,5db103ed236ef00013611a6f,2021-09-28_12h26.26.116,forced_choiceRT_color,2021.2.3,Win32,120.1923077,,,,,,,,4,Ontime,long,f,1,1.909,3,2,14,1,1,,,,,
0.5,,,,,,,,,j,red,5db103ed236ef00013611a6f,2021-09-28_12h26.26.116,forced_choiceRT_color,2021.2.3,Win32,120.1923077,,,,,,,,4,Ontime,long,j,1,1.929,3,3,15,2,1,,,,,
0.31,,,,,,,,,j,red,5db103ed236ef00013611a6f,2021-09-28_12h26.26.116,forced_choiceRT_color,2021.2.3,Win32,120.1923077,,,,,,,,4,Ontime,long,j,1,1.967,4,0,16,2,1,,,,,
0.77,,,,,,,,,j,red,5db103ed236ef00013611a6f,2021-09-28_12h26.26.116,forced_choiceRT_color,2021.2.3,Win32,120.1923077,,,,,,,,4,Ontime,long,j,1,2.026,4,1,17,2,1,,,,,
0.27,,,,,,,,,d,orange,5db103ed236ef00013611a6f,2021-09-28_12h26.26.116,forced_choiceRT_color,2021.2.3,Win32,120.1923077,,,,,,,,4,Ontime,long,d,1,1.961,4,2,18,0,1,,,,,
1.86,,,,,,,,,f,blue,5db103ed236ef00013611a6f,2021-09-28_12h26.26.116,forced_choiceRT_color,2021.2.3,Win32,120.1923077,,,,,,,,4,Slow,long,k,0,2.219,4,3,19,1,1,,,,,
1.86,,,,,,,,,f,blue,5db103ed236ef00013611a6f,2021-09-28_12h26.26.116,forced_choiceRT_color,2021.2.3,Win32,120.1923077,,,,,,,,4,Slow,long,f,1,3.168,5,0,20,1,1,,,,,
0.21,,,,,,,,,d,orange,5db103ed236ef00013611a6f,2021-09-28_12h26.26.116,forced_choiceRT_color,2021.2.3,Win32,120.1923077,,,,,,,,4,Ontime,long,d,1,1.917,5,1,21,0,1,,,,,
1.84,,,,,,,,,k,purple,5db103ed236ef00013611a6f,2021-09-28_12h26.26.116,forced_choiceRT_color,2021.2.3,Win32,120.1923077,,,,,,,,4,Slow,long,k,1,2.352,5,2,22,3,1,,,,,
1.61,,,,,,,,,f,blue,5db103ed236ef00013611a6f,2021-09-28_12h26.26.116,forced_choiceRT_color,2021.2.3,Win32,120.1923077,,,,,,,,4,Slow,long,f,1,2.287,5,3,23,1,1,,,,,
1.39,,,,,,,,,j,red,5db103ed236ef00013611a6f,2021-09-28_12h26.26.116,forced_choiceRT_color,2021.2.3,Win32,120.1923077,,,,,,,,4,Slow,long,j,1,2.108,6,0,24,2,1,,,,,
0.43,,,,,,,,,d,orange,5db103ed236ef00013611a6f,2021-09-28_12h26.26.116,forced_choiceRT_color,2021.2.3,Win32,120.1923077,,,,,,,,4,Ontime,long,k,0,1.961,6,1,25,0,1,,,,,
0.82,,,,,,,,,k,purple,5db103ed236ef00013611a6f,2021-09-28_12h26.26.116,forced_choiceRT_color,2021.2.3,Win32,120.1923077,,,,,,,,4,Slow,long,f,0,2.133,6,2,26,3,1,,,,,
1.07,,,,,,,,,k,purple,5db103ed236ef00013611a6f,2021-09-28_12h26.26.116,forced_choiceRT_color,2021.2.3,Win32,120.1923077,,,,,,,,4,Fast,long,k,1,1.492,6,3,27,3,1,,,,,
0.94,,,,,,,,,f,blue,5db103ed236ef00013611a6f,2021-09-28_12h26.26.116,forced_choiceRT_color,2021.2.3,Win32,120.1923077,,,,,,,,4,Fast,long,f,1,1.842,7,0,28,1,1,,,,,
0.21,,,,,,,,,j,red,5db103ed236ef00013611a6f,2021-09-28_12h26.26.116,forced_choiceRT_color,2021.2.3,Win32,120.1923077,,,,,,,,4,Fast,long,j,1,1.818,7,1,29,2,1,,,,,
0.45,,,,,,,,,f,blue,5db103ed236ef00013611a6f,2021-09-28_12h26.26.116,forced_choiceRT_color,2021.2.3,Win32,120.1923077,,,,,,,,4,Ontime,long,j,0,1.942,7,2,30,1,1,,,,,
0.64,,,,,,,,,k,purple,5db103ed236ef00013611a6f,2021-09-28_12h26.26.116,forced_choiceRT_color,2021.2.3,Win32,120.1923077,,,,,,,,4,Ontime,long,k,1,1.954,7,3,31,3,1,,,,,
1.11,,,,,,,,,j,red,5db103ed236ef00013611a6f,2021-09-28_12h26.26.116,forced_choiceRT_color,2021.2.3,Win32,120.1923077,,,,,,,,4,Ontime,long,j,1,2.036,8,0,32,2,1,,,,,
0.15,,,,,,,,,d,orange,5db103ed236ef00013611a6f,2021-09-28_12h26.26.116,forced_choiceRT_color,2021.2.3,Win32,120.1923077,,,,,,,,4,Ontime,long,f,0,1.95,8,1,33,0,1,,,,,
1.74,,,,,,,,,j,red,5db103ed236ef00013611a6f,2021-09-28_12h26.26.116,forced_choiceRT_color,2021.2.3,Win32,120.1923077,,,,,,,,4,Slow,long,k,0,2.259,8,2,34,2,1,,,,,
1.31,,,,,,,,,k,purple,5db103ed236ef00013611a6f,2021-09-28_12h26.26.116,forced_choiceRT_color,2021.2.3,Win32,120.1923077,,,,,,,,4,Ontime,long,k,1,2.067,8,3,35,3,1,,,,,
0.94,,,,,,,,,d,orange,5db103ed236ef00013611a6f,2021-09-28_12h26.26.116,forced_choiceRT_color,2021.2.3,Win32,120.1923077,,,,,,,,4,Ontime,long,d,1,1.966,9,0,36,0,1,,,,,
0.62,,,,,,,,,k,purple,5db103ed236ef00013611a6f,2021-09-28_12h26.26.116,forced_choiceRT_color,2021.2.3,Win32,120.1923077,,,,,,,,4,Slow,long,k,1,2.142,9,1,37,3,1,,,,,
0.05,,,,,,,,,f,blue,5db103ed236ef00013611a6f,2021-09-28_12h26.26.116,forced_choiceRT_color,2021.2.3,Win32,120.1923077,,,,,,,,4,Ontime,long,f,1,1.954,9,2,38,1,1,,,,,
1.41,,,,,,,,,j,red,5db103ed236ef00013611a6f,2021-09-28_12h26.26.116,forced_choiceRT_color,2021.2.3,Win32,120.1923077,,,,,,,,4,Ontime,long,j,1,2.099,9,3,39,2,1,,,,,
,,,,,,,,,,,5db103ed236ef00013611a6f,2021-09-28_12h26.26.116,forced_choiceRT_color,2021.2.3,Win32,120.1923077,,,,,,,,,,,,,,,,,,,3,0,3,0,1
1.48,,,,,,,,,j,red,5db103ed236ef00013611a6f,2021-09-28_12h26.26.116,forced_choiceRT_color,2021.2.3,Win32,120.1923077,,,,,,,,5,Slow,long,d,0,2.362,0,0,0,2,1,,,,,
0.57,,,,,,,,,d,orange,5db103ed236ef00013611a6f,2021-09-28_12h26.26.116,forced_choiceRT_color,2021.2.3,Win32,120.1923077,,,,,,,,5,Ontime,long,d,1,1.952,0,1,1,0,1,,,,,
0.71,,,,,,,,,j,red,5db103ed236ef00013611a6f,2021-09-28_12h26.26.116,forced_choiceRT_color,2021.2.3,Win32,120.1923077,,,,,,,,5,Fast,long,j,1,1.792,0,2,2,2,1,,,,,
0.97,,,,,,,,,j,red,5db103ed236ef00013611a6f,2021-09-28_12h26.26.116,forced_choiceRT_color,2021.2.3,Win32,120.1923077,,,,,,,,5,Ontime,long,f,0,1.983,0,3,3,2,1,,,,,
0.89,,,,,,,,,j,red,5db103ed236ef00013611a6f,2021-09-28_12h26.26.116,forced_choiceRT_color,2021.2.3,Win32,120.1923077,,,,,,,,5,Ontime,long,j,1,1.961,1,0,4,2,1,,,,,
0.37,,,,,,,,,k,purple,5db103ed236ef00013611a6f,2021-09-28_12h26.26.116,forced_choiceRT_color,2021.2.3,Win32,120.1923077,,,,,,,,5,Fast,long,k,1,1.859,1,1,5,3,1,,,,,
0.95,,,,,,,,,j,red,5db103ed236ef00013611a6f,2021-09-28_12h26.26.116,forced_choiceRT_color,2021.2.3,Win32,120.1923077,,,,,,,,5,Fast,long,j,1,1.867,1,2,6,2,1,,,,,
1.72,,,,,,,,,d,orange,5db103ed236ef00013611a6f,2021-09-28_12h26.26.116,forced_choiceRT_color,2021.2.3,Win32,120.1923077,,,,,,,,5,Slow,long,d,1,2.177,1,3,7,0,1,,,,,
0.72,,,,,,,,,f,blue,5db103ed236ef00013611a6f,2021-09-28_12h26.26.116,forced_choiceRT_color,2021.2.3,Win32,120.1923077,,,,,,,,5,Fast,long,j,0,1.893,2,0,8,1,1,,,,,
0.67,,,,,,,,,j,red,5db103ed236ef00013611a6f,2021-09-28_12h26.26.116,forced_choiceRT_color,2021.2.3,Win32,120.1923077,,,,,,,,5,Fast,long,k,0,1.708,2,1,9,2,1,,,,,
1.38,,,,,,,,,f,blue,5db103ed236ef00013611a6f,2021-09-28_12h26.26.116,forced_choiceRT_color,2021.2.3,Win32,120.1923077,,,,,,,,5,Slow,long,f,1,2.109,2,2,10,1,1,,,,,
0.48,,,,,,,,,d,orange,5db103ed236ef00013611a6f,2021-09-28_12h26.26.116,forced_choiceRT_color,2021.2.3,Win32,120.1923077,,,,,,,,5,Ontime,long,d,1,1.941,2,3,11,0,1,,,,,
0.89,,,,,,,,,k,purple,5db103ed236ef00013611a6f,2021-09-28_12h26.26.116,forced_choiceRT_color,2021.2.3,Win32,120.1923077,,,,,,,,5,Fast,long,k,1,1.87,3,0,12,3,1,,,,,
1.46,,,,,,,,,k,purple,5db103ed236ef00013611a6f,2021-09-28_12h26.26.116,forced_choiceRT_color,2021.2.3,Win32,120.1923077,,,,,,,,5,Fast,long,k,1,1.817,3,1,13,3,1,,,,,
0.98,,,,,,,,,d,orange,5db103ed236ef00013611a6f,2021-09-28_12h26.26.116,forced_choiceRT_color,2021.2.3,Win32,120.1923077,,,,,,,,5,Ontime,long,d,1,2.027,3,2,14,0,1,,,,,
1.47,,,,,,,,,d,orange,5db103ed236ef00013611a6f,2021-09-28_12h26.26.116,forced_choiceRT_color,2021.2.3,Win32,120.1923077,,,,,,,,5,Ontime,long,d,1,1.945,3,3,15,0,1,,,,,
0.4,,,,,,,,,k,purple,5db103ed236ef00013611a6f,2021-09-28_12h26.26.116,forced_choiceRT_color,2021.2.3,Win32,120.1923077,,,,,,,,5,Fast,long,k,1,1.868,4,0,16,3,1,,,,,
1.06,,,,,,,,,k,purple,5db103ed236ef00013611a6f,2021-09-28_12h26.26.116,forced_choiceRT_color,2021.2.3,Win32,120.1923077,,,,,,,,5,Ontime,long,k,1,1.985,4,1,17,3,1,,,,,
0.49,,,,,,,,,f,blue,5db103ed236ef00013611a6f,2021-09-28_12h26.26.116,forced_choiceRT_color,2021.2.3,Win32,120.1923077,,,,,,,,5,Ontime,long,f,1,1.984,4,2,18,1,1,,,,,
1.09,,,,,,,,,d,orange,5db103ed236ef00013611a6f,2021-09-28_12h26.26.116,forced_choiceRT_color,2021.2.3,Win32,120.1923077,,,,,,,,5,Ontime,long,d,1,1.993,4,3,19,0,1,,,,,
1.53,,,,,,,,,j,red,5db103ed236ef00013611a6f,2021-09-28_12h26.26.116,forced_choiceRT_color,2021.2.3,Win32,120.1923077,,,,,,,,5,Ontime,long,d,0,2.026,5,0,20,2,1,,,,,
1.61,,,,,,,,,d,orange,5db103ed236ef00013611a6f,2021-09-28_12h26.26.116,forced_choiceRT_color,2021.2.3,Win32,120.1923077,,,,,,,,5,Ontime,long,k,0,1.993,5,1,21,0,1,,,,,
0.98,,,,,,,,,j,red,5db103ed236ef00013611a6f,2021-09-28_12h26.26.116,forced_choiceRT_color,2021.2.3,Win32,120.1923077,,,,,,,,5,Fast,long,k,0,1.893,5,2,22,2,1,,,,,
0.5,,,,,,,,,d,orange,5db103ed236ef00013611a6f,2021-09-28_12h26.26.116,forced_choiceRT_color,2021.2.3,Win32,120.1923077,,,,,,,,5,Ontime,long,d,1,1.925,5,3,23,0,1,,,,,
1.58,,,,,,,,,k,purple,5db103ed236ef00013611a6f,2021-09-28_12h26.26.116,forced_choiceRT_color,2021.2.3,Win32,120.1923077,,,,,,,,5,Slow,long,k,1,2.209,6,0,24,3,1,,,,,
0.47,,,,,,,,,f,blue,5db103ed236ef00013611a6f,2021-09-28_12h26.26.116,forced_choiceRT_color,2021.2.3,Win32,120.1923077,,,,,,,,5,Fast,long,f,1,1.72,6,1,25,1,1,,,,,
0.44,,,,,,,,,k,purple,5db103ed236ef00013611a6f,2021-09-28_12h26.26.116,forced_choiceRT_color,2021.2.3,Win32,120.1923077,,,,,,,,5,Ontime,long,k,1,2.041,6,2,26,3,1,,,,,
0.1,,,,,,,,,k,purple,5db103ed236ef00013611a6f,2021-09-28_12h26.26.116,forced_choiceRT_color,2021.2.3,Win32,120.1923077,,,,,,,,5,Ontime,long,k,1,1.932,6,3,27,3,1,,,,,
1.22,,,,,,,,,f,blue,5db103ed236ef00013611a6f,2021-09-28_12h26.26.116,forced_choiceRT_color,2021.2.3,Win32,120.1923077,,,,,,,,5,Ontime,long,f,1,2.069,7,0,28,1,1,,,,,
0.18,,,,,,,,,k,purple,5db103ed236ef00013611a6f,2021-09-28_12h26.26.116,forced_choiceRT_color,2021.2.3,Win32,120.1923077,,,,,,,,5,Ontime,long,j,0,2.011,7,1,29,3,1,,,,,
0.23,,,,,,,,,d,orange,5db103ed236ef00013611a6f,2021-09-28_12h26.26.116,forced_choiceRT_color,2021.2.3,Win32,120.1923077,,,,,,,,5,Ontime,long,d,1,1.959,7,2,30,0,1,,,,,
0.45,,,,,,,,,f,blue,5db103ed236ef00013611a6f,2021-09-28_12h26.26.116,forced_choiceRT_color,2021.2.3,Win32,120.1923077,,,,,,,,5,Ontime,long,j,0,2.002,7,3,31,1,1,,,,,
1.71,,,,,,,,,f,blue,5db103ed236ef00013611a6f,2021-09-28_12h26.26.116,forced_choiceRT_color,2021.2.3,Win32,120.1923077,,,,,,,,5,Slow,long,f,1,2.176,8,0,32,1,1,,,,,
1.94,,,,,,,,,f,blue,5db103ed236ef00013611a6f,2021-09-28_12h26.26.116,forced_choiceRT_color,2021.2.3,Win32,120.1923077,,,,,,,,5,Ontime,long,k,0,2.025,8,1,33,1,1,,,,,
1.44,,,,,,,,,f,blue,5db103ed236ef00013611a6f,2021-09-28_12h26.26.116,forced_choiceRT_color,2021.2.3,Win32,120.1923077,,,,,,,,5,Ontime,long,j,0,1.958,8,2,34,1,1,,,,,
1.68,,,,,,,,,k,purple,5db103ed236ef00013611a6f,2021-09-28_12h26.26.116,forced_choiceRT_color,2021.2.3,Win32,120.1923077,,,,,,,,5,Ontime,long,f,0,1.983,8,3,35,3,1,,,,,
1.01,,,,,,,,,j,red,5db103ed236ef00013611a6f,2021-09-28_12h26.26.116,forced_choiceRT_color,2021.2.3,Win32,120.1923077,,,,,,,,5,Ontime,long,k,0,1.958,9,0,36,2,1,,,,,
1.13,,,,,,,,,j,red,5db103ed236ef00013611a6f,2021-09-28_12h26.26.116,forced_choiceRT_color,2021.2.3,Win32,120.1923077,,,,,,,,5,Fast,long,j,1,1.725,9,1,37,2,1,,,,,
0.47,,,,,,,,,d,orange,5db103ed236ef00013611a6f,2021-09-28_12h26.26.116,forced_choiceRT_color,2021.2.3,Win32,120.1923077,,,,,,,,5,Ontime,long,d,1,1.976,9,2,38,0,1,,,,,
0.91,,,,,,,,,f,blue,5db103ed236ef00013611a6f,2021-09-28_12h26.26.116,forced_choiceRT_color,2021.2.3,Win32,120.1923077,,,,,,,,5,Ontime,long,f,1,2.012,9,3,39,1,1,,,,,
,,,,,,,,,,,5db103ed236ef00013611a6f,2021-09-28_12h26.26.116,forced_choiceRT_color,2021.2.3,Win32,120.1923077,,,,,,,,,,,,,,,,,,,4,0,4,0,1
1.25,,,,,,,,,d,orange,5db103ed236ef00013611a6f,2021-09-28_12h26.26.116,forced_choiceRT_color,2021.2.3,Win32,120.1923077,,,,,,,,6,Slow,long,j,0,2.105,0,0,0,0,1,,,,,
0.1,,,,,,,,,j,red,5db103ed236ef00013611a6f,2021-09-28_12h26.26.116,forced_choiceRT_color,2021.2.3,Win32,120.1923077,,,,,,,,6,Ontime,long,j,1,1.995,0,1,1,2,1,,,,,
1.23,,,,,,,,,j,red,5db103ed236ef00013611a6f,2021-09-28_12h26.26.116,forced_choiceRT_color,2021.2.3,Win32,120.1923077,,,,,,,,6,Ontime,long,j,1,2.037,0,2,2,2,1,,,,,
1,,,,,,,,,j,red,5db103ed236ef00013611a6f,2021-09-28_12h26.26.116,forced_choiceRT_color,2021.2.3,Win32,120.1923077,,,,,,,,6,Ontime,long,j,1,1.988,0,3,3,2,1,,,,,
0.69,,,,,,,,,k,purple,5db103ed236ef00013611a6f,2021-09-28_12h26.26.116,forced_choiceRT_color,2021.2.3,Win32,120.1923077,,,,,,,,6,Ontime,long,k,1,1.968,1,0,4,3,1,,,,,
1.28,,,,,,,,,f,blue,5db103ed236ef00013611a6f,2021-09-28_12h26.26.116,forced_choiceRT_color,2021.2.3,Win32,120.1923077,,,,,,,,6,Slow,long,f,1,2.169,1,1,5,1,1,,,,,
1.2,,,,,,,,,d,orange,5db103ed236ef00013611a6f,2021-09-28_12h26.26.116,forced_choiceRT_color,2021.2.3,Win32,120.1923077,,,,,,,,6,Fast,long,d,1,1.867,1,2,6,0,1,,,,,
1.06,,,,,,,,,k,purple,5db103ed236ef00013611a6f,2021-09-28_12h26.26.116,forced_choiceRT_color,2021.2.3,Win32,120.1923077,,,,,,,,6,Ontime,long,k,1,1.953,1,3,7,3,1,,,,,
1.34,,,,,,,,,d,orange,5db103ed236ef00013611a6f,2021-09-28_12h26.26.116,forced_choiceRT_color,2021.2.3,Win32,120.1923077,,,,,,,,6,Ontime,long,d,1,2.051,2,0,8,0,1,,,,,
1.18,,,,,,,,,d,orange,5db103ed236ef00013611a6f,2021-09-28_12h26.26.116,forced_choiceRT_color,2021.2.3,Win32,120.1923077,,,,,,,,6,Ontime,long,d,1,2.009,2,1,9,0,1,,,,,
0.62,,,,,,,,,d,orange,5db103ed236ef00013611a6f,2021-09-28_12h26.26.116,forced_choiceRT_color,2021.2.3,Win32,120.1923077,,,,,,,,6,Ontime,long,d,1,1.996,2,2,10,0,1,,,,,
0.43,,,,,,,,,f,blue,5db103ed236ef00013611a6f,2021-09-28_12h26.26.116,forced_choiceRT_color,2021.2.3,Win32,120.1923077,,,,,,,,6,Ontime,long,f,1,1.959,2,3,11,1,1,,,,,
0.98,,,,,,,,,d,orange,5db103ed236ef00013611a6f,2021-09-28_12h26.26.116,forced_choiceRT_color,2021.2.3,Win32,120.1923077,,,,,,,,6,Ontime,long,d,1,2.035,3,0,12,0,1,,,,,
1.1,,,,,,,,,k,purple,5db103ed236ef00013611a6f,2021-09-28_12h26.26.116,forced_choiceRT_color,2021.2.3,Win32,120.1923077,,,,,,,,6,Ontime,long,k,1,2.075,3,1,13,3,1,,,,,
1.8,,,,,,,,,j,red,5db103ed236ef00013611a6f,2021-09-28_12h26.26.116,forced_choiceRT_color,2021.2.3,Win32,120.1923077,,,,,,,,6,Slow,long,j,1,2.212,3,2,14,2,1,,,,,
1.43,,,,,,,,,k,purple,5db103ed236ef00013611a6f,2021-09-28_12h26.26.116,forced_choiceRT_color,2021.2.3,Win32,120.1923077,,,,,,,,6,Ontime,long,d,0,1.992,3,3,15,3,1,,,,,
0.91,,,,,,,,,f,blue,5db103ed236ef00013611a6f,2021-09-28_12h26.26.116,forced_choiceRT_color,2021.2.3,Win32,120.1923077,,,,,,,,6,Fast,long,f,1,1.584,4,0,16,1,1,,,,,
1.58,,,,,,,,,j,red,5db103ed236ef00013611a6f,2021-09-28_12h26.26.116,forced_choiceRT_color,2021.2.3,Win32,120.1923077,,,,,,,,6,Slow,long,j,1,2.284,4,1,17,2,1,,,,,
0.84,,,,,,,,,f,blue,5db103ed236ef00013611a6f,2021-09-28_12h26.26.116,forced_choiceRT_color,2021.2.3,Win32,120.1923077,,,,,,,,6,Ontime,long,f,1,2.058,4,2,18,1,1,,,,,
1.74,,,,,,,,,d,orange,5db103ed236ef00013611a6f,2021-09-28_12h26.26.116,forced_choiceRT_color,2021.2.3,Win32,120.1923077,,,,,,,,6,Slow,long,j,0,2.11,4,3,19,0,1,,,,,
1.18,,,,,,,,,f,blue,5db103ed236ef00013611a6f,2021-09-28_12h26.26.116,forced_choiceRT_color,2021.2.3,Win32,120.1923077,,,,,,,,6,Ontime,long,f,1,1.96,5,0,20,1,1,,,,,
0.49,,,,,,,,,k,purple,5db103ed236ef00013611a6f,2021-09-28_12h26.26.116,forced_choiceRT_color,2021.2.3,Win32,120.1923077,,,,,,,,6,Ontime,long,k,1,2.045,5,1,21,3,1,,,,,
1.66,,,,,,,,,j,red,5db103ed236ef00013611a6f,2021-09-28_12h26.26.116,forced_choiceRT_color,2021.2.3,Win32,120.1923077,,,,,,,,6,Slow,long,j,1,2.317,5,2,22,2,1,,,,,
0.33,,,,,,,,,k,purple,5db103ed236ef00013611a6f,2021-09-28_12h26.26.116,forced_choiceRT_color,2021.2.3,Win32,120.1923077,,,,,,,,6,Slow,long,k,1,2.135,5,3,23,3,1,,,,,
0.16,,,,,,,,,f,blue,5db103ed236ef00013611a6f,2021-09-28_12h26.26.116,forced_choiceRT_color,2021.2.3,Win32,120.1923077,,,,,,,,6,Ontime,long,f,1,1.938,6,0,24,1,1,,,,,
0.95,,,,,,,,,f,blue,5db103ed236ef00013611a6f,2021-09-28_12h26.26.116,forced_choiceRT_color,2021.2.3,Win32,120.1923077,,,,,,,,6,Ontime,long,f,1,1.959,6,1,25,1,1,,,,,
0.51,,,,,,,,,f,blue,5db103ed236ef00013611a6f,2021-09-28_12h26.26.116,forced_choiceRT_color,2021.2.3,Win32,120.1923077,,,,,,,,6,Ontime,long,f,1,1.992,6,2,26,1,1,,,,,
0.03,,,,,,,,,f,blue,5db103ed236ef00013611a6f,2021-09-28_12h26.26.116,forced_choiceRT_color,2021.2.3,Win32,120.1923077,,,,,,,,6,Ontime,long,f,1,1.966,6,3,27,1,1,,,,,
1.15,,,,,,,,,k,purple,5db103ed236ef00013611a6f,2021-09-28_12h26.26.116,forced_choiceRT_color,2021.2.3,Win32,120.1923077,,,,,,,,6,Ontime,long,k,1,2.012,7,0,28,3,1,,,,,
1.01,,,,,,,,,j,red,5db103ed236ef00013611a6f,2021-09-28_12h26.26.116,forced_choiceRT_color,2021.2.3,Win32,120.1923077,,,,,,,,6,Ontime,long,f,0,1.96,7,1,29,2,1,,,,,
0.51,,,,,,,,,j,red,5db103ed236ef00013611a6f,2021-09-28_12h26.26.116,forced_choiceRT_color,2021.2.3,Win32,120.1923077,,,,,,,,6,Ontime,long,j,1,2.053,7,2,30,2,1,,,,,
1.27,,,,,,,,,k,purple,5db103ed236ef00013611a6f,2021-09-28_12h26.26.116,forced_choiceRT_color,2021.2.3,Win32,120.1923077,,,,,,,,6,Fast,long,k,1,1.876,7,3,31,3,1,,,,,
1.76,,,,,,,,,j,red,5db103ed236ef00013611a6f,2021-09-28_12h26.26.116,forced_choiceRT_color,2021.2.3,Win32,120.1923077,,,,,,,,6,Slow,long,f,0,2.851,8,0,32,2,1,,,,,
1.64,,,,,,,,,d,orange,5db103ed236ef00013611a6f,2021-09-28_12h26.26.116,forced_choiceRT_color,2021.2.3,Win32,120.1923077,,,,,,,,6,Slow,long,d,1,2.176,8,1,33,0,1,,,,,
0.4,,,,,,,,,k,purple,5db103ed236ef00013611a6f,2021-09-28_12h26.26.116,forced_choiceRT_color,2021.2.3,Win32,120.1923077,,,,,,,,6,Ontime,long,k,1,1.926,8,2,34,3,1,,,,,
0.96,,,,,,,,,f,blue,5db103ed236ef00013611a6f,2021-09-28_12h26.26.116,forced_choiceRT_color,2021.2.3,Win32,120.1923077,,,,,,,,6,Ontime,long,f,1,1.994,8,3,35,1,1,,,,,
0.31,,,,,,,,,d,orange,5db103ed236ef00013611a6f,2021-09-28_12h26.26.116,forced_choiceRT_color,2021.2.3,Win32,120.1923077,,,,,,,,6,Ontime,long,d,1,1.995,9,0,36,0,1,,,,,
1.13,,,,,,,,,k,purple,5db103ed236ef00013611a6f,2021-09-28_12h26.26.116,forced_choiceRT_color,2021.2.3,Win32,120.1923077,,,,,,,,6,Fast,long,j,0,1.751,9,1,37,3,1,,,,,
0.2,,,,,,,,,d,orange,5db103ed236ef00013611a6f,2021-09-28_12h26.26.116,forced_choiceRT_color,2021.2.3,Win32,120.1923077,,,,,,,,6,Ontime,long,d,1,1.96,9,2,38,0,1,,,,,
0.7,,,,,,,,,j,red,5db103ed236ef00013611a6f,2021-09-28_12h26.26.116,forced_choiceRT_color,2021.2.3,Win32,120.1923077,,,,,,,,6,Ontime,long,j,1,2.036,9,3,39,2,1,,,,,
,,,,,,,,,,,5db103ed236ef00013611a6f,2021-09-28_12h26.26.116,forced_choiceRT_color,2021.2.3,Win32,120.1923077,,,,,,,,,,,,,,,,,,,5,0,5,0,1
1.39,,,,,,,,,j,red,5db103ed236ef00013611a6f,2021-09-28_12h26.26.116,forced_choiceRT_color,2021.2.3,Win32,120.1923077,,,,,,,,7,Ontime,long,j,1,1.956,0,0,0,2,1,,,,,
0.96,,,,,,,,,d,orange,5db103ed236ef00013611a6f,2021-09-28_12h26.26.116,forced_choiceRT_color,2021.2.3,Win32,120.1923077,,,,,,,,7,Fast,long,d,1,1.871,0,1,1,0,1,,,,,
1.08,,,,,,,,,j,red,5db103ed236ef00013611a6f,2021-09-28_12h26.26.116,forced_choiceRT_color,2021.2.3,Win32,120.1923077,,,,,,,,7,Slow,long,j,1,2.119,0,2,2,2,1,,,,,
1.2,,,,,,,,,d,orange,5db103ed236ef00013611a6f,2021-09-28_12h26.26.116,forced_choiceRT_color,2021.2.3,Win32,120.1923077,,,,,,,,7,Ontime,long,f,0,2.018,0,3,3,0,1,,,,,
1,,,,,,,,,d,orange,5db103ed236ef00013611a6f,2021-09-28_12h26.26.116,forced_choiceRT_color,2021.2.3,Win32,120.1923077,,,,,,,,7,Ontime,long,d,1,2.068,1,0,4,0,1,,,,,
0.68,,,,,,,,,f,blue,5db103ed236ef00013611a6f,2021-09-28_12h26.26.116,forced_choiceRT_color,2021.2.3,Win32,120.1923077,,,,,,,,7,Fast,long,f,1,1.776,1,1,5,1,1,,,,,
0.08,,,,,,,,,k,purple,5db103ed236ef00013611a6f,2021-09-28_12h26.26.116,forced_choiceRT_color,2021.2.3,Win32,120.1923077,,,,,,,,7,Ontime,long,k,1,1.984,1,2,6,3,1,,,,,
0.24,,,,,,,,,j,red,5db103ed236ef00013611a6f,2021-09-28_12h26.26.116,forced_choiceRT_color,2021.2.3,Win32,120.1923077,,,,,,,,7,Ontime,long,f,0,2.093,1,3,7,2,1,,,,,
1.01,,,,,,,,,f,blue,5db103ed236ef00013611a6f,2021-09-28_12h26.26.116,forced_choiceRT_color,2021.2.3,Win32,120.1923077,,,,,,,,7,Ontime,long,f,1,1.958,2,0,8,1,1,,,,,
1.11,,,,,,,,,k,purple,5db103ed236ef00013611a6f,2021-09-28_12h26.26.116,forced_choiceRT_color,2021.2.3,Win32,120.1923077,,,,,,,,7,Ontime,long,k,1,2.021,2,1,9,3,1,,,,,
1.69,,,,,,,,,k,purple,5db103ed236ef00013611a6f,2021-09-28_12h26.26.116,forced_choiceRT_color,2021.2.3,Win32,120.1923077,,,,,,,,7,Slow,long,k,1,2.117,2,2,10,3,1,,,,,
0.79,,,,,,,,,f,blue,5db103ed236ef00013611a6f,2021-09-28_12h26.26.116,forced_choiceRT_color,2021.2.3,Win32,120.1923077,,,,,,,,7,Fast,long,f,1,1.785,2,3,11,1,1,,,,,
0.72,,,,,,,,,f,blue,5db103ed236ef00013611a6f,2021-09-28_12h26.26.116,forced_choiceRT_color,2021.2.3,Win32,120.1923077,,,,,,,,7,Ontime,long,f,1,1.961,3,0,12,1,1,,,,,
0.07,,,,,,,,,d,orange,5db103ed236ef00013611a6f,2021-09-28_12h26.26.116,forced_choiceRT_color,2021.2.3,Win32,120.1923077,,,,,,,,7,Ontime,long,d,1,1.933,3,1,13,0,1,,,,,
1.39,,,,,,,,,k,purple,5db103ed236ef00013611a6f,2021-09-28_12h26.26.116,forced_choiceRT_color,2021.2.3,Win32,120.1923077,,,,,,,,7,Slow,long,k,1,2.158,3,2,14,3,1,,,,,
0.37,,,,,,,,,f,blue,5db103ed236ef00013611a6f,2021-09-28_12h26.26.116,forced_choiceRT_color,2021.2.3,Win32,120.1923077,,,,,,,,7,Ontime,long,j,0,1.983,3,3,15,1,1,,,,,
0.3,,,,,,,,,j,red,5db103ed236ef00013611a6f,2021-09-28_12h26.26.116,forced_choiceRT_color,2021.2.3,Win32,120.1923077,,,,,,,,7,Ontime,long,j,1,1.984,4,0,16,2,1,,,,,
0.17,,,,,,,,,j,red,5db103ed236ef00013611a6f,2021-09-28_12h26.26.116,forced_choiceRT_color,2021.2.3,Win32,120.1923077,,,,,,,,7,Slow,long,j,1,2.127,4,1,17,2,1,,,,,
0.06,,,,,,,,,j,red,5db103ed236ef00013611a6f,2021-09-28_12h26.26.116,forced_choiceRT_color,2021.2.3,Win32,120.1923077,,,,,,,,7,Ontime,long,j,1,2.041,4,2,18,2,1,,,,,
0.12,,,,,,,,,f,blue,5db103ed236ef00013611a6f,2021-09-28_12h26.26.116,forced_choiceRT_color,2021.2.3,Win32,120.1923077,,,,,,,,7,Ontime,long,f,1,2,4,3,19,1,1,,,,,
1.73,,,,,,,,,k,purple,5db103ed236ef00013611a6f,2021-09-28_12h26.26.116,forced_choiceRT_color,2021.2.3,Win32,120.1923077,,,,,,,,7,Slow,long,k,1,2.258,5,0,20,3,1,,,,,
1.66,,,,,,,,,f,blue,5db103ed236ef00013611a6f,2021-09-28_12h26.26.116,forced_choiceRT_color,2021.2.3,Win32,120.1923077,,,,,,,,7,Slow,long,j,0,2.342,5,1,21,1,1,,,,,
1.57,,,,,,,,,j,red,5db103ed236ef00013611a6f,2021-09-28_12h26.26.116,forced_choiceRT_color,2021.2.3,Win32,120.1923077,,,,,,,,7,Ontime,long,d,0,2.026,5,2,22,2,1,,,,,
1.74,,,,,,,,,k,purple,5db103ed236ef00013611a6f,2021-09-28_12h26.26.116,forced_choiceRT_color,2021.2.3,Win32,120.1923077,,,,,,,,7,Slow,long,k,1,2.301,5,3,23,3,1,,,,,
0.93,,,,,,,,,d,orange,5db103ed236ef00013611a6f,2021-09-28_12h26.26.116,forced_choiceRT_color,2021.2.3,Win32,120.1923077,,,,,,,,7,Fast,long,j,0,1.651,6,0,24,0,1,,,,,
0.07,,,,,,,,,k,purple,5db103ed236ef00013611a6f,2021-09-28_12h26.26.116,forced_choiceRT_color,2021.2.3,Win32,120.1923077,,,,,,,,7,Fast,long,j,0,1.784,6,1,25,3,1,,,,,
1.95,,,,,,,,,j,red,5db103ed236ef00013611a6f,2021-09-28_12h26.26.116,forced_choiceRT_color,2021.2.3,Win32,120.1923077,,,,,,,,7,Slow,long,j,1,2.158,6,2,26,2,1,,,,,
1.02,,,,,,,,,j,red,5db103ed236ef00013611a6f,2021-09-28_12h26.26.116,forced_choiceRT_color,2021.2.3,Win32,120.1923077,,,,,,,,7,Ontime,long,j,1,1.943,6,3,27,2,1,,,,,
0.03,,,,,,,,,j,red,5db103ed236ef00013611a6f,2021-09-28_12h26.26.116,forced_choiceRT_color,2021.2.3,Win32,120.1923077,,,,,,,,7,Ontime,long,j,1,2.027,7,0,28,2,1,,,,,
1.94,,,,,,,,,k,purple,5db103ed236ef00013611a6f,2021-09-28_12h26.26.116,forced_choiceRT_color,2021.2.3,Win32,120.1923077,,,,,,,,7,Slow,long,k,1,2.158,7,1,29,3,1,,,,,
0.16,,,,,,,,,d,orange,5db103ed236ef00013611a6f,2021-09-28_12h26.26.116,forced_choiceRT_color,2021.2.3,Win32,120.1923077,,,,,,,,7,Ontime,long,d,1,1.962,7,2,30,0,1,,,,,
0.53,,,,,,,,,k,purple,5db103ed236ef00013611a6f,2021-09-28_12h26.26.116,forced_choiceRT_color,2021.2.3,Win32,120.1923077,,,,,,,,7,Ontime,long,k,1,2.052,7,3,31,3,1,,,,,
0.9,,,,,,,,,f,blue,5db103ed236ef00013611a6f,2021-09-28_12h26.26.116,forced_choiceRT_color,2021.2.3,Win32,120.1923077,,,,,,,,7,Ontime,long,f,1,2.026,8,0,32,1,1,,,,,
1.18,,,,,,,,,d,orange,5db103ed236ef00013611a6f,2021-09-28_12h26.26.116,forced_choiceRT_color,2021.2.3,Win32,120.1923077,,,,,,,,7,Ontime,long,d,1,1.994,8,1,33,0,1,,,,,
0.98,,,,,,,,,f,blue,5db103ed236ef00013611a6f,2021-09-28_12h26.26.116,forced_choiceRT_color,2021.2.3,Win32,120.1923077,,,,,,,,7,Ontime,long,k,0,2.043,8,2,34,1,1,,,,,
0.12,,,,,,,,,d,orange,5db103ed236ef00013611a6f,2021-09-28_12h26.26.116,forced_choiceRT_color,2021.2.3,Win32,120.1923077,,,,,,,,7,Ontime,long,d,1,2.017,8,3,35,0,1,,,,,
0.51,,,,,,,,,d,orange,5db103ed236ef00013611a6f,2021-09-28_12h26.26.116,forced_choiceRT_color,2021.2.3,Win32,120.1923077,,,,,,,,7,Ontime,long,d,1,1.985,9,0,36,0,1,,,,,
1.41,,,,,,,,,f,blue,5db103ed236ef00013611a6f,2021-09-28_12h26.26.116,forced_choiceRT_color,2021.2.3,Win32,120.1923077,,,,,,,,7,Ontime,long,j,0,2.051,9,1,37,1,1,,,,,
1.92,,,,,,,,,k,purple,5db103ed236ef00013611a6f,2021-09-28_12h26.26.116,forced_choiceRT_color,2021.2.3,Win32,120.1923077,,,,,,,,7,Slow,long,d,0,2.243,9,2,38,3,1,,,,,
0.06,,,,,,,,,d,orange,5db103ed236ef00013611a6f,2021-09-28_12h26.26.116,forced_choiceRT_color,2021.2.3,Win32,120.1923077,,,,,,,,7,Ontime,long,d,1,1.925,9,3,39,0,1,,,,,
,,,,,,,,,,,5db103ed236ef00013611a6f,2021-09-28_12h26.26.116,forced_choiceRT_color,2021.2.3,Win32,120.1923077,,,,,,,,,,,,,,,,,,,6,0,6,0,1
0.08,,,,,,,,,d,orange,5db103ed236ef00013611a6f,2021-09-28_12h26.26.116,forced_choiceRT_color,2021.2.3,Win32,120.1923077,,,,,,,,8,Ontime,long,d,1,2.056,0,0,0,0,1,,,,,
0.21,,,,,,,,,f,blue,5db103ed236ef00013611a6f,2021-09-28_12h26.26.116,forced_choiceRT_color,2021.2.3,Win32,120.1923077,,,,,,,,8,Ontime,long,f,1,1.969,0,1,1,1,1,,,,,
1.29,,,,,,,,,f,blue,5db103ed236ef00013611a6f,2021-09-28_12h26.26.116,forced_choiceRT_color,2021.2.3,Win32,120.1923077,,,,,,,,8,Slow,long,f,1,2.101,0,2,2,1,1,,,,,
0.41,,,,,,,,,f,blue,5db103ed236ef00013611a6f,2021-09-28_12h26.26.116,forced_choiceRT_color,2021.2.3,Win32,120.1923077,,,,,,,,8,Ontime,long,f,1,1.968,0,3,3,1,1,,,,,
1.4,,,,,,,,,j,red,5db103ed236ef00013611a6f,2021-09-28_12h26.26.116,forced_choiceRT_color,2021.2.3,Win32,120.1923077,,,,,,,,8,Ontime,long,d,0,2.026,1,0,4,2,1,,,,,
1.23,,,,,,,,,f,blue,5db103ed236ef00013611a6f,2021-09-28_12h26.26.116,forced_choiceRT_color,2021.2.3,Win32,120.1923077,,,,,,,,8,Ontime,long,f,1,2.025,1,1,5,1,1,,,,,
0.8,,,,,,,,,j,red,5db103ed236ef00013611a6f,2021-09-28_12h26.26.116,forced_choiceRT_color,2021.2.3,Win32,120.1923077,,,,,,,,8,Ontime,long,k,0,2.026,1,2,6,2,1,,,,,
1.73,,,,,,,,,j,red,5db103ed236ef00013611a6f,2021-09-28_12h26.26.116,forced_choiceRT_color,2021.2.3,Win32,120.1923077,,,,,,,,8,Slow,long,j,1,2.212,1,3,7,2,1,,,,,
0.65,,,,,,,,,k,purple,5db103ed236ef00013611a6f,2021-09-28_12h26.26.116,forced_choiceRT_color,2021.2.3,Win32,120.1923077,,,,,,,,8,Fast,long,k,1,1.9,2,0,8,3,1,,,,,
1.02,,,,,,,,,j,red,5db103ed236ef00013611a6f,2021-09-28_12h26.26.116,forced_choiceRT_color,2021.2.3,Win32,120.1923077,,,,,,,,8,Fast,long,j,1,1.819,2,1,9,2,1,,,,,
1.12,,,,,,,,,f,blue,5db103ed236ef00013611a6f,2021-09-28_12h26.26.116,forced_choiceRT_color,2021.2.3,Win32,120.1923077,,,,,,,,8,Ontime,long,d,0,1.936,2,2,10,1,1,,,,,
1.84,,,,,,,,,d,orange,5db103ed236ef00013611a6f,2021-09-28_12h26.26.116,forced_choiceRT_color,2021.2.3,Win32,120.1923077,,,,,,,,8,Ontime,long,j,0,2.1,2,3,11,0,1,,,,,
0.6,,,,,,,,,k,purple,5db103ed236ef00013611a6f,2021-09-28_12h26.26.116,forced_choiceRT_color,2021.2.3,Win32,120.1923077,,,,,,,,8,Ontime,long,k,1,1.953,3,0,12,3,1,,,,,
1.12,,,,,,,,,k,purple,5db103ed236ef00013611a6f,2021-09-28_12h26.26.116,forced_choiceRT_color,2021.2.3,Win32,120.1923077,,,,,,,,8,Fast,long,k,1,1.826,3,1,13,3,1,,,,,
1.02,,,,,,,,,k,purple,5db103ed236ef00013611a6f,2021-09-28_12h26.26.116,forced_choiceRT_color,2021.2.3,Win32,120.1923077,,,,,,,,8,Fast,long,k,1,1.827,3,2,14,3,1,,,,,
0.53,,,,,,,,,d,orange,5db103ed236ef00013611a6f,2021-09-28_12h26.26.116,forced_choiceRT_color,2021.2.3,Win32,120.1923077,,,,,,,,8,Ontime,long,d,1,1.985,3,3,15,0,1,,,,,
1.13,,,,,,,,,f,blue,5db103ed236ef00013611a6f,2021-09-28_12h26.26.116,forced_choiceRT_color,2021.2.3,Win32,120.1923077,,,,,,,,8,Fast,long,f,1,1.835,4,0,16,1,1,,,,,
1.21,,,,,,,,,d,orange,5db103ed236ef00013611a6f,2021-09-28_12h26.26.116,forced_choiceRT_color,2021.2.3,Win32,120.1923077,,,,,,,,8,Fast,long,d,1,1.791,4,1,17,0,1,,,,,
1.23,,,,,,,,,d,orange,5db103ed236ef00013611a6f,2021-09-28_12h26.26.116,forced_choiceRT_color,2021.2.3,Win32,120.1923077,,,,,,,,8,Fast,long,d,1,1.761,4,2,18,0,1,,,,,
0.78,,,,,,,,,f,blue,5db103ed236ef00013611a6f,2021-09-28_12h26.26.116,forced_choiceRT_color,2021.2.3,Win32,120.1923077,,,,,,,,8,Fast,long,f,1,1.337,4,3,19,1,1,,,,,
1.77,,,,,,,,,j,red,5db103ed236ef00013611a6f,2021-09-28_12h26.26.116,forced_choiceRT_color,2021.2.3,Win32,120.1923077,,,,,,,,8,Slow,long,k,0,2.128,5,0,20,2,1,,,,,
0.04,,,,,,,,,k,purple,5db103ed236ef00013611a6f,2021-09-28_12h26.26.116,forced_choiceRT_color,2021.2.3,Win32,120.1923077,,,,,,,,8,Ontime,long,k,1,1.919,5,1,21,3,1,,,,,
0.03,,,,,,,,,f,blue,5db103ed236ef00013611a6f,2021-09-28_12h26.26.116,forced_choiceRT_color,2021.2.3,Win32,120.1923077,,,,,,,,8,Ontime,long,f,1,1.908,5,2,22,1,1,,,,,
0.72,,,,,,,,,j,red,5db103ed236ef00013611a6f,2021-09-28_12h26.26.116,forced_choiceRT_color,2021.2.3,Win32,120.1923077,,,,,,,,8,Ontime,long,j,1,1.988,5,3,23,2,1,,,,,
0.23,,,,,,,,,d,orange,5db103ed236ef00013611a6f,2021-09-28_12h26.26.116,forced_choiceRT_color,2021.2.3,Win32,120.1923077,,,,,,,,8,Slow,long,d,1,2.128,6,0,24,0,1,,,,,
0.11,,,,,,,,,j,red,5db103ed236ef00013611a6f,2021-09-28_12h26.26.116,forced_choiceRT_color,2021.2.3,Win32,120.1923077,,,,,,,,8,Ontime,long,f,0,1.968,6,1,25,2,1,,,,,
1.45,,,,,,,,,k,purple,5db103ed236ef00013611a6f,2021-09-28_12h26.26.116,forced_choiceRT_color,2021.2.3,Win32,120.1923077,,,,,,,,8,Ontime,long,k,1,2.068,6,2,26,3,1,,,,,
0.3,,,,,,,,,f,blue,5db103ed236ef00013611a6f,2021-09-28_12h26.26.116,forced_choiceRT_color,2021.2.3,Win32,120.1923077,,,,,,,,8,Ontime,long,f,1,1.969,6,3,27,1,1,,,,,
1.6,,,,,,,,,k,purple,5db103ed236ef00013611a6f,2021-09-28_12h26.26.116,forced_choiceRT_color,2021.2.3,Win32,120.1923077,,,,,,,,8,Slow,long,k,1,2.227,7,0,28,3,1,,,,,
1.89,,,,,,,,,d,orange,5db103ed236ef00013611a6f,2021-09-28_12h26.26.116,forced_choiceRT_color,2021.2.3,Win32,120.1923077,,,,,,,,8,Slow,long,k,0,2.301,7,1,29,0,1,,,,,
1.13,,,,,,,,,d,orange,5db103ed236ef00013611a6f,2021-09-28_12h26.26.116,forced_choiceRT_color,2021.2.3,Win32,120.1923077,,,,,,,,8,Ontime,long,d,1,1.934,7,2,30,0,1,,,,,
0.59,,,,,,,,,j,red,5db103ed236ef00013611a6f,2021-09-28_12h26.26.116,forced_choiceRT_color,2021.2.3,Win32,120.1923077,,,,,,,,8,Ontime,long,j,1,1.975,7,3,31,2,1,,,,,
1.25,,,,,,,,,k,purple,5db103ed236ef00013611a6f,2021-09-28_12h26.26.116,forced_choiceRT_color,2021.2.3,Win32,120.1923077,,,,,,,,8,Fast,long,k,1,1.819,8,0,32,3,1,,,,,
0.09,,,,,,,,,d,orange,5db103ed236ef00013611a6f,2021-09-28_12h26.26.116,forced_choiceRT_color,2021.2.3,Win32,120.1923077,,,,,,,,8,Fast,long,f,0,1.661,8,1,33,0,1,,,,,
1.27,,,,,,,,,d,orange,5db103ed236ef00013611a6f,2021-09-28_12h26.26.116,forced_choiceRT_color,2021.2.3,Win32,120.1923077,,,,,,,,8,Ontime,long,d,1,2.002,8,2,34,0,1,,,,,
1.97,,,,,,,,,j,red,5db103ed236ef00013611a6f,2021-09-28_12h26.26.116,forced_choiceRT_color,2021.2.3,Win32,120.1923077,,,,,,,,8,Slow,long,j,1,2.576,8,3,35,2,1,,,,,
0.08,,,,,,,,,k,purple,5db103ed236ef00013611a6f,2021-09-28_12h26.26.116,forced_choiceRT_color,2021.2.3,Win32,120.1923077,,,,,,,,8,Ontime,long,k,1,2.059,9,0,36,3,1,,,,,
0.17,,,,,,,,,k,purple,5db103ed236ef00013611a6f,2021-09-28_12h26.26.116,forced_choiceRT_color,2021.2.3,Win32,120.1923077,,,,,,,,8,Fast,long,k,1,1.9,9,1,37,3,1,,,,,
0.18,,,,,,,,,f,blue,5db103ed236ef00013611a6f,2021-09-28_12h26.26.116,forced_choiceRT_color,2021.2.3,Win32,120.1923077,,,,,,,,8,Ontime,long,f,1,1.967,9,2,38,1,1,,,,,
0.18,,,,,,,,,j,red,5db103ed236ef00013611a6f,2021-09-28_12h26.26.116,forced_choiceRT_color,2021.2.3,Win32,120.1923077,,,,,,,,8,Ontime,long,j,1,2.058,9,3,39,2,1,,,,,
,,,,,,,,,,,5db103ed236ef00013611a6f,2021-09-28_12h26.26.116,forced_choiceRT_color,2021.2.3,Win32,120.1923077,,,,,,,,,,,,,,,,,,,7,0,7,0,1
1.41,,,,,,,,,f,blue,5db103ed236ef00013611a6f,2021-09-28_12h26.26.116,forced_choiceRT_color,2021.2.3,Win32,120.1923077,,,,,,,,9,Ontime,long,j,0,2.08,0,0,0,1,1,,,,,
0.12,,,,,,,,,f,blue,5db103ed236ef00013611a6f,2021-09-28_12h26.26.116,forced_choiceRT_color,2021.2.3,Win32,120.1923077,,,,,,,,9,Ontime,long,f,1,1.943,0,1,1,1,1,,,,,
1.86,,,,,,,,,d,orange,5db103ed236ef00013611a6f,2021-09-28_12h26.26.116,forced_choiceRT_color,2021.2.3,Win32,120.1923077,,,,,,,,9,Ontime,long,k,0,2.026,0,2,2,0,1,,,,,
1.58,,,,,,,,,f,blue,5db103ed236ef00013611a6f,2021-09-28_12h26.26.116,forced_choiceRT_color,2021.2.3,Win32,120.1923077,,,,,,,,9,Fast,long,f,1,1.484,0,3,3,1,1,,,,,
1.22,,,,,,,,,k,purple,5db103ed236ef00013611a6f,2021-09-28_12h26.26.116,forced_choiceRT_color,2021.2.3,Win32,120.1923077,,,,,,,,9,Ontime,long,k,1,2.06,1,0,4,3,1,,,,,
1.47,,,,,,,,,f,blue,5db103ed236ef00013611a6f,2021-09-28_12h26.26.116,forced_choiceRT_color,2021.2.3,Win32,120.1923077,,,,,,,,9,Slow,long,f,1,2.275,1,1,5,1,1,,,,,
0.69,,,,,,,,,d,orange,5db103ed236ef00013611a6f,2021-09-28_12h26.26.116,forced_choiceRT_color,2021.2.3,Win32,120.1923077,,,,,,,,9,Fast,long,k,0,1.877,1,2,6,0,1,,,,,
0.35,,,,,,,,,d,orange,5db103ed236ef00013611a6f,2021-09-28_12h26.26.116,forced_choiceRT_color,2021.2.3,Win32,120.1923077,,,,,,,,9,Ontime,long,d,1,1.983,1,3,7,0,1,,,,,
1.28,,,,,,,,,j,red,5db103ed236ef00013611a6f,2021-09-28_12h26.26.116,forced_choiceRT_color,2021.2.3,Win32,120.1923077,,,,,,,,9,Fast,long,f,0,1.826,2,0,8,2,1,,,,,
0.26,,,,,,,,,f,blue,5db103ed236ef00013611a6f,2021-09-28_12h26.26.116,forced_choiceRT_color,2021.2.3,Win32,120.1923077,,,,,,,,9,Ontime,long,k,0,1.968,2,1,9,1,1,,,,,
1.75,,,,,,,,,k,purple,5db103ed236ef00013611a6f,2021-09-28_12h26.26.116,forced_choiceRT_color,2021.2.3,Win32,120.1923077,,,,,,,,9,Slow,long,j,0,2.125,2,2,10,3,1,,,,,
0.44,,,,,,,,,k,purple,5db103ed236ef00013611a6f,2021-09-28_12h26.26.116,forced_choiceRT_color,2021.2.3,Win32,120.1923077,,,,,,,,9,Ontime,long,k,1,2.003,2,3,11,3,1,,,,,
0.79,,,,,,,,,j,red,5db103ed236ef00013611a6f,2021-09-28_12h26.26.116,forced_choiceRT_color,2021.2.3,Win32,120.1923077,,,,,,,,9,Fast,long,f,0,1.809,3,0,12,2,1,,,,,
0.9,,,,,,,,,j,red,5db103ed236ef00013611a6f,2021-09-28_12h26.26.116,forced_choiceRT_color,2021.2.3,Win32,120.1923077,,,,,,,,9,Fast,long,f,0,1.434,3,1,13,2,1,,,,,
0.9,,,,,,,,,k,purple,5db103ed236ef00013611a6f,2021-09-28_12h26.26.116,forced_choiceRT_color,2021.2.3,Win32,120.1923077,,,,,,,,9,Ontime,long,k,1,1.909,3,2,14,3,1,,,,,
1.87,,,,,,,,,k,purple,5db103ed236ef00013611a6f,2021-09-28_12h26.26.116,forced_choiceRT_color,2021.2.3,Win32,120.1923077,,,,,,,,9,Ontime,long,k,1,2.083,3,3,15,3,1,,,,,
1.91,,,,,,,,,j,red,5db103ed236ef00013611a6f,2021-09-28_12h26.26.116,forced_choiceRT_color,2021.2.3,Win32,120.1923077,,,,,,,,9,Ontime,long,j,1,1.992,4,0,16,2,1,,,,,
1.96,,,,,,,,,f,blue,5db103ed236ef00013611a6f,2021-09-28_12h26.26.116,forced_choiceRT_color,2021.2.3,Win32,120.1923077,,,,,,,,9,Slow,long,k,0,2.174,4,1,17,1,1,,,,,
0.62,,,,,,,,,j,red,5db103ed236ef00013611a6f,2021-09-28_12h26.26.116,forced_choiceRT_color,2021.2.3,Win32,120.1923077,,,,,,,,9,Fast,long,f,0,1.885,4,2,18,2,1,,,,,
1.27,,,,,,,,,f,blue,5db103ed236ef00013611a6f,2021-09-28_12h26.26.116,forced_choiceRT_color,2021.2.3,Win32,120.1923077,,,,,,,,9,Fast,long,f,1,1.661,4,3,19,1,1,,,,,
1.47,,,,,,,,,d,orange,5db103ed236ef00013611a6f,2021-09-28_12h26.26.116,forced_choiceRT_color,2021.2.3,Win32,120.1923077,,,,,,,,9,Ontime,long,f,0,1.944,5,0,20,0,1,,,,,
0.75,,,,,,,,,d,orange,5db103ed236ef00013611a6f,2021-09-28_12h26.26.116,forced_choiceRT_color,2021.2.3,Win32,120.1923077,,,,,,,,9,Ontime,long,f,0,2.043,5,1,21,0,1,,,,,
1.95,,,,,,,,,j,red,5db103ed236ef00013611a6f,2021-09-28_12h26.26.116,forced_choiceRT_color,2021.2.3,Win32,120.1923077,,,,,,,,9,Ontime,long,j,1,2.026,5,2,22,2,1,,,,,
1.52,,,,,,,,,d,orange,5db103ed236ef00013611a6f,2021-09-28_12h26.26.116,forced_choiceRT_color,2021.2.3,Win32,120.1923077,,,,,,,,9,Ontime,long,k,0,2.085,5,3,23,0,1,,,,,
0.98,,,,,,,,,f,blue,5db103ed236ef00013611a6f,2021-09-28_12h26.26.116,forced_choiceRT_color,2021.2.3,Win32,120.1923077,,,,,,,,9,Ontime,long,j,0,1.926,6,0,24,1,1,,,,,
1.86,,,,,,,,,f,blue,5db103ed236ef00013611a6f,2021-09-28_12h26.26.116,forced_choiceRT_color,2021.2.3,Win32,120.1923077,,,,,,,,9,Ontime,long,j,0,2.068,6,1,25,1,1,,,,,
0.55,,,,,,,,,d,orange,5db103ed236ef00013611a6f,2021-09-28_12h26.26.116,forced_choiceRT_color,2021.2.3,Win32,120.1923077,,,,,,,,9,Ontime,long,j,0,1.921,6,2,26,0,1,,,,,
0.93,,,,,,,,,f,blue,5db103ed236ef00013611a6f,2021-09-28_12h26.26.116,forced_choiceRT_color,2021.2.3,Win32,120.1923077,,,,,,,,9,Ontime,long,j,0,1.992,6,3,27,1,1,,,,,
1.56,,,,,,,,,k,purple,5db103ed236ef00013611a6f,2021-09-28_12h26.26.116,forced_choiceRT_color,2021.2.3,Win32,120.1923077,,,,,,,,9,Ontime,long,j,0,1.967,7,0,28,3,1,,,,,
1.15,,,,,,,,,d,orange,5db103ed236ef00013611a6f,2021-09-28_12h26.26.116,forced_choiceRT_color,2021.2.3,Win32,120.1923077,,,,,,,,9,Ontime,long,j,0,1.953,7,1,29,0,1,,,,,
1.56,,,,,,,,,d,orange,5db103ed236ef00013611a6f,2021-09-28_12h26.26.116,forced_choiceRT_color,2021.2.3,Win32,120.1923077,,,,,,,,9,Slow,long,d,1,2.201,7,2,30,0,1,,,,,
0.98,,,,,,,,,k,purple,5db103ed236ef00013611a6f,2021-09-28_12h26.26.116,forced_choiceRT_color,2021.2.3,Win32,120.1923077,,,,,,,,9,Ontime,long,k,1,1.994,7,3,31,3,1,,,,,
0.3,,,,,,,,,j,red,5db103ed236ef00013611a6f,2021-09-28_12h26.26.116,forced_choiceRT_color,2021.2.3,Win32,120.1923077,,,,,,,,9,Ontime,long,j,1,1.96,8,0,32,2,1,,,,,
0.1,,,,,,,,,k,purple,5db103ed236ef00013611a6f,2021-09-28_12h26.26.116,forced_choiceRT_color,2021.2.3,Win32,120.1923077,,,,,,,,9,Slow,long,k,1,2.117,8,1,33,3,1,,,,,
0.82,,,,,,,,,j,red,5db103ed236ef00013611a6f,2021-09-28_12h26.26.116,forced_choiceRT_color,2021.2.3,Win32,120.1923077,,,,,,,,9,Fast,long,k,0,1.868,8,2,34,2,1,,,,,
1.71,,,,,,,,,j,red,5db103ed236ef00013611a6f,2021-09-28_12h26.26.116,forced_choiceRT_color,2021.2.3,Win32,120.1923077,,,,,,,,9,Fast,long,j,1,1.826,8,3,35,2,1,,,,,
0.86,,,,,,,,,j,red,5db103ed236ef00013611a6f,2021-09-28_12h26.26.116,forced_choiceRT_color,2021.2.3,Win32,120.1923077,,,,,,,,9,Ontime,long,j,1,2.009,9,0,36,2,1,,,,,
0.92,,,,,,,,,k,purple,5db103ed236ef00013611a6f,2021-09-28_12h26.26.116,forced_choiceRT_color,2021.2.3,Win32,120.1923077,,,,,,,,9,Ontime,long,k,1,2.003,9,1,37,3,1,,,,,
0.29,,,,,,,,,k,purple,5db103ed236ef00013611a6f,2021-09-28_12h26.26.116,forced_choiceRT_color,2021.2.3,Win32,120.1923077,,,,,,,,9,Fast,long,k,1,1.846,9,2,38,3,1,,,,,
0.69,,,,,,,,,d,orange,5db103ed236ef00013611a6f,2021-09-28_12h26.26.116,forced_choiceRT_color,2021.2.3,Win32,120.1923077,,,,,,,,9,Ontime,long,f,0,1.992,9,3,39,0,1,,,,,
,,,,,,,,,,,5db103ed236ef00013611a6f,2021-09-28_12h26.26.116,forced_choiceRT_color,2021.2.3,Win32,120.1923077,,,,,,,,,,,,,,,,,,,8,0,8,0,1
1.91,,,,,,,,,f,blue,5db103ed236ef00013611a6f,2021-09-28_12h26.26.116,forced_choiceRT_color,2021.2.3,Win32,120.1923077,,,,,,,,10,Slow,long,k,0,2.357,0,0,0,1,1,,,,,
0.44,,,,,,,,,k,purple,5db103ed236ef00013611a6f,2021-09-28_12h26.26.116,forced_choiceRT_color,2021.2.3,Win32,120.1923077,,,,,,,,10,Ontime,long,k,1,1.951,0,1,1,3,1,,,,,
1.36,,,,,,,,,f,blue,5db103ed236ef00013611a6f,2021-09-28_12h26.26.116,forced_choiceRT_color,2021.2.3,Win32,120.1923077,,,,,,,,10,Fast,long,f,1,1.751,0,2,2,1,1,,,,,
1.95,,,,,,,,,f,blue,5db103ed236ef00013611a6f,2021-09-28_12h26.26.116,forced_choiceRT_color,2021.2.3,Win32,120.1923077,,,,,,,,10,Fast,long,j,0,1.886,0,3,3,1,1,,,,,
0.25,,,,,,,,,j,red,5db103ed236ef00013611a6f,2021-09-28_12h26.26.116,forced_choiceRT_color,2021.2.3,Win32,120.1923077,,,,,,,,10,Ontime,long,j,1,1.993,1,0,4,2,1,,,,,
0.2,,,,,,,,,f,blue,5db103ed236ef00013611a6f,2021-09-28_12h26.26.116,forced_choiceRT_color,2021.2.3,Win32,120.1923077,,,,,,,,10,Ontime,long,f,1,1.993,1,1,5,1,1,,,,,
1.28,,,,,,,,,j,red,5db103ed236ef00013611a6f,2021-09-28_12h26.26.116,forced_choiceRT_color,2021.2.3,Win32,120.1923077,,,,,,,,10,Ontime,long,f,0,1.967,1,2,6,2,1,,,,,
0.52,,,,,,,,,j,red,5db103ed236ef00013611a6f,2021-09-28_12h26.26.116,forced_choiceRT_color,2021.2.3,Win32,120.1923077,,,,,,,,10,Ontime,long,j,1,2.003,1,3,7,2,1,,,,,
0.26,,,,,,,,,k,purple,5db103ed236ef00013611a6f,2021-09-28_12h26.26.116,forced_choiceRT_color,2021.2.3,Win32,120.1923077,,,,,,,,10,Ontime,long,k,1,1.909,2,0,8,3,1,,,,,
0.81,,,,,,,,,d,orange,5db103ed236ef00013611a6f,2021-09-28_12h26.26.116,forced_choiceRT_color,2021.2.3,Win32,120.1923077,,,,,,,,10,Ontime,long,d,1,1.925,2,1,9,0,1,,,,,
1.06,,,,,,,,,k,purple,5db103ed236ef00013611a6f,2021-09-28_12h26.26.116,forced_choiceRT_color,2021.2.3,Win32,120.1923077,,,,,,,,10,Fast,long,k,1,1.884,2,2,10,3,1,,,,,
0.08,,,,,,,,,d,orange,5db103ed236ef00013611a6f,2021-09-28_12h26.26.116,forced_choiceRT_color,2021.2.3,Win32,120.1923077,,,,,,,,10,Slow,long,d,1,2.134,2,3,11,0,1,,,,,
1.09,,,,,,,,,k,purple,5db103ed236ef00013611a6f,2021-09-28_12h26.26.116,forced_choiceRT_color,2021.2.3,Win32,120.1923077,,,,,,,,10,Ontime,long,k,1,2.018,3,0,12,3,1,,,,,
0.24,,,,,,,,,d,orange,5db103ed236ef00013611a6f,2021-09-28_12h26.26.116,forced_choiceRT_color,2021.2.3,Win32,120.1923077,,,,,,,,10,Ontime,long,d,1,1.924,3,1,13,0,1,,,,,
1.81,,,,,,,,,j,red,5db103ed236ef00013611a6f,2021-09-28_12h26.26.116,forced_choiceRT_color,2021.2.3,Win32,120.1923077,,,,,,,,10,Slow,long,f,0,2.267,3,2,14,2,1,,,,,
1,,,,,,,,,d,orange,5db103ed236ef00013611a6f,2021-09-28_12h26.26.116,forced_choiceRT_color,2021.2.3,Win32,120.1923077,,,,,,,,10,Ontime,long,d,1,1.942,3,3,15,0,1,,,,,
1.51,,,,,,,,,j,red,5db103ed236ef00013611a6f,2021-09-28_12h26.26.116,forced_choiceRT_color,2021.2.3,Win32,120.1923077,,,,,,,,10,Fast,long,k,0,1.768,4,0,16,2,1,,,,,
1.85,,,,,,,,,f,blue,5db103ed236ef00013611a6f,2021-09-28_12h26.26.116,forced_choiceRT_color,2021.2.3,Win32,120.1923077,,,,,,,,10,Ontime,long,k,0,1.925,4,1,17,1,1,,,,,
0.49,,,,,,,,,k,purple,5db103ed236ef00013611a6f,2021-09-28_12h26.26.116,forced_choiceRT_color,2021.2.3,Win32,120.1923077,,,,,,,,10,Ontime,long,k,1,1.952,4,2,18,3,1,,,,,
1.26,,,,,,,,,d,orange,5db103ed236ef00013611a6f,2021-09-28_12h26.26.116,forced_choiceRT_color,2021.2.3,Win32,120.1923077,,,,,,,,10,Fast,long,f,0,1.767,4,3,19,0,1,,,,,
0.6,,,,,,,,,d,orange,5db103ed236ef00013611a6f,2021-09-28_12h26.26.116,forced_choiceRT_color,2021.2.3,Win32,120.1923077,,,,,,,,10,Ontime,long,d,1,2.037,5,0,20,0,1,,,,,
0.62,,,,,,,,,k,purple,5db103ed236ef00013611a6f,2021-09-28_12h26.26.116,forced_choiceRT_color,2021.2.3,Win32,120.1923077,,,,,,,,10,Ontime,long,k,1,2.001,5,1,21,3,1,,,,,
1.49,,,,,,,,,j,red,5db103ed236ef00013611a6f,2021-09-28_12h26.26.116,forced_choiceRT_color,2021.2.3,Win32,120.1923077,,,,,,,,10,Slow,long,j,1,2.301,5,2,22,2,1,,,,,
0.29,,,,,,,,,f,blue,5db103ed236ef00013611a6f,2021-09-28_12h26.26.116,forced_choiceRT_color,2021.2.3,Win32,120.1923077,,,,,,,,10,Ontime,long,f,1,1.992,5,3,23,1,1,,,,,
0.39,,,,,,,,,d,orange,5db103ed236ef00013611a6f,2021-09-28_12h26.26.116,forced_choiceRT_color,2021.2.3,Win32,120.1923077,,,,,,,,10,Ontime,long,d,1,1.928,6,0,24,0,1,,,,,
1.77,,,,,,,,,f,blue,5db103ed236ef00013611a6f,2021-09-28_12h26.26.116,forced_choiceRT_color,2021.2.3,Win32,120.1923077,,,,,,,,10,Ontime,long,j,0,1.901,6,1,25,1,1,,,,,
1.05,,,,,,,,,d,orange,5db103ed236ef00013611a6f,2021-09-28_12h26.26.116,forced_choiceRT_color,2021.2.3,Win32,120.1923077,,,,,,,,10,Ontime,long,d,1,1.996,6,2,26,0,1,,,,,
1.11,,,,,,,,,k,purple,5db103ed236ef00013611a6f,2021-09-28_12h26.26.116,forced_choiceRT_color,2021.2.3,Win32,120.1923077,,,,,,,,10,Fast,long,k,1,1.776,6,3,27,3,1,,,,,
1.25,,,,,,,,,f,blue,5db103ed236ef00013611a6f,2021-09-28_12h26.26.116,forced_choiceRT_color,2021.2.3,Win32,120.1923077,,,,,,,,10,Fast,long,j,0,1.801,7,0,28,1,1,,,,,
0.03,,,,,,,,,j,red,5db103ed236ef00013611a6f,2021-09-28_12h26.26.116,forced_choiceRT_color,2021.2.3,Win32,120.1923077,,,,,,,,10,Ontime,long,j,1,2.003,7,1,29,2,1,,,,,
0.46,,,,,,,,,j,red,5db103ed236ef00013611a6f,2021-09-28_12h26.26.116,forced_choiceRT_color,2021.2.3,Win32,120.1923077,,,,,,,,10,Ontime,long,j,1,1.927,7,2,30,2,1,,,,,
0.36,,,,,,,,,f,blue,5db103ed236ef00013611a6f,2021-09-28_12h26.26.116,forced_choiceRT_color,2021.2.3,Win32,120.1923077,,,,,,,,10,Ontime,long,f,1,2.001,7,3,31,1,1,,,,,
0.48,,,,,,,,,k,purple,5db103ed236ef00013611a6f,2021-09-28_12h26.26.116,forced_choiceRT_color,2021.2.3,Win32,120.1923077,,,,,,,,10,Ontime,long,k,1,1.932,8,0,32,3,1,,,,,
1.69,,,,,,,,,j,red,5db103ed236ef00013611a6f,2021-09-28_12h26.26.116,forced_choiceRT_color,2021.2.3,Win32,120.1923077,,,,,,,,10,Slow,long,k,0,2.101,8,1,33,2,1,,,,,
0,,,,,,,,,j,red,5db103ed236ef00013611a6f,2021-09-28_12h26.26.116,forced_choiceRT_color,2021.2.3,Win32,120.1923077,,,,,,,,10,Ontime,long,j,1,1.909,8,2,34,2,1,,,,,
1.99,,,,,,,,,d,orange,5db103ed236ef00013611a6f,2021-09-28_12h26.26.116,forced_choiceRT_color,2021.2.3,Win32,120.1923077,,,,,,,,10,Ontime,long,j,0,1.984,8,3,35,0,1,,,,,
1.14,,,,,,,,,d,orange,5db103ed236ef00013611a6f,2021-09-28_12h26.26.116,forced_choiceRT_color,2021.2.3,Win32,120.1923077,,,,,,,,10,Fast,long,f,0,1.575,9,0,36,0,1,,,,,
1.83,,,,,,,,,f,blue,5db103ed236ef00013611a6f,2021-09-28_12h26.26.116,forced_choiceRT_color,2021.2.3,Win32,120.1923077,,,,,,,,10,Ontime,long,j,0,2.018,9,1,37,1,1,,,,,
0.24,,,,,,,,,k,purple,5db103ed236ef00013611a6f,2021-09-28_12h26.26.116,forced_choiceRT_color,2021.2.3,Win32,120.1923077,,,,,,,,10,Ontime,long,k,1,1.993,9,2,38,3,1,,,,,
0.24,,,,,,,,,k,purple,5db103ed236ef00013611a6f,2021-09-28_12h26.26.116,forced_choiceRT_color,2021.2.3,Win32,120.1923077,,,,,,,,10,Ontime,long,k,1,2.085,9,3,39,3,1,,,,,
,,,,,,,,,,,5db103ed236ef00013611a6f,2021-09-28_12h26.26.116,forced_choiceRT_color,2021.2.3,Win32,120.1923077,,,,,,,,,,,,,,,,,,,9,0,9,0,1
