IP_Addresss,target_onset,trial_resp_sp.keys,trial_resp_sp.corr,trial_resp_sp.rt,trials_train_loop.thisRepN,trials_train_loop.thisTrialN,trials_train_loop.thisN,trials_train_loop.thisIndex,trials_train_loop.ran,correct_key,color,participant,date,expName,psychopyVersion,OS,frameRate,trial_resp_timing.keys,trial_resp_timing.rt,trials_train_timing.thisRepN,trials_train_timing.thisTrialN,trials_train_timing.thisN,trials_train_timing.thisIndex,trials_train_timing.ran,block_id,ontime,feedback_cond,forcedRT_resp.keys,forcedRT_resp.corr,forcedRT_resp.rt,trials.thisRepN,trials.thisTrialN,trials.thisN,trials.thisIndex,trials.ran,blocks.thisRepN,blocks.thisTrialN,blocks.thisN,blocks.thisIndex,blocks.ran
24.17.104.126,0,f,1,1.7888,0,0,0,1,1,f,blue,5ddc2ee14524e7b8ce23cf4c,2021-09-27_14h10.42.482,forced_choiceRT_color,2021.2.3,Win32,60.28817749,,,,,,,,,,,,,,,,,,,,,,,
,0,j,1,0.7833,0,1,1,2,1,j,red,5ddc2ee14524e7b8ce23cf4c,2021-09-27_14h10.42.482,forced_choiceRT_color,2021.2.3,Win32,60.28817749,,,,,,,,,,,,,,,,,,,,,,,
,0,d,1,1.1823,0,2,2,0,1,d,orange,5ddc2ee14524e7b8ce23cf4c,2021-09-27_14h10.42.482,forced_choiceRT_color,2021.2.3,Win32,60.28817749,,,,,,,,,,,,,,,,,,,,,,,
,0,k,1,0.6653,0,3,3,3,1,k,purple,5ddc2ee14524e7b8ce23cf4c,2021-09-27_14h10.42.482,forced_choiceRT_color,2021.2.3,Win32,60.28817749,,,,,,,,,,,,,,,,,,,,,,,
,0,d,1,0.7356,1,0,4,0,1,d,orange,5ddc2ee14524e7b8ce23cf4c,2021-09-27_14h10.42.482,forced_choiceRT_color,2021.2.3,Win32,60.28817749,,,,,,,,,,,,,,,,,,,,,,,
,0,f,1,0.9144,1,1,5,1,1,f,blue,5ddc2ee14524e7b8ce23cf4c,2021-09-27_14h10.42.482,forced_choiceRT_color,2021.2.3,Win32,60.28817749,,,,,,,,,,,,,,,,,,,,,,,
,0,k,1,0.9828,1,2,6,3,1,k,purple,5ddc2ee14524e7b8ce23cf4c,2021-09-27_14h10.42.482,forced_choiceRT_color,2021.2.3,Win32,60.28817749,,,,,,,,,,,,,,,,,,,,,,,
,0,j,1,0.8332,1,3,7,2,1,j,red,5ddc2ee14524e7b8ce23cf4c,2021-09-27_14h10.42.482,forced_choiceRT_color,2021.2.3,Win32,60.28817749,,,,,,,,,,,,,,,,,,,,,,,
,0,d,1,0.9717,2,0,8,0,1,d,orange,5ddc2ee14524e7b8ce23cf4c,2021-09-27_14h10.42.482,forced_choiceRT_color,2021.2.3,Win32,60.28817749,,,,,,,,,,,,,,,,,,,,,,,
,0,k,1,1.173,2,1,9,3,1,k,purple,5ddc2ee14524e7b8ce23cf4c,2021-09-27_14h10.42.482,forced_choiceRT_color,2021.2.3,Win32,60.28817749,,,,,,,,,,,,,,,,,,,,,,,
,0,f,1,1.2483,2,2,10,1,1,f,blue,5ddc2ee14524e7b8ce23cf4c,2021-09-27_14h10.42.482,forced_choiceRT_color,2021.2.3,Win32,60.28817749,,,,,,,,,,,,,,,,,,,,,,,
,0,d,1,1.099,2,3,11,0,1,d,orange,5ddc2ee14524e7b8ce23cf4c,2021-09-27_14h10.42.482,forced_choiceRT_color,2021.2.3,Win32,60.28817749,,,,,,,,,,,,,,,,,,,,,,,
,0,j,1,0.7667,3,0,12,2,1,j,red,5ddc2ee14524e7b8ce23cf4c,2021-09-27_14h10.42.482,forced_choiceRT_color,2021.2.3,Win32,60.28817749,,,,,,,,,,,,,,,,,,,,,,,
,0,d,1,0.783,3,1,13,0,1,d,orange,5ddc2ee14524e7b8ce23cf4c,2021-09-27_14h10.42.482,forced_choiceRT_color,2021.2.3,Win32,60.28817749,,,,,,,,,,,,,,,,,,,,,,,
,0,j,1,0.7717,3,2,14,2,1,j,red,5ddc2ee14524e7b8ce23cf4c,2021-09-27_14h10.42.482,forced_choiceRT_color,2021.2.3,Win32,60.28817749,,,,,,,,,,,,,,,,,,,,,,,
,0,k,1,0.6173,3,3,15,3,1,k,purple,5ddc2ee14524e7b8ce23cf4c,2021-09-27_14h10.42.482,forced_choiceRT_color,2021.2.3,Win32,60.28817749,,,,,,,,,,,,,,,,,,,,,,,
,0,k,1,0.6832,4,0,16,3,1,k,purple,5ddc2ee14524e7b8ce23cf4c,2021-09-27_14h10.42.482,forced_choiceRT_color,2021.2.3,Win32,60.28817749,,,,,,,,,,,,,,,,,,,,,,,
,0,k,1,0.6509,4,1,17,3,1,k,purple,5ddc2ee14524e7b8ce23cf4c,2021-09-27_14h10.42.482,forced_choiceRT_color,2021.2.3,Win32,60.28817749,,,,,,,,,,,,,,,,,,,,,,,
,0,j,1,1.4542,4,2,18,2,1,j,red,5ddc2ee14524e7b8ce23cf4c,2021-09-27_14h10.42.482,forced_choiceRT_color,2021.2.3,Win32,60.28817749,,,,,,,,,,,,,,,,,,,,,,,
,0,d,1,0.9497,4,3,19,0,1,d,orange,5ddc2ee14524e7b8ce23cf4c,2021-09-27_14h10.42.482,forced_choiceRT_color,2021.2.3,Win32,60.28817749,,,,,,,,,,,,,,,,,,,,,,,
,0,f,1,0.6208,5,0,20,1,1,f,blue,5ddc2ee14524e7b8ce23cf4c,2021-09-27_14h10.42.482,forced_choiceRT_color,2021.2.3,Win32,60.28817749,,,,,,,,,,,,,,,,,,,,,,,
,0,k,1,0.9825,5,1,21,3,1,k,purple,5ddc2ee14524e7b8ce23cf4c,2021-09-27_14h10.42.482,forced_choiceRT_color,2021.2.3,Win32,60.28817749,,,,,,,,,,,,,,,,,,,,,,,
,0,k,1,0.6668,5,2,22,3,1,k,purple,5ddc2ee14524e7b8ce23cf4c,2021-09-27_14h10.42.482,forced_choiceRT_color,2021.2.3,Win32,60.28817749,,,,,,,,,,,,,,,,,,,,,,,
,0,d,1,0.7335,5,3,23,0,1,d,orange,5ddc2ee14524e7b8ce23cf4c,2021-09-27_14h10.42.482,forced_choiceRT_color,2021.2.3,Win32,60.28817749,,,,,,,,,,,,,,,,,,,,,,,
,0,j,1,0.9658,6,0,24,2,1,j,red,5ddc2ee14524e7b8ce23cf4c,2021-09-27_14h10.42.482,forced_choiceRT_color,2021.2.3,Win32,60.28817749,,,,,,,,,,,,,,,,,,,,,,,
,0,k,1,0.8529,6,1,25,3,1,k,purple,5ddc2ee14524e7b8ce23cf4c,2021-09-27_14h10.42.482,forced_choiceRT_color,2021.2.3,Win32,60.28817749,,,,,,,,,,,,,,,,,,,,,,,
,0,j,1,0.8503,6,2,26,2,1,j,red,5ddc2ee14524e7b8ce23cf4c,2021-09-27_14h10.42.482,forced_choiceRT_color,2021.2.3,Win32,60.28817749,,,,,,,,,,,,,,,,,,,,,,,
,0,f,1,0.833,6,3,27,1,1,f,blue,5ddc2ee14524e7b8ce23cf4c,2021-09-27_14h10.42.482,forced_choiceRT_color,2021.2.3,Win32,60.28817749,,,,,,,,,,,,,,,,,,,,,,,
,0,f,1,0.8162,7,0,28,1,1,f,blue,5ddc2ee14524e7b8ce23cf4c,2021-09-27_14h10.42.482,forced_choiceRT_color,2021.2.3,Win32,60.28817749,,,,,,,,,,,,,,,,,,,,,,,
,0,f,1,0.6013,7,1,29,1,1,f,blue,5ddc2ee14524e7b8ce23cf4c,2021-09-27_14h10.42.482,forced_choiceRT_color,2021.2.3,Win32,60.28817749,,,,,,,,,,,,,,,,,,,,,,,
,0,j,1,0.7179,7,2,30,2,1,j,red,5ddc2ee14524e7b8ce23cf4c,2021-09-27_14h10.42.482,forced_choiceRT_color,2021.2.3,Win32,60.28817749,,,,,,,,,,,,,,,,,,,,,,,
,0,j,1,0.6716,7,3,31,2,1,j,red,5ddc2ee14524e7b8ce23cf4c,2021-09-27_14h10.42.482,forced_choiceRT_color,2021.2.3,Win32,60.28817749,,,,,,,,,,,,,,,,,,,,,,,
,0,d,1,1.0489,8,0,32,0,1,d,orange,5ddc2ee14524e7b8ce23cf4c,2021-09-27_14h10.42.482,forced_choiceRT_color,2021.2.3,Win32,60.28817749,,,,,,,,,,,,,,,,,,,,,,,
,0,j,1,0.7987,8,1,33,2,1,j,red,5ddc2ee14524e7b8ce23cf4c,2021-09-27_14h10.42.482,forced_choiceRT_color,2021.2.3,Win32,60.28817749,,,,,,,,,,,,,,,,,,,,,,,
,0,d,1,1.0812,8,2,34,0,1,d,orange,5ddc2ee14524e7b8ce23cf4c,2021-09-27_14h10.42.482,forced_choiceRT_color,2021.2.3,Win32,60.28817749,,,,,,,,,,,,,,,,,,,,,,,
,0,k,1,0.7171,8,3,35,3,1,k,purple,5ddc2ee14524e7b8ce23cf4c,2021-09-27_14h10.42.482,forced_choiceRT_color,2021.2.3,Win32,60.28817749,,,,,,,,,,,,,,,,,,,,,,,
,0,f,1,0.9329,9,0,36,1,1,f,blue,5ddc2ee14524e7b8ce23cf4c,2021-09-27_14h10.42.482,forced_choiceRT_color,2021.2.3,Win32,60.28817749,,,,,,,,,,,,,,,,,,,,,,,
,0,j,1,0.7158,9,1,37,2,1,j,red,5ddc2ee14524e7b8ce23cf4c,2021-09-27_14h10.42.482,forced_choiceRT_color,2021.2.3,Win32,60.28817749,,,,,,,,,,,,,,,,,,,,,,,
,0,f,1,0.9833,9,2,38,1,1,f,blue,5ddc2ee14524e7b8ce23cf4c,2021-09-27_14h10.42.482,forced_choiceRT_color,2021.2.3,Win32,60.28817749,,,,,,,,,,,,,,,,,,,,,,,
,0,d,1,0.6857,9,3,39,0,1,d,orange,5ddc2ee14524e7b8ce23cf4c,2021-09-27_14h10.42.482,forced_choiceRT_color,2021.2.3,Win32,60.28817749,,,,,,,,,,,,,,,,,,,,,,,
,0,k,1,0.9495,10,0,40,3,1,k,purple,5ddc2ee14524e7b8ce23cf4c,2021-09-27_14h10.42.482,forced_choiceRT_color,2021.2.3,Win32,60.28817749,,,,,,,,,,,,,,,,,,,,,,,
,0,d,1,0.953,10,1,41,0,1,d,orange,5ddc2ee14524e7b8ce23cf4c,2021-09-27_14h10.42.482,forced_choiceRT_color,2021.2.3,Win32,60.28817749,,,,,,,,,,,,,,,,,,,,,,,
,0,f,1,0.9495,10,2,42,1,1,f,blue,5ddc2ee14524e7b8ce23cf4c,2021-09-27_14h10.42.482,forced_choiceRT_color,2021.2.3,Win32,60.28817749,,,,,,,,,,,,,,,,,,,,,,,
,0,d,1,1.2982,10,3,43,0,1,d,orange,5ddc2ee14524e7b8ce23cf4c,2021-09-27_14h10.42.482,forced_choiceRT_color,2021.2.3,Win32,60.28817749,,,,,,,,,,,,,,,,,,,,,,,
,0,f,1,0.8073,11,0,44,1,1,f,blue,5ddc2ee14524e7b8ce23cf4c,2021-09-27_14h10.42.482,forced_choiceRT_color,2021.2.3,Win32,60.28817749,,,,,,,,,,,,,,,,,,,,,,,
,0,k,1,0.7566,11,1,45,3,1,k,purple,5ddc2ee14524e7b8ce23cf4c,2021-09-27_14h10.42.482,forced_choiceRT_color,2021.2.3,Win32,60.28817749,,,,,,,,,,,,,,,,,,,,,,,
,0,j,1,0.8679,11,2,46,2,1,j,red,5ddc2ee14524e7b8ce23cf4c,2021-09-27_14h10.42.482,forced_choiceRT_color,2021.2.3,Win32,60.28817749,,,,,,,,,,,,,,,,,,,,,,,
,0,k,1,0.75,11,3,47,3,1,k,purple,5ddc2ee14524e7b8ce23cf4c,2021-09-27_14h10.42.482,forced_choiceRT_color,2021.2.3,Win32,60.28817749,,,,,,,,,,,,,,,,,,,,,,,
,0,k,1,0.6002,12,0,48,3,1,k,purple,5ddc2ee14524e7b8ce23cf4c,2021-09-27_14h10.42.482,forced_choiceRT_color,2021.2.3,Win32,60.28817749,,,,,,,,,,,,,,,,,,,,,,,
,0,j,1,0.8535,12,1,49,2,1,j,red,5ddc2ee14524e7b8ce23cf4c,2021-09-27_14h10.42.482,forced_choiceRT_color,2021.2.3,Win32,60.28817749,,,,,,,,,,,,,,,,,,,,,,,
,0,f,1,0.8341,12,2,50,1,1,f,blue,5ddc2ee14524e7b8ce23cf4c,2021-09-27_14h10.42.482,forced_choiceRT_color,2021.2.3,Win32,60.28817749,,,,,,,,,,,,,,,,,,,,,,,
,0,d,1,0.6549,12,3,51,0,1,d,orange,5ddc2ee14524e7b8ce23cf4c,2021-09-27_14h10.42.482,forced_choiceRT_color,2021.2.3,Win32,60.28817749,,,,,,,,,,,,,,,,,,,,,,,
,0,f,1,0.6995,13,0,52,1,1,f,blue,5ddc2ee14524e7b8ce23cf4c,2021-09-27_14h10.42.482,forced_choiceRT_color,2021.2.3,Win32,60.28817749,,,,,,,,,,,,,,,,,,,,,,,
,0,k,1,1.0478,13,1,53,3,1,k,purple,5ddc2ee14524e7b8ce23cf4c,2021-09-27_14h10.42.482,forced_choiceRT_color,2021.2.3,Win32,60.28817749,,,,,,,,,,,,,,,,,,,,,,,
,0,d,1,0.8662,13,2,54,0,1,d,orange,5ddc2ee14524e7b8ce23cf4c,2021-09-27_14h10.42.482,forced_choiceRT_color,2021.2.3,Win32,60.28817749,,,,,,,,,,,,,,,,,,,,,,,
,0,j,1,1.0154,13,3,55,2,1,j,red,5ddc2ee14524e7b8ce23cf4c,2021-09-27_14h10.42.482,forced_choiceRT_color,2021.2.3,Win32,60.28817749,,,,,,,,,,,,,,,,,,,,,,,
,0,f,1,1.0039,14,0,56,1,1,f,blue,5ddc2ee14524e7b8ce23cf4c,2021-09-27_14h10.42.482,forced_choiceRT_color,2021.2.3,Win32,60.28817749,,,,,,,,,,,,,,,,,,,,,,,
,0,j,1,0.8835,14,1,57,2,1,j,red,5ddc2ee14524e7b8ce23cf4c,2021-09-27_14h10.42.482,forced_choiceRT_color,2021.2.3,Win32,60.28817749,,,,,,,,,,,,,,,,,,,,,,,
,0,f,1,0.8995,14,2,58,1,1,f,blue,5ddc2ee14524e7b8ce23cf4c,2021-09-27_14h10.42.482,forced_choiceRT_color,2021.2.3,Win32,60.28817749,,,,,,,,,,,,,,,,,,,,,,,
,0,d,1,0.7992,14,3,59,0,1,d,orange,5ddc2ee14524e7b8ce23cf4c,2021-09-27_14h10.42.482,forced_choiceRT_color,2021.2.3,Win32,60.28817749,,,,,,,,,,,,,,,,,,,,,,,
,,,,,,,,,,,,5ddc2ee14524e7b8ce23cf4c,2021-09-27_14h10.42.482,forced_choiceRT_color,2021.2.3,Win32,60.28817749,f,1.2513,0,0,0,0,1,,,,,,,,,,,,,,,,
,,,,,,,,,,,,5ddc2ee14524e7b8ce23cf4c,2021-09-27_14h10.42.482,forced_choiceRT_color,2021.2.3,Win32,60.28817749,f,2.3224,1,0,1,0,1,,,,,,,,,,,,,,,,
,,,,,,,,,,,,5ddc2ee14524e7b8ce23cf4c,2021-09-27_14h10.42.482,forced_choiceRT_color,2021.2.3,Win32,60.28817749,f,2.2577,2,0,2,0,1,,,,,,,,,,,,,,,,
,,,,,,,,,,,,5ddc2ee14524e7b8ce23cf4c,2021-09-27_14h10.42.482,forced_choiceRT_color,2021.2.3,Win32,60.28817749,f,2.2232,3,0,3,0,1,,,,,,,,,,,,,,,,
,,,,,,,,,,,,5ddc2ee14524e7b8ce23cf4c,2021-09-27_14h10.42.482,forced_choiceRT_color,2021.2.3,Win32,60.28817749,f,2.0722,4,0,4,0,1,,,,,,,,,,,,,,,,
,,,,,,,,,,,,5ddc2ee14524e7b8ce23cf4c,2021-09-27_14h10.42.482,forced_choiceRT_color,2021.2.3,Win32,60.28817749,f,1.9139,5,0,5,0,1,,,,,,,,,,,,,,,,
,,,,,,,,,,,,5ddc2ee14524e7b8ce23cf4c,2021-09-27_14h10.42.482,forced_choiceRT_color,2021.2.3,Win32,60.28817749,f,1.8548,6,0,6,0,1,,,,,,,,,,,,,,,,
,,,,,,,,,,,,5ddc2ee14524e7b8ce23cf4c,2021-09-27_14h10.42.482,forced_choiceRT_color,2021.2.3,Win32,60.28817749,f,2.1165,7,0,7,0,1,,,,,,,,,,,,,,,,
,,,,,,,,,,,,5ddc2ee14524e7b8ce23cf4c,2021-09-27_14h10.42.482,forced_choiceRT_color,2021.2.3,Win32,60.28817749,f,1.9796,8,0,8,0,1,,,,,,,,,,,,,,,,
,,,,,,,,,,,,5ddc2ee14524e7b8ce23cf4c,2021-09-27_14h10.42.482,forced_choiceRT_color,2021.2.3,Win32,60.28817749,f,1.8908,9,0,9,0,1,,,,,,,,,,,,,,,,
,,,,,,,,,,,,5ddc2ee14524e7b8ce23cf4c,2021-09-27_14h10.42.482,forced_choiceRT_color,2021.2.3,Win32,60.28817749,f,1.9587,10,0,10,0,1,,,,,,,,,,,,,,,,
,,,,,,,,,,,,5ddc2ee14524e7b8ce23cf4c,2021-09-27_14h10.42.482,forced_choiceRT_color,2021.2.3,Win32,60.28817749,f,1.9319,11,0,11,0,1,,,,,,,,,,,,,,,,
,,,,,,,,,,,,5ddc2ee14524e7b8ce23cf4c,2021-09-27_14h10.42.482,forced_choiceRT_color,2021.2.3,Win32,60.28817749,f,1.8468,12,0,12,0,1,,,,,,,,,,,,,,,,
,,,,,,,,,,,,5ddc2ee14524e7b8ce23cf4c,2021-09-27_14h10.42.482,forced_choiceRT_color,2021.2.3,Win32,60.28817749,f,2.3133,13,0,13,0,1,,,,,,,,,,,,,,,,
,,,,,,,,,,,,5ddc2ee14524e7b8ce23cf4c,2021-09-27_14h10.42.482,forced_choiceRT_color,2021.2.3,Win32,60.28817749,f,1.8855,14,0,14,0,1,,,,,,,,,,,,,,,,
,,,,,,,,,,,,5ddc2ee14524e7b8ce23cf4c,2021-09-27_14h10.42.482,forced_choiceRT_color,2021.2.3,Win32,60.28817749,f,1.8634,15,0,15,0,1,,,,,,,,,,,,,,,,
,,,,,,,,,,,,5ddc2ee14524e7b8ce23cf4c,2021-09-27_14h10.42.482,forced_choiceRT_color,2021.2.3,Win32,60.28817749,f,2.5181,16,0,16,0,1,,,,,,,,,,,,,,,,
,,,,,,,,,,,,5ddc2ee14524e7b8ce23cf4c,2021-09-27_14h10.42.482,forced_choiceRT_color,2021.2.3,Win32,60.28817749,f,1.8321,17,0,17,0,1,,,,,,,,,,,,,,,,
,,,,,,,,,,,,5ddc2ee14524e7b8ce23cf4c,2021-09-27_14h10.42.482,forced_choiceRT_color,2021.2.3,Win32,60.28817749,j,1.967,18,0,18,0,1,,,,,,,,,,,,,,,,
,,,,,,,,,,,,5ddc2ee14524e7b8ce23cf4c,2021-09-27_14h10.42.482,forced_choiceRT_color,2021.2.3,Win32,60.28817749,f,2.1126,19,0,19,0,1,,,,,,,,,,,,,,,,
,1.2,,,,,,,,,f,blue,5ddc2ee14524e7b8ce23cf4c,2021-09-27_14h10.42.482,forced_choiceRT_color,2021.2.3,Win32,60.28817749,,,,,,,,1,Fast,short,f,1,1.8975,0,0,0,1,1,,,,,
,0.81,,,,,,,,,k,purple,5ddc2ee14524e7b8ce23cf4c,2021-09-27_14h10.42.482,forced_choiceRT_color,2021.2.3,Win32,60.28817749,,,,,,,,1,Fast,short,f,0,1.4951,0,1,1,3,1,,,,,
,1.65,,,,,,,,,f,blue,5ddc2ee14524e7b8ce23cf4c,2021-09-27_14h10.42.482,forced_choiceRT_color,2021.2.3,Win32,60.28817749,,,,,,,,1,Ontime,short,k,0,2.0465,0,2,2,1,1,,,,,
,0.05,,,,,,,,,k,purple,5ddc2ee14524e7b8ce23cf4c,2021-09-27_14h10.42.482,forced_choiceRT_color,2021.2.3,Win32,60.28817749,,,,,,,,1,Fast,short,k,1,1.5478,0,3,3,3,1,,,,,
,1.03,,,,,,,,,d,orange,5ddc2ee14524e7b8ce23cf4c,2021-09-27_14h10.42.482,forced_choiceRT_color,2021.2.3,Win32,60.28817749,,,,,,,,1,Fast,short,f,0,1.6317,1,0,4,0,1,,,,,
,1.85,,,,,,,,,d,orange,5ddc2ee14524e7b8ce23cf4c,2021-09-27_14h10.42.482,forced_choiceRT_color,2021.2.3,Win32,60.28817749,,,,,,,,1,Fast,short,k,0,1.8139,1,1,5,0,1,,,,,
,0.49,,,,,,,,,j,red,5ddc2ee14524e7b8ce23cf4c,2021-09-27_14h10.42.482,forced_choiceRT_color,2021.2.3,Win32,60.28817749,,,,,,,,1,Fast,short,d,0,1.4976,1,2,6,2,1,,,,,
,1.83,,,,,,,,,f,blue,5ddc2ee14524e7b8ce23cf4c,2021-09-27_14h10.42.482,forced_choiceRT_color,2021.2.3,Win32,60.28817749,,,,,,,,1,Fast,short,d,0,1.8811,1,3,7,1,1,,,,,
,0.35,,,,,,,,,d,orange,5ddc2ee14524e7b8ce23cf4c,2021-09-27_14h10.42.482,forced_choiceRT_color,2021.2.3,Win32,60.28817749,,,,,,,,1,Fast,short,f,0,1.7306,2,0,8,0,1,,,,,
,1.49,,,,,,,,,k,purple,5ddc2ee14524e7b8ce23cf4c,2021-09-27_14h10.42.482,forced_choiceRT_color,2021.2.3,Win32,60.28817749,,,,,,,,1,Fast,short,f,0,1.8332,2,1,9,3,1,,,,,
,0.42,,,,,,,,,k,purple,5ddc2ee14524e7b8ce23cf4c,2021-09-27_14h10.42.482,forced_choiceRT_color,2021.2.3,Win32,60.28817749,,,,,,,,1,Ontime,short,k,1,1.9437,2,2,10,3,1,,,,,
,1.64,,,,,,,,,d,orange,5ddc2ee14524e7b8ce23cf4c,2021-09-27_14h10.42.482,forced_choiceRT_color,2021.2.3,Win32,60.28817749,,,,,,,,1,Ontime,short,j,0,1.9891,2,3,11,0,1,,,,,
,1.3,,,,,,,,,j,red,5ddc2ee14524e7b8ce23cf4c,2021-09-27_14h10.42.482,forced_choiceRT_color,2021.2.3,Win32,60.28817749,,,,,,,,1,Fast,short,f,0,1.834,3,0,12,2,1,,,,,
,0.93,,,,,,,,,d,orange,5ddc2ee14524e7b8ce23cf4c,2021-09-27_14h10.42.482,forced_choiceRT_color,2021.2.3,Win32,60.28817749,,,,,,,,1,Slow,short,k,0,2.2465,3,1,13,0,1,,,,,
,1.94,,,,,,,,,k,purple,5ddc2ee14524e7b8ce23cf4c,2021-09-27_14h10.42.482,forced_choiceRT_color,2021.2.3,Win32,60.28817749,,,,,,,,1,Ontime,short,j,0,1.915,3,2,14,3,1,,,,,
,1.52,,,,,,,,,f,blue,5ddc2ee14524e7b8ce23cf4c,2021-09-27_14h10.42.482,forced_choiceRT_color,2021.2.3,Win32,60.28817749,,,,,,,,1,Ontime,short,j,0,1.9141,3,3,15,1,1,,,,,
,0.96,,,,,,,,,f,blue,5ddc2ee14524e7b8ce23cf4c,2021-09-27_14h10.42.482,forced_choiceRT_color,2021.2.3,Win32,60.28817749,,,,,,,,1,Ontime,short,f,1,2.0466,4,0,16,1,1,,,,,
,1.68,,,,,,,,,d,orange,5ddc2ee14524e7b8ce23cf4c,2021-09-27_14h10.42.482,forced_choiceRT_color,2021.2.3,Win32,60.28817749,,,,,,,,1,Ontime,short,f,0,1.9622,4,1,17,0,1,,,,,
,0.66,,,,,,,,,d,orange,5ddc2ee14524e7b8ce23cf4c,2021-09-27_14h10.42.482,forced_choiceRT_color,2021.2.3,Win32,60.28817749,,,,,,,,1,Fast,short,f,0,1.7811,4,2,18,0,1,,,,,
,0.28,,,,,,,,,f,blue,5ddc2ee14524e7b8ce23cf4c,2021-09-27_14h10.42.482,forced_choiceRT_color,2021.2.3,Win32,60.28817749,,,,,,,,1,Ontime,short,j,0,1.947,4,3,19,1,1,,,,,
,0.3,,,,,,,,,k,purple,5ddc2ee14524e7b8ce23cf4c,2021-09-27_14h10.42.482,forced_choiceRT_color,2021.2.3,Win32,60.28817749,,,,,,,,1,Slow,short,k,1,2.2792,5,0,20,3,1,,,,,
,1.34,,,,,,,,,j,red,5ddc2ee14524e7b8ce23cf4c,2021-09-27_14h10.42.482,forced_choiceRT_color,2021.2.3,Win32,60.28817749,,,,,,,,1,Slow,short,f,0,2.138,5,1,21,2,1,,,,,
,1.2,,,,,,,,,f,blue,5ddc2ee14524e7b8ce23cf4c,2021-09-27_14h10.42.482,forced_choiceRT_color,2021.2.3,Win32,60.28817749,,,,,,,,1,Ontime,short,d,0,2.0138,5,2,22,1,1,,,,,
,0.59,,,,,,,,,k,purple,5ddc2ee14524e7b8ce23cf4c,2021-09-27_14h10.42.482,forced_choiceRT_color,2021.2.3,Win32,60.28817749,,,,,,,,1,Ontime,short,d,0,1.9556,5,3,23,3,1,,,,,
,0.12,,,,,,,,,j,red,5ddc2ee14524e7b8ce23cf4c,2021-09-27_14h10.42.482,forced_choiceRT_color,2021.2.3,Win32,60.28817749,,,,,,,,1,Fast,short,d,0,1.8811,6,0,24,2,1,,,,,
,0.96,,,,,,,,,j,red,5ddc2ee14524e7b8ce23cf4c,2021-09-27_14h10.42.482,forced_choiceRT_color,2021.2.3,Win32,60.28817749,,,,,,,,1,Ontime,short,f,0,1.9488,6,1,25,2,1,,,,,
,0.58,,,,,,,,,k,purple,5ddc2ee14524e7b8ce23cf4c,2021-09-27_14h10.42.482,forced_choiceRT_color,2021.2.3,Win32,60.28817749,,,,,,,,1,Fast,short,k,1,1.7193,6,2,26,3,1,,,,,
,0.91,,,,,,,,,j,red,5ddc2ee14524e7b8ce23cf4c,2021-09-27_14h10.42.482,forced_choiceRT_color,2021.2.3,Win32,60.28817749,,,,,,,,1,Fast,short,f,0,1.7286,6,3,27,2,1,,,,,
,0.06,,,,,,,,,j,red,5ddc2ee14524e7b8ce23cf4c,2021-09-27_14h10.42.482,forced_choiceRT_color,2021.2.3,Win32,60.28817749,,,,,,,,1,Ontime,short,f,0,1.9418,7,0,28,2,1,,,,,
,1.52,,,,,,,,,d,orange,5ddc2ee14524e7b8ce23cf4c,2021-09-27_14h10.42.482,forced_choiceRT_color,2021.2.3,Win32,60.28817749,,,,,,,,1,Slow,short,d,1,2.1461,7,1,29,0,1,,,,,
,1.56,,,,,,,,,f,blue,5ddc2ee14524e7b8ce23cf4c,2021-09-27_14h10.42.482,forced_choiceRT_color,2021.2.3,Win32,60.28817749,,,,,,,,1,Slow,short,f,1,3.115,7,2,30,1,1,,,,,
,0.58,,,,,,,,,j,red,5ddc2ee14524e7b8ce23cf4c,2021-09-27_14h10.42.482,forced_choiceRT_color,2021.2.3,Win32,60.28817749,,,,,,,,1,Slow,short,j,1,2.1723,7,3,31,2,1,,,,,
,0.8,,,,,,,,,f,blue,5ddc2ee14524e7b8ce23cf4c,2021-09-27_14h10.42.482,forced_choiceRT_color,2021.2.3,Win32,60.28817749,,,,,,,,1,Ontime,short,f,1,2.0298,8,0,32,1,1,,,,,
,1.85,,,,,,,,,k,purple,5ddc2ee14524e7b8ce23cf4c,2021-09-27_14h10.42.482,forced_choiceRT_color,2021.2.3,Win32,60.28817749,,,,,,,,1,Slow,short,k,1,3.0711,8,1,33,3,1,,,,,
,0.01,,,,,,,,,d,orange,5ddc2ee14524e7b8ce23cf4c,2021-09-27_14h10.42.482,forced_choiceRT_color,2021.2.3,Win32,60.28817749,,,,,,,,1,Slow,short,j,0,2.3427,8,2,34,0,1,,,,,
,1.65,,,,,,,,,f,blue,5ddc2ee14524e7b8ce23cf4c,2021-09-27_14h10.42.482,forced_choiceRT_color,2021.2.3,Win32,60.28817749,,,,,,,,1,Ontime,short,d,0,2.0149,8,3,35,1,1,,,,,
,1.49,,,,,,,,,j,red,5ddc2ee14524e7b8ce23cf4c,2021-09-27_14h10.42.482,forced_choiceRT_color,2021.2.3,Win32,60.28817749,,,,,,,,1,Slow,short,k,0,2.2108,9,0,36,2,1,,,,,
,0.45,,,,,,,,,k,purple,5ddc2ee14524e7b8ce23cf4c,2021-09-27_14h10.42.482,forced_choiceRT_color,2021.2.3,Win32,60.28817749,,,,,,,,1,Ontime,short,k,1,2.0687,9,1,37,3,1,,,,,
,1.53,,,,,,,,,d,orange,5ddc2ee14524e7b8ce23cf4c,2021-09-27_14h10.42.482,forced_choiceRT_color,2021.2.3,Win32,60.28817749,,,,,,,,1,Slow,short,f,0,2.2083,9,2,38,0,1,,,,,
,1.48,,,,,,,,,j,red,5ddc2ee14524e7b8ce23cf4c,2021-09-27_14h10.42.482,forced_choiceRT_color,2021.2.3,Win32,60.28817749,,,,,,,,1,Slow,short,f,0,2.2942,9,3,39,2,1,,,,,
,,,,,,,,,,,,5ddc2ee14524e7b8ce23cf4c,2021-09-27_14h10.42.482,forced_choiceRT_color,2021.2.3,Win32,60.28817749,,,,,,,,,,,,,,,,,,,0,0,0,0,1
,1.71,,,,,,,,,k,purple,5ddc2ee14524e7b8ce23cf4c,2021-09-27_14h10.42.482,forced_choiceRT_color,2021.2.3,Win32,60.28817749,,,,,,,,2,Slow,short,k,1,4.6181,0,0,0,3,1,,,,,
,0.78,,,,,,,,,f,blue,5ddc2ee14524e7b8ce23cf4c,2021-09-27_14h10.42.482,forced_choiceRT_color,2021.2.3,Win32,60.28817749,,,,,,,,2,Slow,short,f,1,2.3552,0,1,1,1,1,,,,,
,1.48,,,,,,,,,d,orange,5ddc2ee14524e7b8ce23cf4c,2021-09-27_14h10.42.482,forced_choiceRT_color,2021.2.3,Win32,60.28817749,,,,,,,,2,Slow,short,j,0,2.1593,0,2,2,0,1,,,,,
,0.46,,,,,,,,,d,orange,5ddc2ee14524e7b8ce23cf4c,2021-09-27_14h10.42.482,forced_choiceRT_color,2021.2.3,Win32,60.28817749,,,,,,,,2,Fast,short,j,0,1.787,0,3,3,0,1,,,,,
,0.12,,,,,,,,,f,blue,5ddc2ee14524e7b8ce23cf4c,2021-09-27_14h10.42.482,forced_choiceRT_color,2021.2.3,Win32,60.28817749,,,,,,,,2,Fast,short,f,1,1.6355,1,0,4,1,1,,,,,
,1.11,,,,,,,,,j,red,5ddc2ee14524e7b8ce23cf4c,2021-09-27_14h10.42.482,forced_choiceRT_color,2021.2.3,Win32,60.28817749,,,,,,,,2,Fast,short,j,1,1.8137,1,1,5,2,1,,,,,
,1.33,,,,,,,,,j,red,5ddc2ee14524e7b8ce23cf4c,2021-09-27_14h10.42.482,forced_choiceRT_color,2021.2.3,Win32,60.28817749,,,,,,,,2,Slow,short,j,1,2.1127,1,2,6,2,1,,,,,
,1.77,,,,,,,,,d,orange,5ddc2ee14524e7b8ce23cf4c,2021-09-27_14h10.42.482,forced_choiceRT_color,2021.2.3,Win32,60.28817749,,,,,,,,2,Ontime,short,j,0,1.933,1,3,7,0,1,,,,,
,1.97,,,,,,,,,f,blue,5ddc2ee14524e7b8ce23cf4c,2021-09-27_14h10.42.482,forced_choiceRT_color,2021.2.3,Win32,60.28817749,,,,,,,,2,Slow,short,f,1,2.9874,2,0,8,1,1,,,,,
,1.03,,,,,,,,,k,purple,5ddc2ee14524e7b8ce23cf4c,2021-09-27_14h10.42.482,forced_choiceRT_color,2021.2.3,Win32,60.28817749,,,,,,,,2,Fast,short,k,1,1.7659,2,1,9,3,1,,,,,
,1.27,,,,,,,,,d,orange,5ddc2ee14524e7b8ce23cf4c,2021-09-27_14h10.42.482,forced_choiceRT_color,2021.2.3,Win32,60.28817749,,,,,,,,2,Slow,short,j,0,2.2473,2,2,10,0,1,,,,,
,0.31,,,,,,,,,k,purple,5ddc2ee14524e7b8ce23cf4c,2021-09-27_14h10.42.482,forced_choiceRT_color,2021.2.3,Win32,60.28817749,,,,,,,,2,Ontime,short,k,1,1.9154,2,3,11,3,1,,,,,
,0.33,,,,,,,,,d,orange,5ddc2ee14524e7b8ce23cf4c,2021-09-27_14h10.42.482,forced_choiceRT_color,2021.2.3,Win32,60.28817749,,,,,,,,2,Fast,short,d,1,1.3815,3,0,12,0,1,,,,,
,0.35,,,,,,,,,j,red,5ddc2ee14524e7b8ce23cf4c,2021-09-27_14h10.42.482,forced_choiceRT_color,2021.2.3,Win32,60.28817749,,,,,,,,2,Ontime,short,j,1,1.9967,3,1,13,2,1,,,,,
,0.45,,,,,,,,,j,red,5ddc2ee14524e7b8ce23cf4c,2021-09-27_14h10.42.482,forced_choiceRT_color,2021.2.3,Win32,60.28817749,,,,,,,,2,Fast,short,j,1,1.8692,3,2,14,2,1,,,,,
,0.3,,,,,,,,,j,red,5ddc2ee14524e7b8ce23cf4c,2021-09-27_14h10.42.482,forced_choiceRT_color,2021.2.3,Win32,60.28817749,,,,,,,,2,Slow,short,j,1,2.1635,3,3,15,2,1,,,,,
,1.35,,,,,,,,,f,blue,5ddc2ee14524e7b8ce23cf4c,2021-09-27_14h10.42.482,forced_choiceRT_color,2021.2.3,Win32,60.28817749,,,,,,,,2,Slow,short,f,1,2.9441,4,0,16,1,1,,,,,
,1.21,,,,,,,,,d,orange,5ddc2ee14524e7b8ce23cf4c,2021-09-27_14h10.42.482,forced_choiceRT_color,2021.2.3,Win32,60.28817749,,,,,,,,2,Slow,short,d,1,2.1658,4,1,17,0,1,,,,,
,1.42,,,,,,,,,k,purple,5ddc2ee14524e7b8ce23cf4c,2021-09-27_14h10.42.482,forced_choiceRT_color,2021.2.3,Win32,60.28817749,,,,,,,,2,Slow,short,k,1,2.2197,4,2,18,3,1,,,,,
,0.16,,,,,,,,,j,red,5ddc2ee14524e7b8ce23cf4c,2021-09-27_14h10.42.482,forced_choiceRT_color,2021.2.3,Win32,60.28817749,,,,,,,,2,Ontime,short,j,1,1.9304,4,3,19,2,1,,,,,
,0.31,,,,,,,,,f,blue,5ddc2ee14524e7b8ce23cf4c,2021-09-27_14h10.42.482,forced_choiceRT_color,2021.2.3,Win32,60.28817749,,,,,,,,2,Ontime,short,f,1,1.9403,5,0,20,1,1,,,,,
,0.73,,,,,,,,,k,purple,5ddc2ee14524e7b8ce23cf4c,2021-09-27_14h10.42.482,forced_choiceRT_color,2021.2.3,Win32,60.28817749,,,,,,,,2,Ontime,short,k,1,1.9601,5,1,21,3,1,,,,,
,0.62,,,,,,,,,k,purple,5ddc2ee14524e7b8ce23cf4c,2021-09-27_14h10.42.482,forced_choiceRT_color,2021.2.3,Win32,60.28817749,,,,,,,,2,Ontime,short,k,1,2.0456,5,2,22,3,1,,,,,
,0.78,,,,,,,,,j,red,5ddc2ee14524e7b8ce23cf4c,2021-09-27_14h10.42.482,forced_choiceRT_color,2021.2.3,Win32,60.28817749,,,,,,,,2,Ontime,short,f,0,2.0969,5,3,23,2,1,,,,,
,1.98,,,,,,,,,k,purple,5ddc2ee14524e7b8ce23cf4c,2021-09-27_14h10.42.482,forced_choiceRT_color,2021.2.3,Win32,60.28817749,,,,,,,,2,Slow,short,k,1,2.5776,6,0,24,3,1,,,,,
,1.75,,,,,,,,,k,purple,5ddc2ee14524e7b8ce23cf4c,2021-09-27_14h10.42.482,forced_choiceRT_color,2021.2.3,Win32,60.28817749,,,,,,,,2,Slow,short,k,1,2.8944,6,1,25,3,1,,,,,
,0.51,,,,,,,,,d,orange,5ddc2ee14524e7b8ce23cf4c,2021-09-27_14h10.42.482,forced_choiceRT_color,2021.2.3,Win32,60.28817749,,,,,,,,2,Slow,short,d,1,2.3267,6,2,26,0,1,,,,,
,1.01,,,,,,,,,d,orange,5ddc2ee14524e7b8ce23cf4c,2021-09-27_14h10.42.482,forced_choiceRT_color,2021.2.3,Win32,60.28817749,,,,,,,,2,Slow,short,d,1,2.1121,6,3,27,0,1,,,,,
,0.15,,,,,,,,,f,blue,5ddc2ee14524e7b8ce23cf4c,2021-09-27_14h10.42.482,forced_choiceRT_color,2021.2.3,Win32,60.28817749,,,,,,,,2,Ontime,short,j,0,2.0167,7,0,28,1,1,,,,,
,0,,,,,,,,,k,purple,5ddc2ee14524e7b8ce23cf4c,2021-09-27_14h10.42.482,forced_choiceRT_color,2021.2.3,Win32,60.28817749,,,,,,,,2,Ontime,short,k,1,1.98,7,1,29,3,1,,,,,
,0.03,,,,,,,,,k,purple,5ddc2ee14524e7b8ce23cf4c,2021-09-27_14h10.42.482,forced_choiceRT_color,2021.2.3,Win32,60.28817749,,,,,,,,2,Ontime,short,k,1,2.0629,7,2,30,3,1,,,,,
,0.61,,,,,,,,,f,blue,5ddc2ee14524e7b8ce23cf4c,2021-09-27_14h10.42.482,forced_choiceRT_color,2021.2.3,Win32,60.28817749,,,,,,,,2,Fast,short,f,1,1.7804,7,3,31,1,1,,,,,
,0.05,,,,,,,,,j,red,5ddc2ee14524e7b8ce23cf4c,2021-09-27_14h10.42.482,forced_choiceRT_color,2021.2.3,Win32,60.28817749,,,,,,,,2,Slow,short,j,1,2.1637,8,0,32,2,1,,,,,
,1.17,,,,,,,,,d,orange,5ddc2ee14524e7b8ce23cf4c,2021-09-27_14h10.42.482,forced_choiceRT_color,2021.2.3,Win32,60.28817749,,,,,,,,2,Slow,short,f,0,2.3612,8,1,33,0,1,,,,,
,0.11,,,,,,,,,j,red,5ddc2ee14524e7b8ce23cf4c,2021-09-27_14h10.42.482,forced_choiceRT_color,2021.2.3,Win32,60.28817749,,,,,,,,2,Ontime,short,j,1,2.0181,8,2,34,2,1,,,,,
,0.52,,,,,,,,,f,blue,5ddc2ee14524e7b8ce23cf4c,2021-09-27_14h10.42.482,forced_choiceRT_color,2021.2.3,Win32,60.28817749,,,,,,,,2,Slow,short,j,0,2.1008,8,3,35,1,1,,,,,
,1.95,,,,,,,,,f,blue,5ddc2ee14524e7b8ce23cf4c,2021-09-27_14h10.42.482,forced_choiceRT_color,2021.2.3,Win32,60.28817749,,,,,,,,2,Slow,short,j,0,2.5461,9,0,36,1,1,,,,,
,0.12,,,,,,,,,j,red,5ddc2ee14524e7b8ce23cf4c,2021-09-27_14h10.42.482,forced_choiceRT_color,2021.2.3,Win32,60.28817749,,,,,,,,2,Slow,short,f,0,2.1253,9,1,37,2,1,,,,,
,1.96,,,,,,,,,d,orange,5ddc2ee14524e7b8ce23cf4c,2021-09-27_14h10.42.482,forced_choiceRT_color,2021.2.3,Win32,60.28817749,,,,,,,,2,Slow,short,k,0,2.5784,9,2,38,0,1,,,,,
,0.86,,,,,,,,,f,blue,5ddc2ee14524e7b8ce23cf4c,2021-09-27_14h10.42.482,forced_choiceRT_color,2021.2.3,Win32,60.28817749,,,,,,,,2,Slow,short,j,0,2.482,9,3,39,1,1,,,,,
,,,,,,,,,,,,5ddc2ee14524e7b8ce23cf4c,2021-09-27_14h10.42.482,forced_choiceRT_color,2021.2.3,Win32,60.28817749,,,,,,,,,,,,,,,,,,,1,0,1,0,1
,1.15,,,,,,,,,j,red,5ddc2ee14524e7b8ce23cf4c,2021-09-27_14h10.42.482,forced_choiceRT_color,2021.2.3,Win32,60.28817749,,,,,,,,3,Slow,short,j,1,2.3324,0,0,0,2,1,,,,,
,1.96,,,,,,,,,d,orange,5ddc2ee14524e7b8ce23cf4c,2021-09-27_14h10.42.482,forced_choiceRT_color,2021.2.3,Win32,60.28817749,,,,,,,,3,Slow,short,f,0,2.9477,0,1,1,0,1,,,,,
,1.22,,,,,,,,,d,orange,5ddc2ee14524e7b8ce23cf4c,2021-09-27_14h10.42.482,forced_choiceRT_color,2021.2.3,Win32,60.28817749,,,,,,,,3,Fast,short,f,0,1.7146,0,2,2,0,1,,,,,
,0.53,,,,,,,,,k,purple,5ddc2ee14524e7b8ce23cf4c,2021-09-27_14h10.42.482,forced_choiceRT_color,2021.2.3,Win32,60.28817749,,,,,,,,3,Ontime,short,k,1,1.9805,0,3,3,3,1,,,,,
,0,,,,,,,,,f,blue,5ddc2ee14524e7b8ce23cf4c,2021-09-27_14h10.42.482,forced_choiceRT_color,2021.2.3,Win32,60.28817749,,,,,,,,3,Ontime,short,j,0,1.9846,1,0,4,1,1,,,,,
,1.67,,,,,,,,,k,purple,5ddc2ee14524e7b8ce23cf4c,2021-09-27_14h10.42.482,forced_choiceRT_color,2021.2.3,Win32,60.28817749,,,,,,,,3,Ontime,short,k,1,2.0478,1,1,5,3,1,,,,,
,0.98,,,,,,,,,f,blue,5ddc2ee14524e7b8ce23cf4c,2021-09-27_14h10.42.482,forced_choiceRT_color,2021.2.3,Win32,60.28817749,,,,,,,,3,Ontime,short,j,0,2.0798,1,2,6,1,1,,,,,
,0.73,,,,,,,,,f,blue,5ddc2ee14524e7b8ce23cf4c,2021-09-27_14h10.42.482,forced_choiceRT_color,2021.2.3,Win32,60.28817749,,,,,,,,3,Ontime,short,j,0,1.9637,1,3,7,1,1,,,,,
,0.09,,,,,,,,,j,red,5ddc2ee14524e7b8ce23cf4c,2021-09-27_14h10.42.482,forced_choiceRT_color,2021.2.3,Win32,60.28817749,,,,,,,,3,Ontime,short,f,0,2.0636,2,0,8,2,1,,,,,
,1.39,,,,,,,,,d,orange,5ddc2ee14524e7b8ce23cf4c,2021-09-27_14h10.42.482,forced_choiceRT_color,2021.2.3,Win32,60.28817749,,,,,,,,3,Slow,short,d,1,2.3846,2,1,9,0,1,,,,,
,0.86,,,,,,,,,k,purple,5ddc2ee14524e7b8ce23cf4c,2021-09-27_14h10.42.482,forced_choiceRT_color,2021.2.3,Win32,60.28817749,,,,,,,,3,Ontime,short,k,1,1.9949,2,2,10,3,1,,,,,
,1.07,,,,,,,,,k,purple,5ddc2ee14524e7b8ce23cf4c,2021-09-27_14h10.42.482,forced_choiceRT_color,2021.2.3,Win32,60.28817749,,,,,,,,3,Ontime,short,k,1,2.0959,2,3,11,3,1,,,,,
,0.08,,,,,,,,,k,purple,5ddc2ee14524e7b8ce23cf4c,2021-09-27_14h10.42.482,forced_choiceRT_color,2021.2.3,Win32,60.28817749,,,,,,,,3,Ontime,short,k,1,1.9742,3,0,12,3,1,,,,,
,0.3,,,,,,,,,d,orange,5ddc2ee14524e7b8ce23cf4c,2021-09-27_14h10.42.482,forced_choiceRT_color,2021.2.3,Win32,60.28817749,,,,,,,,3,Ontime,short,d,1,1.9948,3,1,13,0,1,,,,,
,1.83,,,,,,,,,j,red,5ddc2ee14524e7b8ce23cf4c,2021-09-27_14h10.42.482,forced_choiceRT_color,2021.2.3,Win32,60.28817749,,,,,,,,3,Slow,short,f,0,2.3459,3,2,14,2,1,,,,,
,1.62,,,,,,,,,j,red,5ddc2ee14524e7b8ce23cf4c,2021-09-27_14h10.42.482,forced_choiceRT_color,2021.2.3,Win32,60.28817749,,,,,,,,3,Ontime,short,j,1,2.03,3,3,15,2,1,,,,,
,1.32,,,,,,,,,d,orange,5ddc2ee14524e7b8ce23cf4c,2021-09-27_14h10.42.482,forced_choiceRT_color,2021.2.3,Win32,60.28817749,,,,,,,,3,Slow,short,f,0,2.1716,4,0,16,0,1,,,,,
,1.01,,,,,,,,,f,blue,5ddc2ee14524e7b8ce23cf4c,2021-09-27_14h10.42.482,forced_choiceRT_color,2021.2.3,Win32,60.28817749,,,,,,,,3,Slow,short,f,1,2.4079,4,1,17,1,1,,,,,
,0.98,,,,,,,,,f,blue,5ddc2ee14524e7b8ce23cf4c,2021-09-27_14h10.42.482,forced_choiceRT_color,2021.2.3,Win32,60.28817749,,,,,,,,3,Ontime,short,f,1,1.9468,4,2,18,1,1,,,,,
,0.24,,,,,,,,,d,orange,5ddc2ee14524e7b8ce23cf4c,2021-09-27_14h10.42.482,forced_choiceRT_color,2021.2.3,Win32,60.28817749,,,,,,,,3,Ontime,short,d,1,2.0135,4,3,19,0,1,,,,,
,0.03,,,,,,,,,j,red,5ddc2ee14524e7b8ce23cf4c,2021-09-27_14h10.42.482,forced_choiceRT_color,2021.2.3,Win32,60.28817749,,,,,,,,3,Slow,short,j,1,2.2954,5,0,20,2,1,,,,,
,1.45,,,,,,,,,k,purple,5ddc2ee14524e7b8ce23cf4c,2021-09-27_14h10.42.482,forced_choiceRT_color,2021.2.3,Win32,60.28817749,,,,,,,,3,Slow,short,k,1,2.2959,5,1,21,3,1,,,,,
,0.93,,,,,,,,,d,orange,5ddc2ee14524e7b8ce23cf4c,2021-09-27_14h10.42.482,forced_choiceRT_color,2021.2.3,Win32,60.28817749,,,,,,,,3,Fast,short,d,1,1.5847,5,2,22,0,1,,,,,
,0.85,,,,,,,,,d,orange,5ddc2ee14524e7b8ce23cf4c,2021-09-27_14h10.42.482,forced_choiceRT_color,2021.2.3,Win32,60.28817749,,,,,,,,3,Ontime,short,d,1,1.928,5,3,23,0,1,,,,,
,0.45,,,,,,,,,d,orange,5ddc2ee14524e7b8ce23cf4c,2021-09-27_14h10.42.482,forced_choiceRT_color,2021.2.3,Win32,60.28817749,,,,,,,,3,Fast,short,d,1,1.824,6,0,24,0,1,,,,,
,0.7,,,,,,,,,j,red,5ddc2ee14524e7b8ce23cf4c,2021-09-27_14h10.42.482,forced_choiceRT_color,2021.2.3,Win32,60.28817749,,,,,,,,3,Ontime,short,j,1,1.9108,6,1,25,2,1,,,,,
,1.43,,,,,,,,,j,red,5ddc2ee14524e7b8ce23cf4c,2021-09-27_14h10.42.482,forced_choiceRT_color,2021.2.3,Win32,60.28817749,,,,,,,,3,Slow,short,j,1,2.2238,6,2,26,2,1,,,,,
,1.72,,,,,,,,,f,blue,5ddc2ee14524e7b8ce23cf4c,2021-09-27_14h10.42.482,forced_choiceRT_color,2021.2.3,Win32,60.28817749,,,,,,,,3,Slow,short,f,1,2.4395,6,3,27,1,1,,,,,
,0.7,,,,,,,,,k,purple,5ddc2ee14524e7b8ce23cf4c,2021-09-27_14h10.42.482,forced_choiceRT_color,2021.2.3,Win32,60.28817749,,,,,,,,3,Ontime,short,k,1,2.0021,7,0,28,3,1,,,,,
,1.41,,,,,,,,,f,blue,5ddc2ee14524e7b8ce23cf4c,2021-09-27_14h10.42.482,forced_choiceRT_color,2021.2.3,Win32,60.28817749,,,,,,,,3,Ontime,short,j,0,2.012,7,1,29,1,1,,,,,
,1.11,,,,,,,,,k,purple,5ddc2ee14524e7b8ce23cf4c,2021-09-27_14h10.42.482,forced_choiceRT_color,2021.2.3,Win32,60.28817749,,,,,,,,3,Ontime,short,k,1,1.9467,7,2,30,3,1,,,,,
,1.68,,,,,,,,,j,red,5ddc2ee14524e7b8ce23cf4c,2021-09-27_14h10.42.482,forced_choiceRT_color,2021.2.3,Win32,60.28817749,,,,,,,,3,Slow,short,j,1,2.2629,7,3,31,2,1,,,,,
,1.68,,,,,,,,,f,blue,5ddc2ee14524e7b8ce23cf4c,2021-09-27_14h10.42.482,forced_choiceRT_color,2021.2.3,Win32,60.28817749,,,,,,,,3,Slow,short,j,0,2.2392,8,0,32,1,1,,,,,
,1.81,,,,,,,,,j,red,5ddc2ee14524e7b8ce23cf4c,2021-09-27_14h10.42.482,forced_choiceRT_color,2021.2.3,Win32,60.28817749,,,,,,,,3,Slow,short,j,1,2.1984,8,1,33,2,1,,,,,
,1.92,,,,,,,,,j,red,5ddc2ee14524e7b8ce23cf4c,2021-09-27_14h10.42.482,forced_choiceRT_color,2021.2.3,Win32,60.28817749,,,,,,,,3,Slow,short,j,1,2.2293,8,2,34,2,1,,,,,
,1.84,,,,,,,,,k,purple,5ddc2ee14524e7b8ce23cf4c,2021-09-27_14h10.42.482,forced_choiceRT_color,2021.2.3,Win32,60.28817749,,,,,,,,3,Slow,short,j,0,2.1292,8,3,35,3,1,,,,,
,1.29,,,,,,,,,f,blue,5ddc2ee14524e7b8ce23cf4c,2021-09-27_14h10.42.482,forced_choiceRT_color,2021.2.3,Win32,60.28817749,,,,,,,,3,Ontime,short,f,1,2.043,9,0,36,1,1,,,,,
,0.52,,,,,,,,,k,purple,5ddc2ee14524e7b8ce23cf4c,2021-09-27_14h10.42.482,forced_choiceRT_color,2021.2.3,Win32,60.28817749,,,,,,,,3,Ontime,short,k,1,1.9305,9,1,37,3,1,,,,,
,1.62,,,,,,,,,f,blue,5ddc2ee14524e7b8ce23cf4c,2021-09-27_14h10.42.482,forced_choiceRT_color,2021.2.3,Win32,60.28817749,,,,,,,,3,Ontime,short,j,0,1.9669,9,2,38,1,1,,,,,
,0.89,,,,,,,,,d,orange,5ddc2ee14524e7b8ce23cf4c,2021-09-27_14h10.42.482,forced_choiceRT_color,2021.2.3,Win32,60.28817749,,,,,,,,3,Fast,short,d,1,1.8305,9,3,39,0,1,,,,,
,,,,,,,,,,,,5ddc2ee14524e7b8ce23cf4c,2021-09-27_14h10.42.482,forced_choiceRT_color,2021.2.3,Win32,60.28817749,,,,,,,,,,,,,,,,,,,2,0,2,0,1
,1.39,,,,,,,,,k,purple,5ddc2ee14524e7b8ce23cf4c,2021-09-27_14h10.42.482,forced_choiceRT_color,2021.2.3,Win32,60.28817749,,,,,,,,4,Ontime,short,k,1,2.0653,0,0,0,3,1,,,,,
,1.66,,,,,,,,,k,purple,5ddc2ee14524e7b8ce23cf4c,2021-09-27_14h10.42.482,forced_choiceRT_color,2021.2.3,Win32,60.28817749,,,,,,,,4,Slow,short,k,1,2.1461,0,1,1,3,1,,,,,
,0.06,,,,,,,,,k,purple,5ddc2ee14524e7b8ce23cf4c,2021-09-27_14h10.42.482,forced_choiceRT_color,2021.2.3,Win32,60.28817749,,,,,,,,4,Ontime,short,k,1,1.9149,0,2,2,3,1,,,,,
,0.82,,,,,,,,,j,red,5ddc2ee14524e7b8ce23cf4c,2021-09-27_14h10.42.482,forced_choiceRT_color,2021.2.3,Win32,60.28817749,,,,,,,,4,Fast,short,d,0,1.8539,0,3,3,2,1,,,,,
,1.62,,,,,,,,,j,red,5ddc2ee14524e7b8ce23cf4c,2021-09-27_14h10.42.482,forced_choiceRT_color,2021.2.3,Win32,60.28817749,,,,,,,,4,Ontime,short,f,0,2.0131,1,0,4,2,1,,,,,
,1.22,,,,,,,,,d,orange,5ddc2ee14524e7b8ce23cf4c,2021-09-27_14h10.42.482,forced_choiceRT_color,2021.2.3,Win32,60.28817749,,,,,,,,4,Slow,short,d,1,2.2485,1,1,5,0,1,,,,,
,0.05,,,,,,,,,d,orange,5ddc2ee14524e7b8ce23cf4c,2021-09-27_14h10.42.482,forced_choiceRT_color,2021.2.3,Win32,60.28817749,,,,,,,,4,Ontime,short,d,1,1.9352,1,2,6,0,1,,,,,
,0.89,,,,,,,,,d,orange,5ddc2ee14524e7b8ce23cf4c,2021-09-27_14h10.42.482,forced_choiceRT_color,2021.2.3,Win32,60.28817749,,,,,,,,4,Ontime,short,d,1,1.9961,1,3,7,0,1,,,,,
,1.47,,,,,,,,,k,purple,5ddc2ee14524e7b8ce23cf4c,2021-09-27_14h10.42.482,forced_choiceRT_color,2021.2.3,Win32,60.28817749,,,,,,,,4,Ontime,short,k,1,2.0633,2,0,8,3,1,,,,,
,1.67,,,,,,,,,f,blue,5ddc2ee14524e7b8ce23cf4c,2021-09-27_14h10.42.482,forced_choiceRT_color,2021.2.3,Win32,60.28817749,,,,,,,,4,Slow,short,j,0,2.2126,2,1,9,1,1,,,,,
,0.39,,,,,,,,,k,purple,5ddc2ee14524e7b8ce23cf4c,2021-09-27_14h10.42.482,forced_choiceRT_color,2021.2.3,Win32,60.28817749,,,,,,,,4,Ontime,short,k,1,1.9333,2,2,10,3,1,,,,,
,1,,,,,,,,,j,red,5ddc2ee14524e7b8ce23cf4c,2021-09-27_14h10.42.482,forced_choiceRT_color,2021.2.3,Win32,60.28817749,,,,,,,,4,Ontime,short,f,0,1.9804,2,3,11,2,1,,,,,
,0.72,,,,,,,,,d,orange,5ddc2ee14524e7b8ce23cf4c,2021-09-27_14h10.42.482,forced_choiceRT_color,2021.2.3,Win32,60.28817749,,,,,,,,4,Ontime,short,d,1,1.9132,3,0,12,0,1,,,,,
,1.7,,,,,,,,,f,blue,5ddc2ee14524e7b8ce23cf4c,2021-09-27_14h10.42.482,forced_choiceRT_color,2021.2.3,Win32,60.28817749,,,,,,,,4,Slow,short,j,0,2.2444,3,1,13,1,1,,,,,
,1.11,,,,,,,,,k,purple,5ddc2ee14524e7b8ce23cf4c,2021-09-27_14h10.42.482,forced_choiceRT_color,2021.2.3,Win32,60.28817749,,,,,,,,4,Slow,short,k,1,2.1464,3,2,14,3,1,,,,,
,0.99,,,,,,,,,k,purple,5ddc2ee14524e7b8ce23cf4c,2021-09-27_14h10.42.482,forced_choiceRT_color,2021.2.3,Win32,60.28817749,,,,,,,,4,Fast,short,k,1,1.5154,3,3,15,3,1,,,,,
,1.8,,,,,,,,,j,red,5ddc2ee14524e7b8ce23cf4c,2021-09-27_14h10.42.482,forced_choiceRT_color,2021.2.3,Win32,60.28817749,,,,,,,,4,Slow,short,f,0,2.3014,4,0,16,2,1,,,,,
,0.85,,,,,,,,,j,red,5ddc2ee14524e7b8ce23cf4c,2021-09-27_14h10.42.482,forced_choiceRT_color,2021.2.3,Win32,60.28817749,,,,,,,,4,Ontime,short,f,0,1.9384,4,1,17,2,1,,,,,
,0.16,,,,,,,,,f,blue,5ddc2ee14524e7b8ce23cf4c,2021-09-27_14h10.42.482,forced_choiceRT_color,2021.2.3,Win32,60.28817749,,,,,,,,4,Ontime,short,j,0,2.0393,4,2,18,1,1,,,,,
,1.22,,,,,,,,,d,orange,5ddc2ee14524e7b8ce23cf4c,2021-09-27_14h10.42.482,forced_choiceRT_color,2021.2.3,Win32,60.28817749,,,,,,,,4,Ontime,short,d,1,1.9281,4,3,19,0,1,,,,,
,1.53,,,,,,,,,d,orange,5ddc2ee14524e7b8ce23cf4c,2021-09-27_14h10.42.482,forced_choiceRT_color,2021.2.3,Win32,60.28817749,,,,,,,,4,Slow,short,d,1,2.8112,5,0,20,0,1,,,,,
,1.01,,,,,,,,,j,red,5ddc2ee14524e7b8ce23cf4c,2021-09-27_14h10.42.482,forced_choiceRT_color,2021.2.3,Win32,60.28817749,,,,,,,,4,Ontime,short,j,1,2.024,5,1,21,2,1,,,,,
,0.49,,,,,,,,,j,red,5ddc2ee14524e7b8ce23cf4c,2021-09-27_14h10.42.482,forced_choiceRT_color,2021.2.3,Win32,60.28817749,,,,,,,,4,Fast,short,j,1,1.8943,5,2,22,2,1,,,,,
,0.95,,,,,,,,,d,orange,5ddc2ee14524e7b8ce23cf4c,2021-09-27_14h10.42.482,forced_choiceRT_color,2021.2.3,Win32,60.28817749,,,,,,,,4,Slow,short,d,1,2.2128,5,3,23,0,1,,,,,
,0.57,,,,,,,,,f,blue,5ddc2ee14524e7b8ce23cf4c,2021-09-27_14h10.42.482,forced_choiceRT_color,2021.2.3,Win32,60.28817749,,,,,,,,4,Ontime,short,j,0,2.0793,6,0,24,1,1,,,,,
,1.11,,,,,,,,,f,blue,5ddc2ee14524e7b8ce23cf4c,2021-09-27_14h10.42.482,forced_choiceRT_color,2021.2.3,Win32,60.28817749,,,,,,,,4,Ontime,short,j,0,1.9262,6,1,25,1,1,,,,,
,0.08,,,,,,,,,k,purple,5ddc2ee14524e7b8ce23cf4c,2021-09-27_14h10.42.482,forced_choiceRT_color,2021.2.3,Win32,60.28817749,,,,,,,,4,Ontime,short,k,1,2.0131,6,2,26,3,1,,,,,
,1.45,,,,,,,,,j,red,5ddc2ee14524e7b8ce23cf4c,2021-09-27_14h10.42.482,forced_choiceRT_color,2021.2.3,Win32,60.28817749,,,,,,,,4,Slow,short,j,1,2.4548,6,3,27,2,1,,,,,
,0.09,,,,,,,,,f,blue,5ddc2ee14524e7b8ce23cf4c,2021-09-27_14h10.42.482,forced_choiceRT_color,2021.2.3,Win32,60.28817749,,,,,,,,4,Ontime,short,j,0,2.0556,7,0,28,1,1,,,,,
,1.55,,,,,,,,,j,red,5ddc2ee14524e7b8ce23cf4c,2021-09-27_14h10.42.482,forced_choiceRT_color,2021.2.3,Win32,60.28817749,,,,,,,,4,Ontime,short,j,1,2.0297,7,1,29,2,1,,,,,
,1.38,,,,,,,,,f,blue,5ddc2ee14524e7b8ce23cf4c,2021-09-27_14h10.42.482,forced_choiceRT_color,2021.2.3,Win32,60.28817749,,,,,,,,4,Ontime,short,j,0,1.9757,7,2,30,1,1,,,,,
,0.66,,,,,,,,,d,orange,5ddc2ee14524e7b8ce23cf4c,2021-09-27_14h10.42.482,forced_choiceRT_color,2021.2.3,Win32,60.28817749,,,,,,,,4,Ontime,short,d,1,1.9317,7,3,31,0,1,,,,,
,1.4,,,,,,,,,f,blue,5ddc2ee14524e7b8ce23cf4c,2021-09-27_14h10.42.482,forced_choiceRT_color,2021.2.3,Win32,60.28817749,,,,,,,,4,Ontime,short,j,0,2.0728,8,0,32,1,1,,,,,
,0.33,,,,,,,,,d,orange,5ddc2ee14524e7b8ce23cf4c,2021-09-27_14h10.42.482,forced_choiceRT_color,2021.2.3,Win32,60.28817749,,,,,,,,4,Slow,short,d,1,2.1806,8,1,33,0,1,,,,,
,0.28,,,,,,,,,j,red,5ddc2ee14524e7b8ce23cf4c,2021-09-27_14h10.42.482,forced_choiceRT_color,2021.2.3,Win32,60.28817749,,,,,,,,4,Ontime,short,j,1,2.0315,8,2,34,2,1,,,,,
,1.03,,,,,,,,,k,purple,5ddc2ee14524e7b8ce23cf4c,2021-09-27_14h10.42.482,forced_choiceRT_color,2021.2.3,Win32,60.28817749,,,,,,,,4,Fast,short,k,1,1.7153,8,3,35,3,1,,,,,
,0.24,,,,,,,,,k,purple,5ddc2ee14524e7b8ce23cf4c,2021-09-27_14h10.42.482,forced_choiceRT_color,2021.2.3,Win32,60.28817749,,,,,,,,4,Ontime,short,k,1,2.0787,9,0,36,3,1,,,,,
,0.65,,,,,,,,,f,blue,5ddc2ee14524e7b8ce23cf4c,2021-09-27_14h10.42.482,forced_choiceRT_color,2021.2.3,Win32,60.28817749,,,,,,,,4,Slow,short,j,0,2.1451,9,1,37,1,1,,,,,
,1.31,,,,,,,,,f,blue,5ddc2ee14524e7b8ce23cf4c,2021-09-27_14h10.42.482,forced_choiceRT_color,2021.2.3,Win32,60.28817749,,,,,,,,4,Slow,short,j,0,2.3124,9,2,38,1,1,,,,,
,1.77,,,,,,,,,d,orange,5ddc2ee14524e7b8ce23cf4c,2021-09-27_14h10.42.482,forced_choiceRT_color,2021.2.3,Win32,60.28817749,,,,,,,,4,Slow,short,d,1,2.3285,9,3,39,0,1,,,,,
,,,,,,,,,,,,5ddc2ee14524e7b8ce23cf4c,2021-09-27_14h10.42.482,forced_choiceRT_color,2021.2.3,Win32,60.28817749,,,,,,,,,,,,,,,,,,,3,0,3,0,1
,0.45,,,,,,,,,j,red,5ddc2ee14524e7b8ce23cf4c,2021-09-27_14h10.42.482,forced_choiceRT_color,2021.2.3,Win32,60.28817749,,,,,,,,5,Fast,short,j,1,1.8434,0,0,0,2,1,,,,,
,1.58,,,,,,,,,k,purple,5ddc2ee14524e7b8ce23cf4c,2021-09-27_14h10.42.482,forced_choiceRT_color,2021.2.3,Win32,60.28817749,,,,,,,,5,Slow,short,k,1,2.1796,0,1,1,3,1,,,,,
,0.39,,,,,,,,,d,orange,5ddc2ee14524e7b8ce23cf4c,2021-09-27_14h10.42.482,forced_choiceRT_color,2021.2.3,Win32,60.28817749,,,,,,,,5,Ontime,short,d,1,1.9603,0,2,2,0,1,,,,,
,0.22,,,,,,,,,k,purple,5ddc2ee14524e7b8ce23cf4c,2021-09-27_14h10.42.482,forced_choiceRT_color,2021.2.3,Win32,60.28817749,,,,,,,,5,Ontime,short,k,1,1.9006,0,3,3,3,1,,,,,
,0.87,,,,,,,,,d,orange,5ddc2ee14524e7b8ce23cf4c,2021-09-27_14h10.42.482,forced_choiceRT_color,2021.2.3,Win32,60.28817749,,,,,,,,5,Ontime,short,d,1,2.0132,1,0,4,0,1,,,,,
,1.61,,,,,,,,,d,orange,5ddc2ee14524e7b8ce23cf4c,2021-09-27_14h10.42.482,forced_choiceRT_color,2021.2.3,Win32,60.28817749,,,,,,,,5,Ontime,short,k,0,2.0913,1,1,5,0,1,,,,,
,1.22,,,,,,,,,f,blue,5ddc2ee14524e7b8ce23cf4c,2021-09-27_14h10.42.482,forced_choiceRT_color,2021.2.3,Win32,60.28817749,,,,,,,,5,Ontime,short,j,0,2.0299,1,2,6,1,1,,,,,
,0.95,,,,,,,,,k,purple,5ddc2ee14524e7b8ce23cf4c,2021-09-27_14h10.42.482,forced_choiceRT_color,2021.2.3,Win32,60.28817749,,,,,,,,5,Slow,short,k,1,2.1131,1,3,7,3,1,,,,,
,1.94,,,,,,,,,f,blue,5ddc2ee14524e7b8ce23cf4c,2021-09-27_14h10.42.482,forced_choiceRT_color,2021.2.3,Win32,60.28817749,,,,,,,,5,Slow,short,d,0,2.1296,2,0,8,1,1,,,,,
,1.23,,,,,,,,,f,blue,5ddc2ee14524e7b8ce23cf4c,2021-09-27_14h10.42.482,forced_choiceRT_color,2021.2.3,Win32,60.28817749,,,,,,,,5,Ontime,short,j,0,1.9464,2,1,9,1,1,,,,,
,1.52,,,,,,,,,f,blue,5ddc2ee14524e7b8ce23cf4c,2021-09-27_14h10.42.482,forced_choiceRT_color,2021.2.3,Win32,60.28817749,,,,,,,,5,Slow,short,j,0,2.2501,2,2,10,1,1,,,,,
,0.4,,,,,,,,,f,blue,5ddc2ee14524e7b8ce23cf4c,2021-09-27_14h10.42.482,forced_choiceRT_color,2021.2.3,Win32,60.28817749,,,,,,,,5,Fast,short,j,0,1.8261,2,3,11,1,1,,,,,
,0.28,,,,,,,,,k,purple,5ddc2ee14524e7b8ce23cf4c,2021-09-27_14h10.42.482,forced_choiceRT_color,2021.2.3,Win32,60.28817749,,,,,,,,5,Ontime,short,k,1,1.9623,3,0,12,3,1,,,,,
,0.63,,,,,,,,,k,purple,5ddc2ee14524e7b8ce23cf4c,2021-09-27_14h10.42.482,forced_choiceRT_color,2021.2.3,Win32,60.28817749,,,,,,,,5,Ontime,short,k,1,1.9336,3,1,13,3,1,,,,,
,0.76,,,,,,,,,f,blue,5ddc2ee14524e7b8ce23cf4c,2021-09-27_14h10.42.482,forced_choiceRT_color,2021.2.3,Win32,60.28817749,,,,,,,,5,Fast,short,j,0,1.8967,3,2,14,1,1,,,,,
,0.87,,,,,,,,,f,blue,5ddc2ee14524e7b8ce23cf4c,2021-09-27_14h10.42.482,forced_choiceRT_color,2021.2.3,Win32,60.28817749,,,,,,,,5,Ontime,short,j,0,2.0133,3,3,15,1,1,,,,,
,1.4,,,,,,,,,d,orange,5ddc2ee14524e7b8ce23cf4c,2021-09-27_14h10.42.482,forced_choiceRT_color,2021.2.3,Win32,60.28817749,,,,,,,,5,Ontime,short,d,1,2.0138,4,0,16,0,1,,,,,
,0.36,,,,,,,,,k,purple,5ddc2ee14524e7b8ce23cf4c,2021-09-27_14h10.42.482,forced_choiceRT_color,2021.2.3,Win32,60.28817749,,,,,,,,5,Slow,short,k,1,2.279,4,1,17,3,1,,,,,
,0.74,,,,,,,,,k,purple,5ddc2ee14524e7b8ce23cf4c,2021-09-27_14h10.42.482,forced_choiceRT_color,2021.2.3,Win32,60.28817749,,,,,,,,5,Ontime,short,k,1,2.0294,4,2,18,3,1,,,,,
,0.41,,,,,,,,,d,orange,5ddc2ee14524e7b8ce23cf4c,2021-09-27_14h10.42.482,forced_choiceRT_color,2021.2.3,Win32,60.28817749,,,,,,,,5,Fast,short,d,1,1.8831,4,3,19,0,1,,,,,
,1.62,,,,,,,,,d,orange,5ddc2ee14524e7b8ce23cf4c,2021-09-27_14h10.42.482,forced_choiceRT_color,2021.2.3,Win32,60.28817749,,,,,,,,5,Fast,short,j,0,1.8651,5,0,20,0,1,,,,,
,1.24,,,,,,,,,j,red,5ddc2ee14524e7b8ce23cf4c,2021-09-27_14h10.42.482,forced_choiceRT_color,2021.2.3,Win32,60.28817749,,,,,,,,5,Ontime,short,j,1,2.0305,5,1,21,2,1,,,,,
,1.43,,,,,,,,,k,purple,5ddc2ee14524e7b8ce23cf4c,2021-09-27_14h10.42.482,forced_choiceRT_color,2021.2.3,Win32,60.28817749,,,,,,,,5,Ontime,short,k,1,2.0298,5,2,22,3,1,,,,,
,1.98,,,,,,,,,j,red,5ddc2ee14524e7b8ce23cf4c,2021-09-27_14h10.42.482,forced_choiceRT_color,2021.2.3,Win32,60.28817749,,,,,,,,5,Slow,short,d,0,2.4789,5,3,23,2,1,,,,,
,0.13,,,,,,,,,k,purple,5ddc2ee14524e7b8ce23cf4c,2021-09-27_14h10.42.482,forced_choiceRT_color,2021.2.3,Win32,60.28817749,,,,,,,,5,Ontime,short,k,1,1.9969,6,0,24,3,1,,,,,
,0.17,,,,,,,,,f,blue,5ddc2ee14524e7b8ce23cf4c,2021-09-27_14h10.42.482,forced_choiceRT_color,2021.2.3,Win32,60.28817749,,,,,,,,5,Ontime,short,j,0,1.9134,6,1,25,1,1,,,,,
,0.07,,,,,,,,,d,orange,5ddc2ee14524e7b8ce23cf4c,2021-09-27_14h10.42.482,forced_choiceRT_color,2021.2.3,Win32,60.28817749,,,,,,,,5,Fast,short,d,1,1.8187,6,2,26,0,1,,,,,
,0.82,,,,,,,,,j,red,5ddc2ee14524e7b8ce23cf4c,2021-09-27_14h10.42.482,forced_choiceRT_color,2021.2.3,Win32,60.28817749,,,,,,,,5,Ontime,short,j,1,1.9467,6,3,27,2,1,,,,,
,1.18,,,,,,,,,k,purple,5ddc2ee14524e7b8ce23cf4c,2021-09-27_14h10.42.482,forced_choiceRT_color,2021.2.3,Win32,60.28817749,,,,,,,,5,Slow,short,k,1,2.1796,7,0,28,3,1,,,,,
,0.15,,,,,,,,,f,blue,5ddc2ee14524e7b8ce23cf4c,2021-09-27_14h10.42.482,forced_choiceRT_color,2021.2.3,Win32,60.28817749,,,,,,,,5,Fast,short,j,0,1.8963,7,1,29,1,1,,,,,
,1.29,,,,,,,,,j,red,5ddc2ee14524e7b8ce23cf4c,2021-09-27_14h10.42.482,forced_choiceRT_color,2021.2.3,Win32,60.28817749,,,,,,,,5,Ontime,short,j,1,2.03,7,2,30,2,1,,,,,
,1.74,,,,,,,,,j,red,5ddc2ee14524e7b8ce23cf4c,2021-09-27_14h10.42.482,forced_choiceRT_color,2021.2.3,Win32,60.28817749,,,,,,,,5,Slow,short,j,1,2.3141,7,3,31,2,1,,,,,
,0.55,,,,,,,,,j,red,5ddc2ee14524e7b8ce23cf4c,2021-09-27_14h10.42.482,forced_choiceRT_color,2021.2.3,Win32,60.28817749,,,,,,,,5,Ontime,short,j,1,1.9136,8,0,32,2,1,,,,,
,0.44,,,,,,,,,j,red,5ddc2ee14524e7b8ce23cf4c,2021-09-27_14h10.42.482,forced_choiceRT_color,2021.2.3,Win32,60.28817749,,,,,,,,5,Fast,short,j,1,1.8489,8,1,33,2,1,,,,,
,1.79,,,,,,,,,j,red,5ddc2ee14524e7b8ce23cf4c,2021-09-27_14h10.42.482,forced_choiceRT_color,2021.2.3,Win32,60.28817749,,,,,,,,5,Slow,short,j,1,2.3291,8,2,34,2,1,,,,,
,1.72,,,,,,,,,d,orange,5ddc2ee14524e7b8ce23cf4c,2021-09-27_14h10.42.482,forced_choiceRT_color,2021.2.3,Win32,60.28817749,,,,,,,,5,Slow,short,j,0,2.1153,8,3,35,0,1,,,,,
,1.19,,,,,,,,,d,orange,5ddc2ee14524e7b8ce23cf4c,2021-09-27_14h10.42.482,forced_choiceRT_color,2021.2.3,Win32,60.28817749,,,,,,,,5,Fast,short,d,1,1.7803,9,0,36,0,1,,,,,
,1.99,,,,,,,,,d,orange,5ddc2ee14524e7b8ce23cf4c,2021-09-27_14h10.42.482,forced_choiceRT_color,2021.2.3,Win32,60.28817749,,,,,,,,5,Slow,short,d,1,2.3147,9,1,37,0,1,,,,,
,0.85,,,,,,,,,j,red,5ddc2ee14524e7b8ce23cf4c,2021-09-27_14h10.42.482,forced_choiceRT_color,2021.2.3,Win32,60.28817749,,,,,,,,5,Ontime,short,j,1,1.9275,9,2,38,2,1,,,,,
,1.42,,,,,,,,,f,blue,5ddc2ee14524e7b8ce23cf4c,2021-09-27_14h10.42.482,forced_choiceRT_color,2021.2.3,Win32,60.28817749,,,,,,,,5,Slow,short,k,0,2.1364,9,3,39,1,1,,,,,
,,,,,,,,,,,,5ddc2ee14524e7b8ce23cf4c,2021-09-27_14h10.42.482,forced_choiceRT_color,2021.2.3,Win32,60.28817749,,,,,,,,,,,,,,,,,,,4,0,4,0,1
,0.88,,,,,,,,,k,purple,5ddc2ee14524e7b8ce23cf4c,2021-09-27_14h10.42.482,forced_choiceRT_color,2021.2.3,Win32,60.28817749,,,,,,,,6,Ontime,short,k,1,2.0919,0,0,0,3,1,,,,,
,1.7,,,,,,,,,d,orange,5ddc2ee14524e7b8ce23cf4c,2021-09-27_14h10.42.482,forced_choiceRT_color,2021.2.3,Win32,60.28817749,,,,,,,,6,Slow,short,d,1,2.3637,0,1,1,0,1,,,,,
,0.09,,,,,,,,,f,blue,5ddc2ee14524e7b8ce23cf4c,2021-09-27_14h10.42.482,forced_choiceRT_color,2021.2.3,Win32,60.28817749,,,,,,,,6,Ontime,short,f,1,2.0131,0,2,2,1,1,,,,,
,1.12,,,,,,,,,j,red,5ddc2ee14524e7b8ce23cf4c,2021-09-27_14h10.42.482,forced_choiceRT_color,2021.2.3,Win32,60.28817749,,,,,,,,6,Ontime,short,j,1,2.0285,0,3,3,2,1,,,,,
,0.12,,,,,,,,,d,orange,5ddc2ee14524e7b8ce23cf4c,2021-09-27_14h10.42.482,forced_choiceRT_color,2021.2.3,Win32,60.28817749,,,,,,,,6,Ontime,short,d,1,1.9799,1,0,4,0,1,,,,,
,0.02,,,,,,,,,f,blue,5ddc2ee14524e7b8ce23cf4c,2021-09-27_14h10.42.482,forced_choiceRT_color,2021.2.3,Win32,60.28817749,,,,,,,,6,Ontime,short,j,0,1.9457,1,1,5,1,1,,,,,
,1.36,,,,,,,,,j,red,5ddc2ee14524e7b8ce23cf4c,2021-09-27_14h10.42.482,forced_choiceRT_color,2021.2.3,Win32,60.28817749,,,,,,,,6,Slow,short,j,1,2.1135,1,2,6,2,1,,,,,
,1.38,,,,,,,,,k,purple,5ddc2ee14524e7b8ce23cf4c,2021-09-27_14h10.42.482,forced_choiceRT_color,2021.2.3,Win32,60.28817749,,,,,,,,6,Ontime,short,k,1,2.0704,1,3,7,3,1,,,,,
,0.93,,,,,,,,,k,purple,5ddc2ee14524e7b8ce23cf4c,2021-09-27_14h10.42.482,forced_choiceRT_color,2021.2.3,Win32,60.28817749,,,,,,,,6,Fast,short,k,1,1.5608,2,0,8,3,1,,,,,
,0.3,,,,,,,,,f,blue,5ddc2ee14524e7b8ce23cf4c,2021-09-27_14h10.42.482,forced_choiceRT_color,2021.2.3,Win32,60.28817749,,,,,,,,6,Ontime,short,f,1,2.0932,2,1,9,1,1,,,,,
,1.49,,,,,,,,,d,orange,5ddc2ee14524e7b8ce23cf4c,2021-09-27_14h10.42.482,forced_choiceRT_color,2021.2.3,Win32,60.28817749,,,,,,,,6,Slow,short,d,1,2.3309,2,2,10,0,1,,,,,
,0.53,,,,,,,,,k,purple,5ddc2ee14524e7b8ce23cf4c,2021-09-27_14h10.42.482,forced_choiceRT_color,2021.2.3,Win32,60.28817749,,,,,,,,6,Ontime,short,k,1,1.9817,2,3,11,3,1,,,,,
,1.66,,,,,,,,,j,red,5ddc2ee14524e7b8ce23cf4c,2021-09-27_14h10.42.482,forced_choiceRT_color,2021.2.3,Win32,60.28817749,,,,,,,,6,Ontime,short,j,1,1.9965,3,0,12,2,1,,,,,
,1.82,,,,,,,,,f,blue,5ddc2ee14524e7b8ce23cf4c,2021-09-27_14h10.42.482,forced_choiceRT_color,2021.2.3,Win32,60.28817749,,,,,,,,6,Ontime,short,j,0,1.9798,3,1,13,1,1,,,,,
,1.97,,,,,,,,,j,red,5ddc2ee14524e7b8ce23cf4c,2021-09-27_14h10.42.482,forced_choiceRT_color,2021.2.3,Win32,60.28817749,,,,,,,,6,Slow,short,j,1,2.1435,3,2,14,2,1,,,,,
,1.47,,,,,,,,,k,purple,5ddc2ee14524e7b8ce23cf4c,2021-09-27_14h10.42.482,forced_choiceRT_color,2021.2.3,Win32,60.28817749,,,,,,,,6,Fast,short,k,1,1.8491,3,3,15,3,1,,,,,
,1.78,,,,,,,,,d,orange,5ddc2ee14524e7b8ce23cf4c,2021-09-27_14h10.42.482,forced_choiceRT_color,2021.2.3,Win32,60.28817749,,,,,,,,6,Slow,short,d,1,2.2791,4,0,16,0,1,,,,,
,0.7,,,,,,,,,k,purple,5ddc2ee14524e7b8ce23cf4c,2021-09-27_14h10.42.482,forced_choiceRT_color,2021.2.3,Win32,60.28817749,,,,,,,,6,Ontime,short,j,0,1.9289,4,1,17,3,1,,,,,
,1.03,,,,,,,,,f,blue,5ddc2ee14524e7b8ce23cf4c,2021-09-27_14h10.42.482,forced_choiceRT_color,2021.2.3,Win32,60.28817749,,,,,,,,6,Fast,short,j,0,1.6477,4,2,18,1,1,,,,,
,0.34,,,,,,,,,k,purple,5ddc2ee14524e7b8ce23cf4c,2021-09-27_14h10.42.482,forced_choiceRT_color,2021.2.3,Win32,60.28817749,,,,,,,,6,Ontime,short,k,1,1.9799,4,3,19,3,1,,,,,
,1.51,,,,,,,,,k,purple,5ddc2ee14524e7b8ce23cf4c,2021-09-27_14h10.42.482,forced_choiceRT_color,2021.2.3,Win32,60.28817749,,,,,,,,6,Slow,short,k,1,2.1465,5,0,20,3,1,,,,,
,0.03,,,,,,,,,j,red,5ddc2ee14524e7b8ce23cf4c,2021-09-27_14h10.42.482,forced_choiceRT_color,2021.2.3,Win32,60.28817749,,,,,,,,6,Ontime,short,f,0,1.9013,5,1,21,2,1,,,,,
,0.09,,,,,,,,,d,orange,5ddc2ee14524e7b8ce23cf4c,2021-09-27_14h10.42.482,forced_choiceRT_color,2021.2.3,Win32,60.28817749,,,,,,,,6,Fast,short,d,1,1.8303,5,2,22,0,1,,,,,
,0.99,,,,,,,,,d,orange,5ddc2ee14524e7b8ce23cf4c,2021-09-27_14h10.42.482,forced_choiceRT_color,2021.2.3,Win32,60.28817749,,,,,,,,6,Ontime,short,d,1,2.0299,5,3,23,0,1,,,,,
,1.72,,,,,,,,,j,red,5ddc2ee14524e7b8ce23cf4c,2021-09-27_14h10.42.482,forced_choiceRT_color,2021.2.3,Win32,60.28817749,,,,,,,,6,Ontime,short,j,1,1.9468,6,0,24,2,1,,,,,
,0.19,,,,,,,,,f,blue,5ddc2ee14524e7b8ce23cf4c,2021-09-27_14h10.42.482,forced_choiceRT_color,2021.2.3,Win32,60.28817749,,,,,,,,6,Slow,short,f,1,2.1339,6,1,25,1,1,,,,,
,1.13,,,,,,,,,j,red,5ddc2ee14524e7b8ce23cf4c,2021-09-27_14h10.42.482,forced_choiceRT_color,2021.2.3,Win32,60.28817749,,,,,,,,6,Fast,short,j,1,1.8983,6,2,26,2,1,,,,,
,0.46,,,,,,,,,d,orange,5ddc2ee14524e7b8ce23cf4c,2021-09-27_14h10.42.482,forced_choiceRT_color,2021.2.3,Win32,60.28817749,,,,,,,,6,Ontime,short,d,1,2.095,6,3,27,0,1,,,,,
,0.06,,,,,,,,,j,red,5ddc2ee14524e7b8ce23cf4c,2021-09-27_14h10.42.482,forced_choiceRT_color,2021.2.3,Win32,60.28817749,,,,,,,,6,Fast,short,j,1,1.8334,7,0,28,2,1,,,,,
,0,,,,,,,,,j,red,5ddc2ee14524e7b8ce23cf4c,2021-09-27_14h10.42.482,forced_choiceRT_color,2021.2.3,Win32,60.28817749,,,,,,,,6,Ontime,short,j,1,2.0637,7,1,29,2,1,,,,,
,0.35,,,,,,,,,f,blue,5ddc2ee14524e7b8ce23cf4c,2021-09-27_14h10.42.482,forced_choiceRT_color,2021.2.3,Win32,60.28817749,,,,,,,,6,Ontime,short,j,0,2.0181,7,2,30,1,1,,,,,
,1.36,,,,,,,,,f,blue,5ddc2ee14524e7b8ce23cf4c,2021-09-27_14h10.42.482,forced_choiceRT_color,2021.2.3,Win32,60.28817749,,,,,,,,6,Ontime,short,j,0,1.9481,7,3,31,1,1,,,,,
,1.37,,,,,,,,,j,red,5ddc2ee14524e7b8ce23cf4c,2021-09-27_14h10.42.482,forced_choiceRT_color,2021.2.3,Win32,60.28817749,,,,,,,,6,Fast,short,j,1,1.8308,8,0,32,2,1,,,,,
,1.63,,,,,,,,,f,blue,5ddc2ee14524e7b8ce23cf4c,2021-09-27_14h10.42.482,forced_choiceRT_color,2021.2.3,Win32,60.28817749,,,,,,,,6,Ontime,short,f,1,2.0466,8,1,33,1,1,,,,,
,0.75,,,,,,,,,k,purple,5ddc2ee14524e7b8ce23cf4c,2021-09-27_14h10.42.482,forced_choiceRT_color,2021.2.3,Win32,60.28817749,,,,,,,,6,Ontime,short,k,1,2.0786,8,2,34,3,1,,,,,
,1.01,,,,,,,,,d,orange,5ddc2ee14524e7b8ce23cf4c,2021-09-27_14h10.42.482,forced_choiceRT_color,2021.2.3,Win32,60.28817749,,,,,,,,6,Ontime,short,d,1,1.9134,8,3,35,0,1,,,,,
,1,,,,,,,,,f,blue,5ddc2ee14524e7b8ce23cf4c,2021-09-27_14h10.42.482,forced_choiceRT_color,2021.2.3,Win32,60.28817749,,,,,,,,6,Ontime,short,j,0,2.0653,9,0,36,1,1,,,,,
,0,,,,,,,,,d,orange,5ddc2ee14524e7b8ce23cf4c,2021-09-27_14h10.42.482,forced_choiceRT_color,2021.2.3,Win32,60.28817749,,,,,,,,6,Ontime,short,d,1,2.0183,9,1,37,0,1,,,,,
,0.54,,,,,,,,,k,purple,5ddc2ee14524e7b8ce23cf4c,2021-09-27_14h10.42.482,forced_choiceRT_color,2021.2.3,Win32,60.28817749,,,,,,,,6,Ontime,short,k,1,2.0616,9,2,38,3,1,,,,,
,0.15,,,,,,,,,d,orange,5ddc2ee14524e7b8ce23cf4c,2021-09-27_14h10.42.482,forced_choiceRT_color,2021.2.3,Win32,60.28817749,,,,,,,,6,Ontime,short,d,1,1.9651,9,3,39,0,1,,,,,
,,,,,,,,,,,,5ddc2ee14524e7b8ce23cf4c,2021-09-27_14h10.42.482,forced_choiceRT_color,2021.2.3,Win32,60.28817749,,,,,,,,,,,,,,,,,,,5,0,5,0,1
,1.92,,,,,,,,,f,blue,5ddc2ee14524e7b8ce23cf4c,2021-09-27_14h10.42.482,forced_choiceRT_color,2021.2.3,Win32,60.28817749,,,,,,,,7,Slow,short,j,0,2.4551,0,0,0,1,1,,,,,
,0.85,,,,,,,,,j,red,5ddc2ee14524e7b8ce23cf4c,2021-09-27_14h10.42.482,forced_choiceRT_color,2021.2.3,Win32,60.28817749,,,,,,,,7,Ontime,short,f,0,2.0389,0,1,1,2,1,,,,,
,0.09,,,,,,,,,k,purple,5ddc2ee14524e7b8ce23cf4c,2021-09-27_14h10.42.482,forced_choiceRT_color,2021.2.3,Win32,60.28817749,,,,,,,,7,Slow,short,k,1,2.1689,0,2,2,3,1,,,,,
,1.62,,,,,,,,,j,red,5ddc2ee14524e7b8ce23cf4c,2021-09-27_14h10.42.482,forced_choiceRT_color,2021.2.3,Win32,60.28817749,,,,,,,,7,Slow,short,j,1,2.1794,0,3,3,2,1,,,,,
,1.37,,,,,,,,,j,red,5ddc2ee14524e7b8ce23cf4c,2021-09-27_14h10.42.482,forced_choiceRT_color,2021.2.3,Win32,60.28817749,,,,,,,,7,Fast,short,j,1,1.8304,1,0,4,2,1,,,,,
,1.8,,,,,,,,,k,purple,5ddc2ee14524e7b8ce23cf4c,2021-09-27_14h10.42.482,forced_choiceRT_color,2021.2.3,Win32,60.28817749,,,,,,,,7,Slow,short,k,1,2.119,1,1,5,3,1,,,,,
,1.15,,,,,,,,,d,orange,5ddc2ee14524e7b8ce23cf4c,2021-09-27_14h10.42.482,forced_choiceRT_color,2021.2.3,Win32,60.28817749,,,,,,,,7,Ontime,short,d,1,1.9619,1,2,6,0,1,,,,,
,0.72,,,,,,,,,k,purple,5ddc2ee14524e7b8ce23cf4c,2021-09-27_14h10.42.482,forced_choiceRT_color,2021.2.3,Win32,60.28817749,,,,,,,,7,Ontime,short,k,1,1.9124,1,3,7,3,1,,,,,
,1.39,,,,,,,,,f,blue,5ddc2ee14524e7b8ce23cf4c,2021-09-27_14h10.42.482,forced_choiceRT_color,2021.2.3,Win32,60.28817749,,,,,,,,7,Fast,short,j,0,1.7475,2,0,8,1,1,,,,,
,0.51,,,,,,,,,j,red,5ddc2ee14524e7b8ce23cf4c,2021-09-27_14h10.42.482,forced_choiceRT_color,2021.2.3,Win32,60.28817749,,,,,,,,7,Ontime,short,f,0,2.0461,2,1,9,2,1,,,,,
,1.82,,,,,,,,,d,orange,5ddc2ee14524e7b8ce23cf4c,2021-09-27_14h10.42.482,forced_choiceRT_color,2021.2.3,Win32,60.28817749,,,,,,,,7,Slow,short,j,0,2.2933,2,2,10,0,1,,,,,
,1.62,,,,,,,,,d,orange,5ddc2ee14524e7b8ce23cf4c,2021-09-27_14h10.42.482,forced_choiceRT_color,2021.2.3,Win32,60.28817749,,,,,,,,7,Slow,short,d,1,2.2143,2,3,11,0,1,,,,,
,0.17,,,,,,,,,f,blue,5ddc2ee14524e7b8ce23cf4c,2021-09-27_14h10.42.482,forced_choiceRT_color,2021.2.3,Win32,60.28817749,,,,,,,,7,Fast,short,j,0,1.5465,3,0,12,1,1,,,,,
,1.24,,,,,,,,,j,red,5ddc2ee14524e7b8ce23cf4c,2021-09-27_14h10.42.482,forced_choiceRT_color,2021.2.3,Win32,60.28817749,,,,,,,,7,Ontime,short,j,1,2.03,3,1,13,2,1,,,,,
,1.38,,,,,,,,,j,red,5ddc2ee14524e7b8ce23cf4c,2021-09-27_14h10.42.482,forced_choiceRT_color,2021.2.3,Win32,60.28817749,,,,,,,,7,Slow,short,j,1,2.2125,3,2,14,2,1,,,,,
,0.2,,,,,,,,,f,blue,5ddc2ee14524e7b8ce23cf4c,2021-09-27_14h10.42.482,forced_choiceRT_color,2021.2.3,Win32,60.28817749,,,,,,,,7,Slow,short,f,1,2.1292,3,3,15,1,1,,,,,
,1.87,,,,,,,,,d,orange,5ddc2ee14524e7b8ce23cf4c,2021-09-27_14h10.42.482,forced_choiceRT_color,2021.2.3,Win32,60.28817749,,,,,,,,7,Ontime,short,j,0,2.047,4,0,16,0,1,,,,,
,0.92,,,,,,,,,j,red,5ddc2ee14524e7b8ce23cf4c,2021-09-27_14h10.42.482,forced_choiceRT_color,2021.2.3,Win32,60.28817749,,,,,,,,7,Ontime,short,j,1,1.9964,4,1,17,2,1,,,,,
,0.7,,,,,,,,,k,purple,5ddc2ee14524e7b8ce23cf4c,2021-09-27_14h10.42.482,forced_choiceRT_color,2021.2.3,Win32,60.28817749,,,,,,,,7,Ontime,short,k,1,1.9984,4,2,18,3,1,,,,,
,0.25,,,,,,,,,f,blue,5ddc2ee14524e7b8ce23cf4c,2021-09-27_14h10.42.482,forced_choiceRT_color,2021.2.3,Win32,60.28817749,,,,,,,,7,Ontime,short,f,1,2.0824,4,3,19,1,1,,,,,
,1.64,,,,,,,,,f,blue,5ddc2ee14524e7b8ce23cf4c,2021-09-27_14h10.42.482,forced_choiceRT_color,2021.2.3,Win32,60.28817749,,,,,,,,7,Slow,short,f,1,2.2476,5,0,20,1,1,,,,,
,0.42,,,,,,,,,k,purple,5ddc2ee14524e7b8ce23cf4c,2021-09-27_14h10.42.482,forced_choiceRT_color,2021.2.3,Win32,60.28817749,,,,,,,,7,Ontime,short,k,1,2.0773,5,1,21,3,1,,,,,
,0.51,,,,,,,,,d,orange,5ddc2ee14524e7b8ce23cf4c,2021-09-27_14h10.42.482,forced_choiceRT_color,2021.2.3,Win32,60.28817749,,,,,,,,7,Ontime,short,d,1,1.9039,5,2,22,0,1,,,,,
,1.72,,,,,,,,,f,blue,5ddc2ee14524e7b8ce23cf4c,2021-09-27_14h10.42.482,forced_choiceRT_color,2021.2.3,Win32,60.28817749,,,,,,,,7,Ontime,short,j,0,2.0965,5,3,23,1,1,,,,,
,0.79,,,,,,,,,f,blue,5ddc2ee14524e7b8ce23cf4c,2021-09-27_14h10.42.482,forced_choiceRT_color,2021.2.3,Win32,60.28817749,,,,,,,,7,Fast,short,j,0,1.8803,6,0,24,1,1,,,,,
,0.21,,,,,,,,,f,blue,5ddc2ee14524e7b8ce23cf4c,2021-09-27_14h10.42.482,forced_choiceRT_color,2021.2.3,Win32,60.28817749,,,,,,,,7,Ontime,short,j,0,1.998,6,1,25,1,1,,,,,
,1.47,,,,,,,,,k,purple,5ddc2ee14524e7b8ce23cf4c,2021-09-27_14h10.42.482,forced_choiceRT_color,2021.2.3,Win32,60.28817749,,,,,,,,7,Slow,short,k,1,2.1459,6,2,26,3,1,,,,,
,0.9,,,,,,,,,k,purple,5ddc2ee14524e7b8ce23cf4c,2021-09-27_14h10.42.482,forced_choiceRT_color,2021.2.3,Win32,60.28817749,,,,,,,,7,Ontime,short,k,1,2.063,6,3,27,3,1,,,,,
,1.36,,,,,,,,,j,red,5ddc2ee14524e7b8ce23cf4c,2021-09-27_14h10.42.482,forced_choiceRT_color,2021.2.3,Win32,60.28817749,,,,,,,,7,Ontime,short,j,1,1.9999,7,0,28,2,1,,,,,
,1.23,,,,,,,,,j,red,5ddc2ee14524e7b8ce23cf4c,2021-09-27_14h10.42.482,forced_choiceRT_color,2021.2.3,Win32,60.28817749,,,,,,,,7,Fast,short,j,1,1.6852,7,1,29,2,1,,,,,
,0,,,,,,,,,k,purple,5ddc2ee14524e7b8ce23cf4c,2021-09-27_14h10.42.482,forced_choiceRT_color,2021.2.3,Win32,60.28817749,,,,,,,,7,Ontime,short,k,1,2.0652,7,2,30,3,1,,,,,
,1.47,,,,,,,,,k,purple,5ddc2ee14524e7b8ce23cf4c,2021-09-27_14h10.42.482,forced_choiceRT_color,2021.2.3,Win32,60.28817749,,,,,,,,7,Ontime,short,k,1,2.0995,7,3,31,3,1,,,,,
,1.69,,,,,,,,,d,orange,5ddc2ee14524e7b8ce23cf4c,2021-09-27_14h10.42.482,forced_choiceRT_color,2021.2.3,Win32,60.28817749,,,,,,,,7,Slow,short,f,0,2.1797,8,0,32,0,1,,,,,
,0.43,,,,,,,,,k,purple,5ddc2ee14524e7b8ce23cf4c,2021-09-27_14h10.42.482,forced_choiceRT_color,2021.2.3,Win32,60.28817749,,,,,,,,7,Slow,short,k,1,2.1293,8,1,33,3,1,,,,,
,0.3,,,,,,,,,d,orange,5ddc2ee14524e7b8ce23cf4c,2021-09-27_14h10.42.482,forced_choiceRT_color,2021.2.3,Win32,60.28817749,,,,,,,,7,Slow,short,d,1,2.1135,8,2,34,0,1,,,,,
,0.58,,,,,,,,,f,blue,5ddc2ee14524e7b8ce23cf4c,2021-09-27_14h10.42.482,forced_choiceRT_color,2021.2.3,Win32,60.28817749,,,,,,,,7,Ontime,short,j,0,1.994,8,3,35,1,1,,,,,
,1.23,,,,,,,,,d,orange,5ddc2ee14524e7b8ce23cf4c,2021-09-27_14h10.42.482,forced_choiceRT_color,2021.2.3,Win32,60.28817749,,,,,,,,7,Ontime,short,d,1,2.0142,9,0,36,0,1,,,,,
,0.18,,,,,,,,,d,orange,5ddc2ee14524e7b8ce23cf4c,2021-09-27_14h10.42.482,forced_choiceRT_color,2021.2.3,Win32,60.28817749,,,,,,,,7,Slow,short,d,1,2.1632,9,1,37,0,1,,,,,
,0.44,,,,,,,,,j,red,5ddc2ee14524e7b8ce23cf4c,2021-09-27_14h10.42.482,forced_choiceRT_color,2021.2.3,Win32,60.28817749,,,,,,,,7,Ontime,short,f,0,1.9474,9,2,38,2,1,,,,,
,1.77,,,,,,,,,d,orange,5ddc2ee14524e7b8ce23cf4c,2021-09-27_14h10.42.482,forced_choiceRT_color,2021.2.3,Win32,60.28817749,,,,,,,,7,Ontime,short,j,0,1.9967,9,3,39,0,1,,,,,
,,,,,,,,,,,,5ddc2ee14524e7b8ce23cf4c,2021-09-27_14h10.42.482,forced_choiceRT_color,2021.2.3,Win32,60.28817749,,,,,,,,,,,,,,,,,,,6,0,6,0,1
,1.19,,,,,,,,,f,blue,5ddc2ee14524e7b8ce23cf4c,2021-09-27_14h10.42.482,forced_choiceRT_color,2021.2.3,Win32,60.28817749,,,,,,,,8,Fast,short,j,0,1.8681,0,0,0,1,1,,,,,
,0.45,,,,,,,,,d,orange,5ddc2ee14524e7b8ce23cf4c,2021-09-27_14h10.42.482,forced_choiceRT_color,2021.2.3,Win32,60.28817749,,,,,,,,8,Ontime,short,d,1,2.0397,0,1,1,0,1,,,,,
,0.21,,,,,,,,,k,purple,5ddc2ee14524e7b8ce23cf4c,2021-09-27_14h10.42.482,forced_choiceRT_color,2021.2.3,Win32,60.28817749,,,,,,,,8,Slow,short,k,1,2.1623,0,2,2,3,1,,,,,
,0.26,,,,,,,,,k,purple,5ddc2ee14524e7b8ce23cf4c,2021-09-27_14h10.42.482,forced_choiceRT_color,2021.2.3,Win32,60.28817749,,,,,,,,8,Slow,short,k,1,2.1318,0,3,3,3,1,,,,,
,1.52,,,,,,,,,j,red,5ddc2ee14524e7b8ce23cf4c,2021-09-27_14h10.42.482,forced_choiceRT_color,2021.2.3,Win32,60.28817749,,,,,,,,8,Slow,short,k,0,2.2203,1,0,4,2,1,,,,,
,0.25,,,,,,,,,k,purple,5ddc2ee14524e7b8ce23cf4c,2021-09-27_14h10.42.482,forced_choiceRT_color,2021.2.3,Win32,60.28817749,,,,,,,,8,Fast,short,k,1,1.8809,1,1,5,3,1,,,,,
,1.26,,,,,,,,,j,red,5ddc2ee14524e7b8ce23cf4c,2021-09-27_14h10.42.482,forced_choiceRT_color,2021.2.3,Win32,60.28817749,,,,,,,,8,Ontime,short,j,1,1.9819,1,2,6,2,1,,,,,
,1.89,,,,,,,,,j,red,5ddc2ee14524e7b8ce23cf4c,2021-09-27_14h10.42.482,forced_choiceRT_color,2021.2.3,Win32,60.28817749,,,,,,,,8,Slow,short,f,0,2.2592,1,3,7,2,1,,,,,
,1.55,,,,,,,,,d,orange,5ddc2ee14524e7b8ce23cf4c,2021-09-27_14h10.42.482,forced_choiceRT_color,2021.2.3,Win32,60.28817749,,,,,,,,8,Slow,short,d,1,2.1517,2,0,8,0,1,,,,,
,0.21,,,,,,,,,f,blue,5ddc2ee14524e7b8ce23cf4c,2021-09-27_14h10.42.482,forced_choiceRT_color,2021.2.3,Win32,60.28817749,,,,,,,,8,Fast,short,f,1,1.8942,2,1,9,1,1,,,,,
,1.97,,,,,,,,,k,purple,5ddc2ee14524e7b8ce23cf4c,2021-09-27_14h10.42.482,forced_choiceRT_color,2021.2.3,Win32,60.28817749,,,,,,,,8,Ontime,short,f,0,1.963,2,2,10,3,1,,,,,
,0.44,,,,,,,,,d,orange,5ddc2ee14524e7b8ce23cf4c,2021-09-27_14h10.42.482,forced_choiceRT_color,2021.2.3,Win32,60.28817749,,,,,,,,8,Ontime,short,j,0,2.0064,2,3,11,0,1,,,,,
,1.42,,,,,,,,,j,red,5ddc2ee14524e7b8ce23cf4c,2021-09-27_14h10.42.482,forced_choiceRT_color,2021.2.3,Win32,60.28817749,,,,,,,,8,Slow,short,j,1,2.1339,3,0,12,2,1,,,,,
,1.71,,,,,,,,,f,blue,5ddc2ee14524e7b8ce23cf4c,2021-09-27_14h10.42.482,forced_choiceRT_color,2021.2.3,Win32,60.28817749,,,,,,,,8,Ontime,short,f,1,2.0376,3,1,13,1,1,,,,,
,1.58,,,,,,,,,d,orange,5ddc2ee14524e7b8ce23cf4c,2021-09-27_14h10.42.482,forced_choiceRT_color,2021.2.3,Win32,60.28817749,,,,,,,,8,Slow,short,d,1,2.3086,3,2,14,0,1,,,,,
,1.49,,,,,,,,,d,orange,5ddc2ee14524e7b8ce23cf4c,2021-09-27_14h10.42.482,forced_choiceRT_color,2021.2.3,Win32,60.28817749,,,,,,,,8,Ontime,short,f,0,2.058,3,3,15,0,1,,,,,
,1.71,,,,,,,,,k,purple,5ddc2ee14524e7b8ce23cf4c,2021-09-27_14h10.42.482,forced_choiceRT_color,2021.2.3,Win32,60.28817749,,,,,,,,8,Slow,short,k,1,2.812,4,0,16,3,1,,,,,
,1.33,,,,,,,,,k,purple,5ddc2ee14524e7b8ce23cf4c,2021-09-27_14h10.42.482,forced_choiceRT_color,2021.2.3,Win32,60.28817749,,,,,,,,8,Slow,short,k,1,2.2018,4,1,17,3,1,,,,,
,1.47,,,,,,,,,d,orange,5ddc2ee14524e7b8ce23cf4c,2021-09-27_14h10.42.482,forced_choiceRT_color,2021.2.3,Win32,60.28817749,,,,,,,,8,Slow,short,f,0,2.2326,4,2,18,0,1,,,,,
,0.92,,,,,,,,,j,red,5ddc2ee14524e7b8ce23cf4c,2021-09-27_14h10.42.482,forced_choiceRT_color,2021.2.3,Win32,60.28817749,,,,,,,,8,Fast,short,j,1,1.7591,4,3,19,2,1,,,,,
,1.82,,,,,,,,,j,red,5ddc2ee14524e7b8ce23cf4c,2021-09-27_14h10.42.482,forced_choiceRT_color,2021.2.3,Win32,60.28817749,,,,,,,,8,Ontime,short,j,1,1.9881,5,0,20,2,1,,,,,
,1.5,,,,,,,,,j,red,5ddc2ee14524e7b8ce23cf4c,2021-09-27_14h10.42.482,forced_choiceRT_color,2021.2.3,Win32,60.28817749,,,,,,,,8,Slow,short,j,1,2.2558,5,1,21,2,1,,,,,
,0.68,,,,,,,,,f,blue,5ddc2ee14524e7b8ce23cf4c,2021-09-27_14h10.42.482,forced_choiceRT_color,2021.2.3,Win32,60.28817749,,,,,,,,8,Fast,short,j,0,1.8939,5,2,22,1,1,,,,,
,0.23,,,,,,,,,f,blue,5ddc2ee14524e7b8ce23cf4c,2021-09-27_14h10.42.482,forced_choiceRT_color,2021.2.3,Win32,60.28817749,,,,,,,,8,Fast,short,j,0,1.8137,5,3,23,1,1,,,,,
,1.71,,,,,,,,,f,blue,5ddc2ee14524e7b8ce23cf4c,2021-09-27_14h10.42.482,forced_choiceRT_color,2021.2.3,Win32,60.28817749,,,,,,,,8,Ontime,short,j,0,2.0132,6,0,24,1,1,,,,,
,1.68,,,,,,,,,k,purple,5ddc2ee14524e7b8ce23cf4c,2021-09-27_14h10.42.482,forced_choiceRT_color,2021.2.3,Win32,60.28817749,,,,,,,,8,Slow,short,j,0,2.1065,6,1,25,3,1,,,,,
,1.01,,,,,,,,,d,orange,5ddc2ee14524e7b8ce23cf4c,2021-09-27_14h10.42.482,forced_choiceRT_color,2021.2.3,Win32,60.28817749,,,,,,,,8,Ontime,short,d,1,1.9686,6,2,26,0,1,,,,,
,1.26,,,,,,,,,f,blue,5ddc2ee14524e7b8ce23cf4c,2021-09-27_14h10.42.482,forced_choiceRT_color,2021.2.3,Win32,60.28817749,,,,,,,,8,Fast,short,j,0,1.7475,6,3,27,1,1,,,,,
,1.79,,,,,,,,,f,blue,5ddc2ee14524e7b8ce23cf4c,2021-09-27_14h10.42.482,forced_choiceRT_color,2021.2.3,Win32,60.28817749,,,,,,,,8,Fast,short,j,0,1.8762,7,0,28,1,1,,,,,
,0.41,,,,,,,,,j,red,5ddc2ee14524e7b8ce23cf4c,2021-09-27_14h10.42.482,forced_choiceRT_color,2021.2.3,Win32,60.28817749,,,,,,,,8,Ontime,short,j,1,2.029,7,1,29,2,1,,,,,
,1.36,,,,,,,,,d,orange,5ddc2ee14524e7b8ce23cf4c,2021-09-27_14h10.42.482,forced_choiceRT_color,2021.2.3,Win32,60.28817749,,,,,,,,8,Ontime,short,d,1,2.0471,7,2,30,0,1,,,,,
,1.95,,,,,,,,,f,blue,5ddc2ee14524e7b8ce23cf4c,2021-09-27_14h10.42.482,forced_choiceRT_color,2021.2.3,Win32,60.28817749,,,,,,,,8,Fast,short,k,0,1.8897,7,3,31,1,1,,,,,
,0.55,,,,,,,,,f,blue,5ddc2ee14524e7b8ce23cf4c,2021-09-27_14h10.42.482,forced_choiceRT_color,2021.2.3,Win32,60.28817749,,,,,,,,8,Ontime,short,j,0,1.9739,8,0,32,1,1,,,,,
,0.22,,,,,,,,,d,orange,5ddc2ee14524e7b8ce23cf4c,2021-09-27_14h10.42.482,forced_choiceRT_color,2021.2.3,Win32,60.28817749,,,,,,,,8,Ontime,short,d,1,1.9972,8,1,33,0,1,,,,,
,1.45,,,,,,,,,j,red,5ddc2ee14524e7b8ce23cf4c,2021-09-27_14h10.42.482,forced_choiceRT_color,2021.2.3,Win32,60.28817749,,,,,,,,8,Ontime,short,j,1,1.9271,8,2,34,2,1,,,,,
,1.98,,,,,,,,,j,red,5ddc2ee14524e7b8ce23cf4c,2021-09-27_14h10.42.482,forced_choiceRT_color,2021.2.3,Win32,60.28817749,,,,,,,,8,Ontime,short,j,1,2.0083,8,3,35,2,1,,,,,
,0.28,,,,,,,,,k,purple,5ddc2ee14524e7b8ce23cf4c,2021-09-27_14h10.42.482,forced_choiceRT_color,2021.2.3,Win32,60.28817749,,,,,,,,8,Ontime,short,k,1,1.962,9,0,36,3,1,,,,,
,1.05,,,,,,,,,k,purple,5ddc2ee14524e7b8ce23cf4c,2021-09-27_14h10.42.482,forced_choiceRT_color,2021.2.3,Win32,60.28817749,,,,,,,,8,Fast,short,k,1,1.857,9,1,37,3,1,,,,,
,1.97,,,,,,,,,d,orange,5ddc2ee14524e7b8ce23cf4c,2021-09-27_14h10.42.482,forced_choiceRT_color,2021.2.3,Win32,60.28817749,,,,,,,,8,Slow,short,k,0,2.3277,9,2,38,0,1,,,,,
,0.56,,,,,,,,,k,purple,5ddc2ee14524e7b8ce23cf4c,2021-09-27_14h10.42.482,forced_choiceRT_color,2021.2.3,Win32,60.28817749,,,,,,,,8,Ontime,short,k,1,2.0042,9,3,39,3,1,,,,,
,,,,,,,,,,,,5ddc2ee14524e7b8ce23cf4c,2021-09-27_14h10.42.482,forced_choiceRT_color,2021.2.3,Win32,60.28817749,,,,,,,,,,,,,,,,,,,7,0,7,0,1
,1.03,,,,,,,,,k,purple,5ddc2ee14524e7b8ce23cf4c,2021-09-27_14h10.42.482,forced_choiceRT_color,2021.2.3,Win32,60.28817749,,,,,,,,9,Fast,short,k,1,1.7129,0,0,0,3,1,,,,,
,1.67,,,,,,,,,d,orange,5ddc2ee14524e7b8ce23cf4c,2021-09-27_14h10.42.482,forced_choiceRT_color,2021.2.3,Win32,60.28817749,,,,,,,,9,Slow,short,j,0,2.2953,0,1,1,0,1,,,,,
,1.87,,,,,,,,,k,purple,5ddc2ee14524e7b8ce23cf4c,2021-09-27_14h10.42.482,forced_choiceRT_color,2021.2.3,Win32,60.28817749,,,,,,,,9,Slow,short,f,0,2.3221,0,2,2,3,1,,,,,
,0.57,,,,,,,,,j,red,5ddc2ee14524e7b8ce23cf4c,2021-09-27_14h10.42.482,forced_choiceRT_color,2021.2.3,Win32,60.28817749,,,,,,,,9,Fast,short,j,1,1.585,0,3,3,2,1,,,,,
,1.89,,,,,,,,,d,orange,5ddc2ee14524e7b8ce23cf4c,2021-09-27_14h10.42.482,forced_choiceRT_color,2021.2.3,Win32,60.28817749,,,,,,,,9,Ontime,short,j,0,1.9801,1,0,4,0,1,,,,,
,1.45,,,,,,,,,f,blue,5ddc2ee14524e7b8ce23cf4c,2021-09-27_14h10.42.482,forced_choiceRT_color,2021.2.3,Win32,60.28817749,,,,,,,,9,Slow,short,j,0,2.2308,1,1,5,1,1,,,,,
,1.79,,,,,,,,,j,red,5ddc2ee14524e7b8ce23cf4c,2021-09-27_14h10.42.482,forced_choiceRT_color,2021.2.3,Win32,60.28817749,,,,,,,,9,Ontime,short,f,0,2.0004,1,2,6,2,1,,,,,
,1.09,,,,,,,,,j,red,5ddc2ee14524e7b8ce23cf4c,2021-09-27_14h10.42.482,forced_choiceRT_color,2021.2.3,Win32,60.28817749,,,,,,,,9,Ontime,short,d,0,2.0234,1,3,7,2,1,,,,,
,0.69,,,,,,,,,k,purple,5ddc2ee14524e7b8ce23cf4c,2021-09-27_14h10.42.482,forced_choiceRT_color,2021.2.3,Win32,60.28817749,,,,,,,,9,Ontime,short,k,1,1.9113,2,0,8,3,1,,,,,
,1.74,,,,,,,,,k,purple,5ddc2ee14524e7b8ce23cf4c,2021-09-27_14h10.42.482,forced_choiceRT_color,2021.2.3,Win32,60.28817749,,,,,,,,9,Fast,short,f,0,1.8734,2,1,9,3,1,,,,,
,0.97,,,,,,,,,k,purple,5ddc2ee14524e7b8ce23cf4c,2021-09-27_14h10.42.482,forced_choiceRT_color,2021.2.3,Win32,60.28817749,,,,,,,,9,Fast,short,j,0,1.5418,2,2,10,3,1,,,,,
,1.85,,,,,,,,,j,red,5ddc2ee14524e7b8ce23cf4c,2021-09-27_14h10.42.482,forced_choiceRT_color,2021.2.3,Win32,60.28817749,,,,,,,,9,Slow,short,f,0,2.9541,2,3,11,2,1,,,,,
,0.11,,,,,,,,,f,blue,5ddc2ee14524e7b8ce23cf4c,2021-09-27_14h10.42.482,forced_choiceRT_color,2021.2.3,Win32,60.28817749,,,,,,,,9,Ontime,short,f,1,2.0775,3,0,12,1,1,,,,,
,0.34,,,,,,,,,f,blue,5ddc2ee14524e7b8ce23cf4c,2021-09-27_14h10.42.482,forced_choiceRT_color,2021.2.3,Win32,60.28817749,,,,,,,,9,Ontime,short,f,1,1.947,3,1,13,1,1,,,,,
,0.17,,,,,,,,,j,red,5ddc2ee14524e7b8ce23cf4c,2021-09-27_14h10.42.482,forced_choiceRT_color,2021.2.3,Win32,60.28817749,,,,,,,,9,Fast,short,j,1,1.8804,3,2,14,2,1,,,,,
,1.22,,,,,,,,,d,orange,5ddc2ee14524e7b8ce23cf4c,2021-09-27_14h10.42.482,forced_choiceRT_color,2021.2.3,Win32,60.28817749,,,,,,,,9,Ontime,short,f,0,2.0798,3,3,15,0,1,,,,,
,0.87,,,,,,,,,f,blue,5ddc2ee14524e7b8ce23cf4c,2021-09-27_14h10.42.482,forced_choiceRT_color,2021.2.3,Win32,60.28817749,,,,,,,,9,Fast,short,d,0,0.136,4,0,16,1,1,,,,,
,0.22,,,,,,,,,d,orange,5ddc2ee14524e7b8ce23cf4c,2021-09-27_14h10.42.482,forced_choiceRT_color,2021.2.3,Win32,60.28817749,,,,,,,,9,Ontime,short,f,0,1.9657,4,1,17,0,1,,,,,
,0.87,,,,,,,,,j,red,5ddc2ee14524e7b8ce23cf4c,2021-09-27_14h10.42.482,forced_choiceRT_color,2021.2.3,Win32,60.28817749,,,,,,,,9,Ontime,short,j,1,1.9969,4,2,18,2,1,,,,,
,1.67,,,,,,,,,k,purple,5ddc2ee14524e7b8ce23cf4c,2021-09-27_14h10.42.482,forced_choiceRT_color,2021.2.3,Win32,60.28817749,,,,,,,,9,Ontime,short,k,1,1.9466,4,3,19,3,1,,,,,
,1.89,,,,,,,,,f,blue,5ddc2ee14524e7b8ce23cf4c,2021-09-27_14h10.42.482,forced_choiceRT_color,2021.2.3,Win32,60.28817749,,,,,,,,9,Ontime,short,k,0,1.9652,5,0,20,1,1,,,,,
,0.04,,,,,,,,,d,orange,5ddc2ee14524e7b8ce23cf4c,2021-09-27_14h10.42.482,forced_choiceRT_color,2021.2.3,Win32,60.28817749,,,,,,,,9,Ontime,short,j,0,1.9632,5,1,21,0,1,,,,,
,1.63,,,,,,,,,d,orange,5ddc2ee14524e7b8ce23cf4c,2021-09-27_14h10.42.482,forced_choiceRT_color,2021.2.3,Win32,60.28817749,,,,,,,,9,Slow,short,f,0,2.146,5,2,22,0,1,,,,,
,0.84,,,,,,,,,k,purple,5ddc2ee14524e7b8ce23cf4c,2021-09-27_14h10.42.482,forced_choiceRT_color,2021.2.3,Win32,60.28817749,,,,,,,,9,Slow,short,k,1,2.1722,5,3,23,3,1,,,,,
,0.51,,,,,,,,,d,orange,5ddc2ee14524e7b8ce23cf4c,2021-09-27_14h10.42.482,forced_choiceRT_color,2021.2.3,Win32,60.28817749,,,,,,,,9,Ontime,short,j,0,1.9313,6,0,24,0,1,,,,,
,0.82,,,,,,,,,d,orange,5ddc2ee14524e7b8ce23cf4c,2021-09-27_14h10.42.482,forced_choiceRT_color,2021.2.3,Win32,60.28817749,,,,,,,,9,Ontime,short,d,1,1.9411,6,1,25,0,1,,,,,
,1.6,,,,,,,,,d,orange,5ddc2ee14524e7b8ce23cf4c,2021-09-27_14h10.42.482,forced_choiceRT_color,2021.2.3,Win32,60.28817749,,,,,,,,9,Ontime,short,j,0,1.9295,6,2,26,0,1,,,,,
,1.62,,,,,,,,,f,blue,5ddc2ee14524e7b8ce23cf4c,2021-09-27_14h10.42.482,forced_choiceRT_color,2021.2.3,Win32,60.28817749,,,,,,,,9,Slow,short,j,0,2.1127,6,3,27,1,1,,,,,
,0.29,,,,,,,,,k,purple,5ddc2ee14524e7b8ce23cf4c,2021-09-27_14h10.42.482,forced_choiceRT_color,2021.2.3,Win32,60.28817749,,,,,,,,9,Ontime,short,k,1,1.9978,7,0,28,3,1,,,,,
,0.87,,,,,,,,,f,blue,5ddc2ee14524e7b8ce23cf4c,2021-09-27_14h10.42.482,forced_choiceRT_color,2021.2.3,Win32,60.28817749,,,,,,,,9,Fast,short,j,0,1.8101,7,1,29,1,1,,,,,
,0.32,,,,,,,,,f,blue,5ddc2ee14524e7b8ce23cf4c,2021-09-27_14h10.42.482,forced_choiceRT_color,2021.2.3,Win32,60.28817749,,,,,,,,9,Slow,short,j,0,2.2611,7,2,30,1,1,,,,,
,0.48,,,,,,,,,d,orange,5ddc2ee14524e7b8ce23cf4c,2021-09-27_14h10.42.482,forced_choiceRT_color,2021.2.3,Win32,60.28817749,,,,,,,,9,Ontime,short,d,1,1.9964,7,3,31,0,1,,,,,
,1.38,,,,,,,,,f,blue,5ddc2ee14524e7b8ce23cf4c,2021-09-27_14h10.42.482,forced_choiceRT_color,2021.2.3,Win32,60.28817749,,,,,,,,9,Ontime,short,j,0,2.0735,8,0,32,1,1,,,,,
,0.24,,,,,,,,,f,blue,5ddc2ee14524e7b8ce23cf4c,2021-09-27_14h10.42.482,forced_choiceRT_color,2021.2.3,Win32,60.28817749,,,,,,,,9,Ontime,short,j,0,1.9112,8,1,33,1,1,,,,,
,0.39,,,,,,,,,j,red,5ddc2ee14524e7b8ce23cf4c,2021-09-27_14h10.42.482,forced_choiceRT_color,2021.2.3,Win32,60.28817749,,,,,,,,9,Fast,short,f,0,1.8244,8,2,34,2,1,,,,,
,1.2,,,,,,,,,j,red,5ddc2ee14524e7b8ce23cf4c,2021-09-27_14h10.42.482,forced_choiceRT_color,2021.2.3,Win32,60.28817749,,,,,,,,9,Ontime,short,f,0,1.9269,8,3,35,2,1,,,,,
,1.8,,,,,,,,,j,red,5ddc2ee14524e7b8ce23cf4c,2021-09-27_14h10.42.482,forced_choiceRT_color,2021.2.3,Win32,60.28817749,,,,,,,,9,Fast,short,j,1,1.6142,9,0,36,2,1,,,,,
,1.47,,,,,,,,,k,purple,5ddc2ee14524e7b8ce23cf4c,2021-09-27_14h10.42.482,forced_choiceRT_color,2021.2.3,Win32,60.28817749,,,,,,,,9,Slow,short,k,1,2.2232,9,1,37,3,1,,,,,
,1.43,,,,,,,,,j,red,5ddc2ee14524e7b8ce23cf4c,2021-09-27_14h10.42.482,forced_choiceRT_color,2021.2.3,Win32,60.28817749,,,,,,,,9,Slow,short,j,1,2.1099,9,2,38,2,1,,,,,
,0.67,,,,,,,,,k,purple,5ddc2ee14524e7b8ce23cf4c,2021-09-27_14h10.42.482,forced_choiceRT_color,2021.2.3,Win32,60.28817749,,,,,,,,9,Ontime,short,k,1,1.9631,9,3,39,3,1,,,,,
,,,,,,,,,,,,5ddc2ee14524e7b8ce23cf4c,2021-09-27_14h10.42.482,forced_choiceRT_color,2021.2.3,Win32,60.28817749,,,,,,,,,,,,,,,,,,,8,0,8,0,1
,0.59,,,,,,,,,f,blue,5ddc2ee14524e7b8ce23cf4c,2021-09-27_14h10.42.482,forced_choiceRT_color,2021.2.3,Win32,60.28817749,,,,,,,,10,Fast,short,f,1,1.5279,0,0,0,1,1,,,,,
,1.42,,,,,,,,,j,red,5ddc2ee14524e7b8ce23cf4c,2021-09-27_14h10.42.482,forced_choiceRT_color,2021.2.3,Win32,60.28817749,,,,,,,,10,Ontime,short,f,0,1.9797,0,1,1,2,1,,,,,
,1.73,,,,,,,,,k,purple,5ddc2ee14524e7b8ce23cf4c,2021-09-27_14h10.42.482,forced_choiceRT_color,2021.2.3,Win32,60.28817749,,,,,,,,10,Ontime,short,j,0,1.9855,0,2,2,3,1,,,,,
,0.86,,,,,,,,,j,red,5ddc2ee14524e7b8ce23cf4c,2021-09-27_14h10.42.482,forced_choiceRT_color,2021.2.3,Win32,60.28817749,,,,,,,,10,Ontime,short,j,1,1.9467,0,3,3,2,1,,,,,
,1.21,,,,,,,,,d,orange,5ddc2ee14524e7b8ce23cf4c,2021-09-27_14h10.42.482,forced_choiceRT_color,2021.2.3,Win32,60.28817749,,,,,,,,10,Fast,short,f,0,1.8976,1,0,4,0,1,,,,,
,1.45,,,,,,,,,f,blue,5ddc2ee14524e7b8ce23cf4c,2021-09-27_14h10.42.482,forced_choiceRT_color,2021.2.3,Win32,60.28817749,,,,,,,,10,Ontime,short,f,1,1.9365,1,1,5,1,1,,,,,
,1.51,,,,,,,,,f,blue,5ddc2ee14524e7b8ce23cf4c,2021-09-27_14h10.42.482,forced_choiceRT_color,2021.2.3,Win32,60.28817749,,,,,,,,10,Ontime,short,f,1,1.931,1,2,6,1,1,,,,,
,1.94,,,,,,,,,d,orange,5ddc2ee14524e7b8ce23cf4c,2021-09-27_14h10.42.482,forced_choiceRT_color,2021.2.3,Win32,60.28817749,,,,,,,,10,Fast,short,f,0,1.8711,1,3,7,0,1,,,,,
,0.69,,,,,,,,,d,orange,5ddc2ee14524e7b8ce23cf4c,2021-09-27_14h10.42.482,forced_choiceRT_color,2021.2.3,Win32,60.28817749,,,,,,,,10,Ontime,short,f,0,2.0135,2,0,8,0,1,,,,,
,1.54,,,,,,,,,d,orange,5ddc2ee14524e7b8ce23cf4c,2021-09-27_14h10.42.482,forced_choiceRT_color,2021.2.3,Win32,60.28817749,,,,,,,,10,Ontime,short,f,0,2.0465,2,1,9,0,1,,,,,
,0.6,,,,,,,,,d,orange,5ddc2ee14524e7b8ce23cf4c,2021-09-27_14h10.42.482,forced_choiceRT_color,2021.2.3,Win32,60.28817749,,,,,,,,10,Slow,short,f,0,2.1279,2,2,10,0,1,,,,,
,1.73,,,,,,,,,f,blue,5ddc2ee14524e7b8ce23cf4c,2021-09-27_14h10.42.482,forced_choiceRT_color,2021.2.3,Win32,60.28817749,,,,,,,,10,Fast,short,j,0,1.8477,2,3,11,1,1,,,,,
,1.16,,,,,,,,,k,purple,5ddc2ee14524e7b8ce23cf4c,2021-09-27_14h10.42.482,forced_choiceRT_color,2021.2.3,Win32,60.28817749,,,,,,,,10,Ontime,short,j,0,1.9218,3,0,12,3,1,,,,,
,1.07,,,,,,,,,j,red,5ddc2ee14524e7b8ce23cf4c,2021-09-27_14h10.42.482,forced_choiceRT_color,2021.2.3,Win32,60.28817749,,,,,,,,10,Ontime,short,j,1,1.9798,3,1,13,2,1,,,,,
,0.84,,,,,,,,,f,blue,5ddc2ee14524e7b8ce23cf4c,2021-09-27_14h10.42.482,forced_choiceRT_color,2021.2.3,Win32,60.28817749,,,,,,,,10,Fast,short,j,0,1.8462,3,2,14,1,1,,,,,
,0.65,,,,,,,,,d,orange,5ddc2ee14524e7b8ce23cf4c,2021-09-27_14h10.42.482,forced_choiceRT_color,2021.2.3,Win32,60.28817749,,,,,,,,10,Slow,short,d,1,2.1573,3,3,15,0,1,,,,,
,1.08,,,,,,,,,k,purple,5ddc2ee14524e7b8ce23cf4c,2021-09-27_14h10.42.482,forced_choiceRT_color,2021.2.3,Win32,60.28817749,,,,,,,,10,Ontime,short,k,1,1.9606,4,0,16,3,1,,,,,
,1.14,,,,,,,,,f,blue,5ddc2ee14524e7b8ce23cf4c,2021-09-27_14h10.42.482,forced_choiceRT_color,2021.2.3,Win32,60.28817749,,,,,,,,10,Ontime,short,j,0,1.9986,4,1,17,1,1,,,,,
,1.54,,,,,,,,,k,purple,5ddc2ee14524e7b8ce23cf4c,2021-09-27_14h10.42.482,forced_choiceRT_color,2021.2.3,Win32,60.28817749,,,,,,,,10,Fast,short,f,0,1.8752,4,2,18,3,1,,,,,
,1.96,,,,,,,,,d,orange,5ddc2ee14524e7b8ce23cf4c,2021-09-27_14h10.42.482,forced_choiceRT_color,2021.2.3,Win32,60.28817749,,,,,,,,10,Ontime,short,k,0,2.0899,4,3,19,0,1,,,,,
,1.6,,,,,,,,,d,orange,5ddc2ee14524e7b8ce23cf4c,2021-09-27_14h10.42.482,forced_choiceRT_color,2021.2.3,Win32,60.28817749,,,,,,,,10,Ontime,short,d,1,2.0581,5,0,20,0,1,,,,,
,0.95,,,,,,,,,k,purple,5ddc2ee14524e7b8ce23cf4c,2021-09-27_14h10.42.482,forced_choiceRT_color,2021.2.3,Win32,60.28817749,,,,,,,,10,Fast,short,k,1,1.6443,5,1,21,3,1,,,,,
,0.13,,,,,,,,,j,red,5ddc2ee14524e7b8ce23cf4c,2021-09-27_14h10.42.482,forced_choiceRT_color,2021.2.3,Win32,60.28817749,,,,,,,,10,Ontime,short,j,1,1.9449,5,2,22,2,1,,,,,
,1.75,,,,,,,,,j,red,5ddc2ee14524e7b8ce23cf4c,2021-09-27_14h10.42.482,forced_choiceRT_color,2021.2.3,Win32,60.28817749,,,,,,,,10,Fast,short,f,0,1.8259,5,3,23,2,1,,,,,
,1.06,,,,,,,,,j,red,5ddc2ee14524e7b8ce23cf4c,2021-09-27_14h10.42.482,forced_choiceRT_color,2021.2.3,Win32,60.28817749,,,,,,,,10,Ontime,short,f,0,1.9421,6,0,24,2,1,,,,,
,0.1,,,,,,,,,k,purple,5ddc2ee14524e7b8ce23cf4c,2021-09-27_14h10.42.482,forced_choiceRT_color,2021.2.3,Win32,60.28817749,,,,,,,,10,Ontime,short,k,1,1.9321,6,1,25,3,1,,,,,
,1.26,,,,,,,,,j,red,5ddc2ee14524e7b8ce23cf4c,2021-09-27_14h10.42.482,forced_choiceRT_color,2021.2.3,Win32,60.28817749,,,,,,,,10,Fast,short,j,1,1.6978,6,2,26,2,1,,,,,
,0.01,,,,,,,,,k,purple,5ddc2ee14524e7b8ce23cf4c,2021-09-27_14h10.42.482,forced_choiceRT_color,2021.2.3,Win32,60.28817749,,,,,,,,10,Slow,short,k,1,2.1309,6,3,27,3,1,,,,,
,1.04,,,,,,,,,j,red,5ddc2ee14524e7b8ce23cf4c,2021-09-27_14h10.42.482,forced_choiceRT_color,2021.2.3,Win32,60.28817749,,,,,,,,10,Ontime,short,j,1,1.9674,7,0,28,2,1,,,,,
,0.88,,,,,,,,,f,blue,5ddc2ee14524e7b8ce23cf4c,2021-09-27_14h10.42.482,forced_choiceRT_color,2021.2.3,Win32,60.28817749,,,,,,,,10,Ontime,short,f,1,1.99,7,1,29,1,1,,,,,
,1.22,,,,,,,,,d,orange,5ddc2ee14524e7b8ce23cf4c,2021-09-27_14h10.42.482,forced_choiceRT_color,2021.2.3,Win32,60.28817749,,,,,,,,10,Ontime,short,f,0,2.0095,7,2,30,0,1,,,,,
,0.68,,,,,,,,,j,red,5ddc2ee14524e7b8ce23cf4c,2021-09-27_14h10.42.482,forced_choiceRT_color,2021.2.3,Win32,60.28817749,,,,,,,,10,Ontime,short,j,1,2.0623,7,3,31,2,1,,,,,
,1.54,,,,,,,,,f,blue,5ddc2ee14524e7b8ce23cf4c,2021-09-27_14h10.42.482,forced_choiceRT_color,2021.2.3,Win32,60.28817749,,,,,,,,10,Fast,short,f,1,1.8247,8,0,32,1,1,,,,,
,0.92,,,,,,,,,d,orange,5ddc2ee14524e7b8ce23cf4c,2021-09-27_14h10.42.482,forced_choiceRT_color,2021.2.3,Win32,60.28817749,,,,,,,,10,Slow,short,d,1,2.1459,8,1,33,0,1,,,,,
,0.48,,,,,,,,,k,purple,5ddc2ee14524e7b8ce23cf4c,2021-09-27_14h10.42.482,forced_choiceRT_color,2021.2.3,Win32,60.28817749,,,,,,,,10,Ontime,short,k,1,2.0614,8,2,34,3,1,,,,,
,1.32,,,,,,,,,k,purple,5ddc2ee14524e7b8ce23cf4c,2021-09-27_14h10.42.482,forced_choiceRT_color,2021.2.3,Win32,60.28817749,,,,,,,,10,Fast,short,k,1,1.8167,8,3,35,3,1,,,,,
,0.71,,,,,,,,,f,blue,5ddc2ee14524e7b8ce23cf4c,2021-09-27_14h10.42.482,forced_choiceRT_color,2021.2.3,Win32,60.28817749,,,,,,,,10,Ontime,short,f,1,1.9301,9,0,36,1,1,,,,,
,1.28,,,,,,,,,k,purple,5ddc2ee14524e7b8ce23cf4c,2021-09-27_14h10.42.482,forced_choiceRT_color,2021.2.3,Win32,60.28817749,,,,,,,,10,Ontime,short,k,1,2.0298,9,1,37,3,1,,,,,
,0.22,,,,,,,,,j,red,5ddc2ee14524e7b8ce23cf4c,2021-09-27_14h10.42.482,forced_choiceRT_color,2021.2.3,Win32,60.28817749,,,,,,,,10,Fast,short,f,0,1.8979,9,2,38,2,1,,,,,
,0.81,,,,,,,,,f,blue,5ddc2ee14524e7b8ce23cf4c,2021-09-27_14h10.42.482,forced_choiceRT_color,2021.2.3,Win32,60.28817749,,,,,,,,10,Ontime,short,j,0,1.9665,9,3,39,1,1,,,,,
,,,,,,,,,,,,5ddc2ee14524e7b8ce23cf4c,2021-09-27_14h10.42.482,forced_choiceRT_color,2021.2.3,Win32,60.28817749,,,,,,,,,,,,,,,,,,,9,0,9,0,1
