IP_Addresss,target_onset,trial_resp_sp.keys,trial_resp_sp.corr,trial_resp_sp.rt,trials_train_loop.thisRepN,trials_train_loop.thisTrialN,trials_train_loop.thisN,trials_train_loop.thisIndex,trials_train_loop.ran,correct_key,color,participant,date,expName,psychopyVersion,OS,frameRate,trial_resp_timing.keys,trial_resp_timing.rt,trials_train_timing.thisRepN,trials_train_timing.thisTrialN,trials_train_timing.thisN,trials_train_timing.thisIndex,trials_train_timing.ran,block_id,ontime,feedback_cond,forcedRT_resp.keys,forcedRT_resp.corr,forcedRT_resp.rt,trials.thisRepN,trials.thisTrialN,trials.thisN,trials.thisIndex,trials.ran,blocks.thisRepN,blocks.thisTrialN,blocks.thisN,blocks.thisIndex,blocks.ran
70.72.164.18,0,f,1,1.9421,0,0,0,1,1,f,blue,5e0fe5cc2fc4786f5a0205c0,2021-09-27_11h53.42.372,forced_choiceRT_color,2021.2.3,Win32,59.75500448,,,,,,,,,,,,,,,,,,,,,,,
,0,d,1,0.7733,0,1,1,0,1,d,orange,5e0fe5cc2fc4786f5a0205c0,2021-09-27_11h53.42.372,forced_choiceRT_color,2021.2.3,Win32,59.75500448,,,,,,,,,,,,,,,,,,,,,,,
,0,k,1,0.608,0,2,2,3,1,k,purple,5e0fe5cc2fc4786f5a0205c0,2021-09-27_11h53.42.372,forced_choiceRT_color,2021.2.3,Win32,59.75500448,,,,,,,,,,,,,,,,,,,,,,,
,0,j,1,0.4413,0,3,3,2,1,j,red,5e0fe5cc2fc4786f5a0205c0,2021-09-27_11h53.42.372,forced_choiceRT_color,2021.2.3,Win32,59.75500448,,,,,,,,,,,,,,,,,,,,,,,
,0,k,1,0.5537,1,0,4,3,1,k,purple,5e0fe5cc2fc4786f5a0205c0,2021-09-27_11h53.42.372,forced_choiceRT_color,2021.2.3,Win32,59.75500448,,,,,,,,,,,,,,,,,,,,,,,
,0,d,1,0.5573,1,1,5,0,1,d,orange,5e0fe5cc2fc4786f5a0205c0,2021-09-27_11h53.42.372,forced_choiceRT_color,2021.2.3,Win32,59.75500448,,,,,,,,,,,,,,,,,,,,,,,
,0,j,1,0.8524,1,2,6,2,1,j,red,5e0fe5cc2fc4786f5a0205c0,2021-09-27_11h53.42.372,forced_choiceRT_color,2021.2.3,Win32,59.75500448,,,,,,,,,,,,,,,,,,,,,,,
,0,d,1,0.7178,1,3,7,0,1,d,orange,5e0fe5cc2fc4786f5a0205c0,2021-09-27_11h53.42.372,forced_choiceRT_color,2021.2.3,Win32,59.75500448,,,,,,,,,,,,,,,,,,,,,,,
,0,d,1,0.5425,2,0,8,0,1,d,orange,5e0fe5cc2fc4786f5a0205c0,2021-09-27_11h53.42.372,forced_choiceRT_color,2021.2.3,Win32,59.75500448,,,,,,,,,,,,,,,,,,,,,,,
,0,j,1,0.8363,2,1,9,2,1,j,red,5e0fe5cc2fc4786f5a0205c0,2021-09-27_11h53.42.372,forced_choiceRT_color,2021.2.3,Win32,59.75500448,,,,,,,,,,,,,,,,,,,,,,,
,0,k,1,0.5224,2,2,10,3,1,k,purple,5e0fe5cc2fc4786f5a0205c0,2021-09-27_11h53.42.372,forced_choiceRT_color,2021.2.3,Win32,59.75500448,,,,,,,,,,,,,,,,,,,,,,,
,0,k,1,0.4682,2,3,11,3,1,k,purple,5e0fe5cc2fc4786f5a0205c0,2021-09-27_11h53.42.372,forced_choiceRT_color,2021.2.3,Win32,59.75500448,,,,,,,,,,,,,,,,,,,,,,,
,0,k,1,0.4183,3,0,12,3,1,k,purple,5e0fe5cc2fc4786f5a0205c0,2021-09-27_11h53.42.372,forced_choiceRT_color,2021.2.3,Win32,59.75500448,,,,,,,,,,,,,,,,,,,,,,,
,0,f,1,0.6564,3,1,13,1,1,f,blue,5e0fe5cc2fc4786f5a0205c0,2021-09-27_11h53.42.372,forced_choiceRT_color,2021.2.3,Win32,59.75500448,,,,,,,,,,,,,,,,,,,,,,,
,0,j,1,0.6023,3,2,14,2,1,j,red,5e0fe5cc2fc4786f5a0205c0,2021-09-27_11h53.42.372,forced_choiceRT_color,2021.2.3,Win32,59.75500448,,,,,,,,,,,,,,,,,,,,,,,
,0,f,1,0.5687,3,3,15,1,1,f,blue,5e0fe5cc2fc4786f5a0205c0,2021-09-27_11h53.42.372,forced_choiceRT_color,2021.2.3,Win32,59.75500448,,,,,,,,,,,,,,,,,,,,,,,
,0,f,1,0.4608,4,0,16,1,1,f,blue,5e0fe5cc2fc4786f5a0205c0,2021-09-27_11h53.42.372,forced_choiceRT_color,2021.2.3,Win32,59.75500448,,,,,,,,,,,,,,,,,,,,,,,
,0,d,1,0.6184,4,1,17,0,1,d,orange,5e0fe5cc2fc4786f5a0205c0,2021-09-27_11h53.42.372,forced_choiceRT_color,2021.2.3,Win32,59.75500448,,,,,,,,,,,,,,,,,,,,,,,
,0,k,1,0.6182,4,2,18,3,1,k,purple,5e0fe5cc2fc4786f5a0205c0,2021-09-27_11h53.42.372,forced_choiceRT_color,2021.2.3,Win32,59.75500448,,,,,,,,,,,,,,,,,,,,,,,
,0,f,1,0.6854,4,3,19,1,1,f,blue,5e0fe5cc2fc4786f5a0205c0,2021-09-27_11h53.42.372,forced_choiceRT_color,2021.2.3,Win32,59.75500448,,,,,,,,,,,,,,,,,,,,,,,
,0,k,1,0.6056,5,0,20,3,1,k,purple,5e0fe5cc2fc4786f5a0205c0,2021-09-27_11h53.42.372,forced_choiceRT_color,2021.2.3,Win32,59.75500448,,,,,,,,,,,,,,,,,,,,,,,
,0,j,1,0.6513,5,1,21,2,1,j,red,5e0fe5cc2fc4786f5a0205c0,2021-09-27_11h53.42.372,forced_choiceRT_color,2021.2.3,Win32,59.75500448,,,,,,,,,,,,,,,,,,,,,,,
,0,d,1,0.6024,5,2,22,0,1,d,orange,5e0fe5cc2fc4786f5a0205c0,2021-09-27_11h53.42.372,forced_choiceRT_color,2021.2.3,Win32,59.75500448,,,,,,,,,,,,,,,,,,,,,,,
,0,k,1,0.7303,5,3,23,3,1,k,purple,5e0fe5cc2fc4786f5a0205c0,2021-09-27_11h53.42.372,forced_choiceRT_color,2021.2.3,Win32,59.75500448,,,,,,,,,,,,,,,,,,,,,,,
,0,k,1,0.5031,6,0,24,3,1,k,purple,5e0fe5cc2fc4786f5a0205c0,2021-09-27_11h53.42.372,forced_choiceRT_color,2021.2.3,Win32,59.75500448,,,,,,,,,,,,,,,,,,,,,,,
,0,j,1,0.5716,6,1,25,2,1,j,red,5e0fe5cc2fc4786f5a0205c0,2021-09-27_11h53.42.372,forced_choiceRT_color,2021.2.3,Win32,59.75500448,,,,,,,,,,,,,,,,,,,,,,,
,0,k,1,0.5029,6,2,26,3,1,k,purple,5e0fe5cc2fc4786f5a0205c0,2021-09-27_11h53.42.372,forced_choiceRT_color,2021.2.3,Win32,59.75500448,,,,,,,,,,,,,,,,,,,,,,,
,0,j,1,0.5186,6,3,27,2,1,j,red,5e0fe5cc2fc4786f5a0205c0,2021-09-27_11h53.42.372,forced_choiceRT_color,2021.2.3,Win32,59.75500448,,,,,,,,,,,,,,,,,,,,,,,
,0,k,1,0.4852,7,0,28,3,1,k,purple,5e0fe5cc2fc4786f5a0205c0,2021-09-27_11h53.42.372,forced_choiceRT_color,2021.2.3,Win32,59.75500448,,,,,,,,,,,,,,,,,,,,,,,
,0,d,1,0.602,7,1,29,0,1,d,orange,5e0fe5cc2fc4786f5a0205c0,2021-09-27_11h53.42.372,forced_choiceRT_color,2021.2.3,Win32,59.75500448,,,,,,,,,,,,,,,,,,,,,,,
,0,j,1,0.7867,7,2,30,2,1,j,red,5e0fe5cc2fc4786f5a0205c0,2021-09-27_11h53.42.372,forced_choiceRT_color,2021.2.3,Win32,59.75500448,,,,,,,,,,,,,,,,,,,,,,,
,0,f,1,0.7513,7,3,31,1,1,f,blue,5e0fe5cc2fc4786f5a0205c0,2021-09-27_11h53.42.372,forced_choiceRT_color,2021.2.3,Win32,59.75500448,,,,,,,,,,,,,,,,,,,,,,,
,0,j,1,0.6638,8,0,32,2,1,j,red,5e0fe5cc2fc4786f5a0205c0,2021-09-27_11h53.42.372,forced_choiceRT_color,2021.2.3,Win32,59.75500448,,,,,,,,,,,,,,,,,,,,,,,
,0,d,1,0.6867,8,1,33,0,1,d,orange,5e0fe5cc2fc4786f5a0205c0,2021-09-27_11h53.42.372,forced_choiceRT_color,2021.2.3,Win32,59.75500448,,,,,,,,,,,,,,,,,,,,,,,
,0,j,1,0.7563,8,2,34,2,1,j,red,5e0fe5cc2fc4786f5a0205c0,2021-09-27_11h53.42.372,forced_choiceRT_color,2021.2.3,Win32,59.75500448,,,,,,,,,,,,,,,,,,,,,,,
,0,j,1,0.5121,8,3,35,2,1,j,red,5e0fe5cc2fc4786f5a0205c0,2021-09-27_11h53.42.372,forced_choiceRT_color,2021.2.3,Win32,59.75500448,,,,,,,,,,,,,,,,,,,,,,,
,0,f,1,0.7848,9,0,36,1,1,f,blue,5e0fe5cc2fc4786f5a0205c0,2021-09-27_11h53.42.372,forced_choiceRT_color,2021.2.3,Win32,59.75500448,,,,,,,,,,,,,,,,,,,,,,,
,0,f,1,0.5037,9,1,37,1,1,f,blue,5e0fe5cc2fc4786f5a0205c0,2021-09-27_11h53.42.372,forced_choiceRT_color,2021.2.3,Win32,59.75500448,,,,,,,,,,,,,,,,,,,,,,,
,0,f,1,0.4701,9,2,38,1,1,f,blue,5e0fe5cc2fc4786f5a0205c0,2021-09-27_11h53.42.372,forced_choiceRT_color,2021.2.3,Win32,59.75500448,,,,,,,,,,,,,,,,,,,,,,,
,0,j,1,0.6036,9,3,39,2,1,j,red,5e0fe5cc2fc4786f5a0205c0,2021-09-27_11h53.42.372,forced_choiceRT_color,2021.2.3,Win32,59.75500448,,,,,,,,,,,,,,,,,,,,,,,
,0,d,1,0.6012,10,0,40,0,1,d,orange,5e0fe5cc2fc4786f5a0205c0,2021-09-27_11h53.42.372,forced_choiceRT_color,2021.2.3,Win32,59.75500448,,,,,,,,,,,,,,,,,,,,,,,
,0,f,0,0.7272,10,1,41,2,1,j,red,5e0fe5cc2fc4786f5a0205c0,2021-09-27_11h53.42.372,forced_choiceRT_color,2021.2.3,Win32,59.75500448,,,,,,,,,,,,,,,,,,,,,,,
,0,f,1,0.7723,10,2,42,1,1,f,blue,5e0fe5cc2fc4786f5a0205c0,2021-09-27_11h53.42.372,forced_choiceRT_color,2021.2.3,Win32,59.75500448,,,,,,,,,,,,,,,,,,,,,,,
,0,d,1,0.5362,10,3,43,0,1,d,orange,5e0fe5cc2fc4786f5a0205c0,2021-09-27_11h53.42.372,forced_choiceRT_color,2021.2.3,Win32,59.75500448,,,,,,,,,,,,,,,,,,,,,,,
,0,j,1,0.4356,11,0,44,2,1,j,red,5e0fe5cc2fc4786f5a0205c0,2021-09-27_11h53.42.372,forced_choiceRT_color,2021.2.3,Win32,59.75500448,,,,,,,,,,,,,,,,,,,,,,,
,0,f,0,0.5795,11,1,45,0,1,d,orange,5e0fe5cc2fc4786f5a0205c0,2021-09-27_11h53.42.372,forced_choiceRT_color,2021.2.3,Win32,59.75500448,,,,,,,,,,,,,,,,,,,,,,,
,0,k,1,0.6379,11,2,46,3,1,k,purple,5e0fe5cc2fc4786f5a0205c0,2021-09-27_11h53.42.372,forced_choiceRT_color,2021.2.3,Win32,59.75500448,,,,,,,,,,,,,,,,,,,,,,,
,0,d,1,0.4461,11,3,47,0,1,d,orange,5e0fe5cc2fc4786f5a0205c0,2021-09-27_11h53.42.372,forced_choiceRT_color,2021.2.3,Win32,59.75500448,,,,,,,,,,,,,,,,,,,,,,,
,0,f,1,0.6379,12,0,48,1,1,f,blue,5e0fe5cc2fc4786f5a0205c0,2021-09-27_11h53.42.372,forced_choiceRT_color,2021.2.3,Win32,59.75500448,,,,,,,,,,,,,,,,,,,,,,,
,0,f,1,0.5262,12,1,49,1,1,f,blue,5e0fe5cc2fc4786f5a0205c0,2021-09-27_11h53.42.372,forced_choiceRT_color,2021.2.3,Win32,59.75500448,,,,,,,,,,,,,,,,,,,,,,,
,0,f,1,0.4688,12,2,50,1,1,f,blue,5e0fe5cc2fc4786f5a0205c0,2021-09-27_11h53.42.372,forced_choiceRT_color,2021.2.3,Win32,59.75500448,,,,,,,,,,,,,,,,,,,,,,,
,0,k,1,0.9217,12,3,51,3,1,k,purple,5e0fe5cc2fc4786f5a0205c0,2021-09-27_11h53.42.372,forced_choiceRT_color,2021.2.3,Win32,59.75500448,,,,,,,,,,,,,,,,,,,,,,,
,0,k,1,0.4782,13,0,52,3,1,k,purple,5e0fe5cc2fc4786f5a0205c0,2021-09-27_11h53.42.372,forced_choiceRT_color,2021.2.3,Win32,59.75500448,,,,,,,,,,,,,,,,,,,,,,,
,0,d,1,0.5904,13,1,53,0,1,d,orange,5e0fe5cc2fc4786f5a0205c0,2021-09-27_11h53.42.372,forced_choiceRT_color,2021.2.3,Win32,59.75500448,,,,,,,,,,,,,,,,,,,,,,,
,0,d,1,0.3855,13,2,54,0,1,d,orange,5e0fe5cc2fc4786f5a0205c0,2021-09-27_11h53.42.372,forced_choiceRT_color,2021.2.3,Win32,59.75500448,,,,,,,,,,,,,,,,,,,,,,,
,0,f,1,0.7024,13,3,55,1,1,f,blue,5e0fe5cc2fc4786f5a0205c0,2021-09-27_11h53.42.372,forced_choiceRT_color,2021.2.3,Win32,59.75500448,,,,,,,,,,,,,,,,,,,,,,,
,0,d,1,0.7274,14,0,56,0,1,d,orange,5e0fe5cc2fc4786f5a0205c0,2021-09-27_11h53.42.372,forced_choiceRT_color,2021.2.3,Win32,59.75500448,,,,,,,,,,,,,,,,,,,,,,,
,0,j,1,0.5081,14,1,57,2,1,j,red,5e0fe5cc2fc4786f5a0205c0,2021-09-27_11h53.42.372,forced_choiceRT_color,2021.2.3,Win32,59.75500448,,,,,,,,,,,,,,,,,,,,,,,
,0,f,1,0.5617,14,2,58,1,1,f,blue,5e0fe5cc2fc4786f5a0205c0,2021-09-27_11h53.42.372,forced_choiceRT_color,2021.2.3,Win32,59.75500448,,,,,,,,,,,,,,,,,,,,,,,
,0,k,1,0.6606,14,3,59,3,1,k,purple,5e0fe5cc2fc4786f5a0205c0,2021-09-27_11h53.42.372,forced_choiceRT_color,2021.2.3,Win32,59.75500448,,,,,,,,,,,,,,,,,,,,,,,
,,,,,,,,,,,,5e0fe5cc2fc4786f5a0205c0,2021-09-27_11h53.42.372,forced_choiceRT_color,2021.2.3,Win32,59.75500448,d,2.2999,0,0,0,0,1,,,,,,,,,,,,,,,,
,,,,,,,,,,,,5e0fe5cc2fc4786f5a0205c0,2021-09-27_11h53.42.372,forced_choiceRT_color,2021.2.3,Win32,59.75500448,d,2.1036,1,0,1,0,1,,,,,,,,,,,,,,,,
,,,,,,,,,,,,5e0fe5cc2fc4786f5a0205c0,2021-09-27_11h53.42.372,forced_choiceRT_color,2021.2.3,Win32,59.75500448,d,1.7238,2,0,2,0,1,,,,,,,,,,,,,,,,
,,,,,,,,,,,,5e0fe5cc2fc4786f5a0205c0,2021-09-27_11h53.42.372,forced_choiceRT_color,2021.2.3,Win32,59.75500448,d,2.1204,3,0,3,0,1,,,,,,,,,,,,,,,,
,,,,,,,,,,,,5e0fe5cc2fc4786f5a0205c0,2021-09-27_11h53.42.372,forced_choiceRT_color,2021.2.3,Win32,59.75500448,j,2.2452,4,0,4,0,1,,,,,,,,,,,,,,,,
,,,,,,,,,,,,5e0fe5cc2fc4786f5a0205c0,2021-09-27_11h53.42.372,forced_choiceRT_color,2021.2.3,Win32,59.75500448,j,2.1718,5,0,5,0,1,,,,,,,,,,,,,,,,
,,,,,,,,,,,,5e0fe5cc2fc4786f5a0205c0,2021-09-27_11h53.42.372,forced_choiceRT_color,2021.2.3,Win32,59.75500448,j,1.7723,6,0,6,0,1,,,,,,,,,,,,,,,,
,,,,,,,,,,,,5e0fe5cc2fc4786f5a0205c0,2021-09-27_11h53.42.372,forced_choiceRT_color,2021.2.3,Win32,59.75500448,j,2.2031,7,0,7,0,1,,,,,,,,,,,,,,,,
,,,,,,,,,,,,5e0fe5cc2fc4786f5a0205c0,2021-09-27_11h53.42.372,forced_choiceRT_color,2021.2.3,Win32,59.75500448,j,2.1573,8,0,8,0,1,,,,,,,,,,,,,,,,
,,,,,,,,,,,,5e0fe5cc2fc4786f5a0205c0,2021-09-27_11h53.42.372,forced_choiceRT_color,2021.2.3,Win32,59.75500448,j,1.7502,9,0,9,0,1,,,,,,,,,,,,,,,,
,,,,,,,,,,,,5e0fe5cc2fc4786f5a0205c0,2021-09-27_11h53.42.372,forced_choiceRT_color,2021.2.3,Win32,59.75500448,j,2.2188,10,0,10,0,1,,,,,,,,,,,,,,,,
,,,,,,,,,,,,5e0fe5cc2fc4786f5a0205c0,2021-09-27_11h53.42.372,forced_choiceRT_color,2021.2.3,Win32,59.75500448,j,2.2666,11,0,11,0,1,,,,,,,,,,,,,,,,
,,,,,,,,,,,,5e0fe5cc2fc4786f5a0205c0,2021-09-27_11h53.42.372,forced_choiceRT_color,2021.2.3,Win32,59.75500448,j,2.2397,12,0,12,0,1,,,,,,,,,,,,,,,,
,,,,,,,,,,,,5e0fe5cc2fc4786f5a0205c0,2021-09-27_11h53.42.372,forced_choiceRT_color,2021.2.3,Win32,59.75500448,j,2.2979,13,0,13,0,1,,,,,,,,,,,,,,,,
,,,,,,,,,,,,5e0fe5cc2fc4786f5a0205c0,2021-09-27_11h53.42.372,forced_choiceRT_color,2021.2.3,Win32,59.75500448,j,2.1208,14,0,14,0,1,,,,,,,,,,,,,,,,
,,,,,,,,,,,,5e0fe5cc2fc4786f5a0205c0,2021-09-27_11h53.42.372,forced_choiceRT_color,2021.2.3,Win32,59.75500448,j,1.8361,15,0,15,0,1,,,,,,,,,,,,,,,,
,,,,,,,,,,,,5e0fe5cc2fc4786f5a0205c0,2021-09-27_11h53.42.372,forced_choiceRT_color,2021.2.3,Win32,59.75500448,j,2.1874,16,0,16,0,1,,,,,,,,,,,,,,,,
,,,,,,,,,,,,5e0fe5cc2fc4786f5a0205c0,2021-09-27_11h53.42.372,forced_choiceRT_color,2021.2.3,Win32,59.75500448,j,1.9642,17,0,17,0,1,,,,,,,,,,,,,,,,
,,,,,,,,,,,,5e0fe5cc2fc4786f5a0205c0,2021-09-27_11h53.42.372,forced_choiceRT_color,2021.2.3,Win32,59.75500448,j,2.0551,18,0,18,0,1,,,,,,,,,,,,,,,,
,,,,,,,,,,,,5e0fe5cc2fc4786f5a0205c0,2021-09-27_11h53.42.372,forced_choiceRT_color,2021.2.3,Win32,59.75500448,j,2.0706,19,0,19,0,1,,,,,,,,,,,,,,,,
,0.02,,,,,,,,,d,orange,5e0fe5cc2fc4786f5a0205c0,2021-09-27_11h53.42.372,forced_choiceRT_color,2021.2.3,Win32,59.75500448,,,,,,,,1,Fast,short,d,1,1.2885,0,0,0,0,1,,,,,
,1.58,,,,,,,,,f,blue,5e0fe5cc2fc4786f5a0205c0,2021-09-27_11h53.42.372,forced_choiceRT_color,2021.2.3,Win32,59.75500448,,,,,,,,1,Slow,short,j,0,2.2717,0,1,1,1,1,,,,,
,1.15,,,,,,,,,f,blue,5e0fe5cc2fc4786f5a0205c0,2021-09-27_11h53.42.372,forced_choiceRT_color,2021.2.3,Win32,59.75500448,,,,,,,,1,Slow,short,f,1,2.2483,0,2,2,1,1,,,,,
,1.58,,,,,,,,,j,red,5e0fe5cc2fc4786f5a0205c0,2021-09-27_11h53.42.372,forced_choiceRT_color,2021.2.3,Win32,59.75500448,,,,,,,,1,Slow,short,j,1,2.1434,0,3,3,2,1,,,,,
,1.01,,,,,,,,,f,blue,5e0fe5cc2fc4786f5a0205c0,2021-09-27_11h53.42.372,forced_choiceRT_color,2021.2.3,Win32,59.75500448,,,,,,,,1,Fast,short,f,1,1.5825,1,0,4,1,1,,,,,
,0.11,,,,,,,,,k,purple,5e0fe5cc2fc4786f5a0205c0,2021-09-27_11h53.42.372,forced_choiceRT_color,2021.2.3,Win32,59.75500448,,,,,,,,1,Slow,short,k,1,2.2172,1,1,5,3,1,,,,,
,0.73,,,,,,,,,j,red,5e0fe5cc2fc4786f5a0205c0,2021-09-27_11h53.42.372,forced_choiceRT_color,2021.2.3,Win32,59.75500448,,,,,,,,1,Ontime,short,j,1,1.9835,1,2,6,2,1,,,,,
,1.97,,,,,,,,,d,orange,5e0fe5cc2fc4786f5a0205c0,2021-09-27_11h53.42.372,forced_choiceRT_color,2021.2.3,Win32,59.75500448,,,,,,,,1,Slow,short,f,0,2.6892,1,3,7,0,1,,,,,
,0.35,,,,,,,,,f,blue,5e0fe5cc2fc4786f5a0205c0,2021-09-27_11h53.42.372,forced_choiceRT_color,2021.2.3,Win32,59.75500448,,,,,,,,1,Fast,short,f,1,1.7433,2,0,8,1,1,,,,,
,1.97,,,,,,,,,j,red,5e0fe5cc2fc4786f5a0205c0,2021-09-27_11h53.42.372,forced_choiceRT_color,2021.2.3,Win32,59.75500448,,,,,,,,1,Slow,short,j,1,2.5873,2,1,9,2,1,,,,,
,1.72,,,,,,,,,d,orange,5e0fe5cc2fc4786f5a0205c0,2021-09-27_11h53.42.372,forced_choiceRT_color,2021.2.3,Win32,59.75500448,,,,,,,,1,Slow,short,f,0,2.271,2,2,10,0,1,,,,,
,1.25,,,,,,,,,j,red,5e0fe5cc2fc4786f5a0205c0,2021-09-27_11h53.42.372,forced_choiceRT_color,2021.2.3,Win32,59.75500448,,,,,,,,1,Fast,short,j,1,1.7683,2,3,11,2,1,,,,,
,1.37,,,,,,,,,f,blue,5e0fe5cc2fc4786f5a0205c0,2021-09-27_11h53.42.372,forced_choiceRT_color,2021.2.3,Win32,59.75500448,,,,,,,,1,Ontime,short,f,1,2.0525,3,0,12,1,1,,,,,
,1.13,,,,,,,,,f,blue,5e0fe5cc2fc4786f5a0205c0,2021-09-27_11h53.42.372,forced_choiceRT_color,2021.2.3,Win32,59.75500448,,,,,,,,1,Ontime,short,f,1,2.044,3,1,13,1,1,,,,,
,1.48,,,,,,,,,d,orange,5e0fe5cc2fc4786f5a0205c0,2021-09-27_11h53.42.372,forced_choiceRT_color,2021.2.3,Win32,59.75500448,,,,,,,,1,Slow,short,j,0,2.2199,3,2,14,0,1,,,,,
,0.48,,,,,,,,,k,purple,5e0fe5cc2fc4786f5a0205c0,2021-09-27_11h53.42.372,forced_choiceRT_color,2021.2.3,Win32,59.75500448,,,,,,,,1,Fast,short,k,1,1.4703,3,3,15,3,1,,,,,
,1.1,,,,,,,,,k,purple,5e0fe5cc2fc4786f5a0205c0,2021-09-27_11h53.42.372,forced_choiceRT_color,2021.2.3,Win32,59.75500448,,,,,,,,1,Ontime,short,k,1,1.9417,4,0,16,3,1,,,,,
,1.07,,,,,,,,,j,red,5e0fe5cc2fc4786f5a0205c0,2021-09-27_11h53.42.372,forced_choiceRT_color,2021.2.3,Win32,59.75500448,,,,,,,,1,Ontime,short,j,1,2.0767,4,1,17,2,1,,,,,
,0.39,,,,,,,,,k,purple,5e0fe5cc2fc4786f5a0205c0,2021-09-27_11h53.42.372,forced_choiceRT_color,2021.2.3,Win32,59.75500448,,,,,,,,1,Ontime,short,k,1,2.0728,4,2,18,3,1,,,,,
,0.61,,,,,,,,,f,blue,5e0fe5cc2fc4786f5a0205c0,2021-09-27_11h53.42.372,forced_choiceRT_color,2021.2.3,Win32,59.75500448,,,,,,,,1,Slow,short,f,1,2.1529,4,3,19,1,1,,,,,
,1.35,,,,,,,,,j,red,5e0fe5cc2fc4786f5a0205c0,2021-09-27_11h53.42.372,forced_choiceRT_color,2021.2.3,Win32,59.75500448,,,,,,,,1,Slow,short,j,1,2.1323,5,0,20,2,1,,,,,
,1.21,,,,,,,,,j,red,5e0fe5cc2fc4786f5a0205c0,2021-09-27_11h53.42.372,forced_choiceRT_color,2021.2.3,Win32,59.75500448,,,,,,,,1,Ontime,short,j,1,2.0409,5,1,21,2,1,,,,,
,0.32,,,,,,,,,k,purple,5e0fe5cc2fc4786f5a0205c0,2021-09-27_11h53.42.372,forced_choiceRT_color,2021.2.3,Win32,59.75500448,,,,,,,,1,Slow,short,k,1,2.1203,5,2,22,3,1,,,,,
,0.7,,,,,,,,,d,orange,5e0fe5cc2fc4786f5a0205c0,2021-09-27_11h53.42.372,forced_choiceRT_color,2021.2.3,Win32,59.75500448,,,,,,,,1,Ontime,short,d,1,2.0138,5,3,23,0,1,,,,,
,1.98,,,,,,,,,k,purple,5e0fe5cc2fc4786f5a0205c0,2021-09-27_11h53.42.372,forced_choiceRT_color,2021.2.3,Win32,59.75500448,,,,,,,,1,Slow,short,j,0,2.5142,6,0,24,3,1,,,,,
,0.52,,,,,,,,,k,purple,5e0fe5cc2fc4786f5a0205c0,2021-09-27_11h53.42.372,forced_choiceRT_color,2021.2.3,Win32,59.75500448,,,,,,,,1,Slow,short,k,1,2.1605,6,1,25,3,1,,,,,
,0.7,,,,,,,,,f,blue,5e0fe5cc2fc4786f5a0205c0,2021-09-27_11h53.42.372,forced_choiceRT_color,2021.2.3,Win32,59.75500448,,,,,,,,1,Ontime,short,f,1,2.0306,6,2,26,1,1,,,,,
,0.61,,,,,,,,,d,orange,5e0fe5cc2fc4786f5a0205c0,2021-09-27_11h53.42.372,forced_choiceRT_color,2021.2.3,Win32,59.75500448,,,,,,,,1,Slow,short,d,1,2.1347,6,3,27,0,1,,,,,
,1.52,,,,,,,,,j,red,5e0fe5cc2fc4786f5a0205c0,2021-09-27_11h53.42.372,forced_choiceRT_color,2021.2.3,Win32,59.75500448,,,,,,,,1,Slow,short,j,1,2.1129,7,0,28,2,1,,,,,
,0.45,,,,,,,,,k,purple,5e0fe5cc2fc4786f5a0205c0,2021-09-27_11h53.42.372,forced_choiceRT_color,2021.2.3,Win32,59.75500448,,,,,,,,1,Ontime,short,k,1,1.9581,7,1,29,3,1,,,,,
,0.2,,,,,,,,,f,blue,5e0fe5cc2fc4786f5a0205c0,2021-09-27_11h53.42.372,forced_choiceRT_color,2021.2.3,Win32,59.75500448,,,,,,,,1,Ontime,short,f,1,2.0615,7,2,30,1,1,,,,,
,1.32,,,,,,,,,k,purple,5e0fe5cc2fc4786f5a0205c0,2021-09-27_11h53.42.372,forced_choiceRT_color,2021.2.3,Win32,59.75500448,,,,,,,,1,Ontime,short,k,1,1.9871,7,3,31,3,1,,,,,
,0,,,,,,,,,d,orange,5e0fe5cc2fc4786f5a0205c0,2021-09-27_11h53.42.372,forced_choiceRT_color,2021.2.3,Win32,59.75500448,,,,,,,,1,Ontime,short,d,1,1.9845,8,0,32,0,1,,,,,
,1.8,,,,,,,,,d,orange,5e0fe5cc2fc4786f5a0205c0,2021-09-27_11h53.42.372,forced_choiceRT_color,2021.2.3,Win32,59.75500448,,,,,,,,1,Slow,short,d,1,2.2276,8,1,33,0,1,,,,,
,1.07,,,,,,,,,d,orange,5e0fe5cc2fc4786f5a0205c0,2021-09-27_11h53.42.372,forced_choiceRT_color,2021.2.3,Win32,59.75500448,,,,,,,,1,Fast,short,d,1,1.5885,8,2,34,0,1,,,,,
,0.76,,,,,,,,,j,red,5e0fe5cc2fc4786f5a0205c0,2021-09-27_11h53.42.372,forced_choiceRT_color,2021.2.3,Win32,59.75500448,,,,,,,,1,Ontime,short,j,1,2.0773,8,3,35,2,1,,,,,
,0.32,,,,,,,,,d,orange,5e0fe5cc2fc4786f5a0205c0,2021-09-27_11h53.42.372,forced_choiceRT_color,2021.2.3,Win32,59.75500448,,,,,,,,1,Slow,short,d,1,2.2026,9,0,36,0,1,,,,,
,1.29,,,,,,,,,j,red,5e0fe5cc2fc4786f5a0205c0,2021-09-27_11h53.42.372,forced_choiceRT_color,2021.2.3,Win32,59.75500448,,,,,,,,1,Slow,short,j,1,2.1297,9,1,37,2,1,,,,,
,1.58,,,,,,,,,f,blue,5e0fe5cc2fc4786f5a0205c0,2021-09-27_11h53.42.372,forced_choiceRT_color,2021.2.3,Win32,59.75500448,,,,,,,,1,Slow,short,f,1,2.1047,9,2,38,1,1,,,,,
,1.49,,,,,,,,,k,purple,5e0fe5cc2fc4786f5a0205c0,2021-09-27_11h53.42.372,forced_choiceRT_color,2021.2.3,Win32,59.75500448,,,,,,,,1,Slow,short,k,1,2.3427,9,3,39,3,1,,,,,
,,,,,,,,,,,,5e0fe5cc2fc4786f5a0205c0,2021-09-27_11h53.42.372,forced_choiceRT_color,2021.2.3,Win32,59.75500448,,,,,,,,,,,,,,,,,,,0,0,0,0,1
,0.82,,,,,,,,,j,red,5e0fe5cc2fc4786f5a0205c0,2021-09-27_11h53.42.372,forced_choiceRT_color,2021.2.3,Win32,59.75500448,,,,,,,,2,Fast,short,j,1,1.6721,0,0,0,2,1,,,,,
,0.5,,,,,,,,,j,red,5e0fe5cc2fc4786f5a0205c0,2021-09-27_11h53.42.372,forced_choiceRT_color,2021.2.3,Win32,59.75500448,,,,,,,,2,Ontime,short,j,1,1.986,0,1,1,2,1,,,,,
,0.66,,,,,,,,,j,red,5e0fe5cc2fc4786f5a0205c0,2021-09-27_11h53.42.372,forced_choiceRT_color,2021.2.3,Win32,59.75500448,,,,,,,,2,Ontime,short,j,1,2.0862,0,2,2,2,1,,,,,
,1.38,,,,,,,,,j,red,5e0fe5cc2fc4786f5a0205c0,2021-09-27_11h53.42.372,forced_choiceRT_color,2021.2.3,Win32,59.75500448,,,,,,,,2,Ontime,short,j,1,2.0877,0,3,3,2,1,,,,,
,1.13,,,,,,,,,f,blue,5e0fe5cc2fc4786f5a0205c0,2021-09-27_11h53.42.372,forced_choiceRT_color,2021.2.3,Win32,59.75500448,,,,,,,,2,Ontime,short,f,1,2.0507,1,0,4,1,1,,,,,
,0.42,,,,,,,,,d,orange,5e0fe5cc2fc4786f5a0205c0,2021-09-27_11h53.42.372,forced_choiceRT_color,2021.2.3,Win32,59.75500448,,,,,,,,2,Ontime,short,d,1,2.0198,1,1,5,0,1,,,,,
,1.2,,,,,,,,,f,blue,5e0fe5cc2fc4786f5a0205c0,2021-09-27_11h53.42.372,forced_choiceRT_color,2021.2.3,Win32,59.75500448,,,,,,,,2,Ontime,short,f,1,2.025,1,2,6,1,1,,,,,
,0.9,,,,,,,,,k,purple,5e0fe5cc2fc4786f5a0205c0,2021-09-27_11h53.42.372,forced_choiceRT_color,2021.2.3,Win32,59.75500448,,,,,,,,2,Ontime,short,k,1,1.9999,1,3,7,3,1,,,,,
,0.73,,,,,,,,,j,red,5e0fe5cc2fc4786f5a0205c0,2021-09-27_11h53.42.372,forced_choiceRT_color,2021.2.3,Win32,59.75500448,,,,,,,,2,Ontime,short,j,1,2.0508,2,0,8,2,1,,,,,
,0.29,,,,,,,,,d,orange,5e0fe5cc2fc4786f5a0205c0,2021-09-27_11h53.42.372,forced_choiceRT_color,2021.2.3,Win32,59.75500448,,,,,,,,2,Fast,short,d,1,1.8381,2,1,9,0,1,,,,,
,0.01,,,,,,,,,k,purple,5e0fe5cc2fc4786f5a0205c0,2021-09-27_11h53.42.372,forced_choiceRT_color,2021.2.3,Win32,59.75500448,,,,,,,,2,Ontime,short,k,1,2.0289,2,2,10,3,1,,,,,
,0.74,,,,,,,,,d,orange,5e0fe5cc2fc4786f5a0205c0,2021-09-27_11h53.42.372,forced_choiceRT_color,2021.2.3,Win32,59.75500448,,,,,,,,2,Slow,short,d,1,2.1037,2,3,11,0,1,,,,,
,0.19,,,,,,,,,f,blue,5e0fe5cc2fc4786f5a0205c0,2021-09-27_11h53.42.372,forced_choiceRT_color,2021.2.3,Win32,59.75500448,,,,,,,,2,Slow,short,f,1,2.1727,3,0,12,1,1,,,,,
,1.69,,,,,,,,,k,purple,5e0fe5cc2fc4786f5a0205c0,2021-09-27_11h53.42.372,forced_choiceRT_color,2021.2.3,Win32,59.75500448,,,,,,,,2,Slow,short,j,0,2.3499,3,1,13,3,1,,,,,
,0.62,,,,,,,,,d,orange,5e0fe5cc2fc4786f5a0205c0,2021-09-27_11h53.42.372,forced_choiceRT_color,2021.2.3,Win32,59.75500448,,,,,,,,2,Fast,short,d,1,1.688,3,2,14,0,1,,,,,
,0.45,,,,,,,,,k,purple,5e0fe5cc2fc4786f5a0205c0,2021-09-27_11h53.42.372,forced_choiceRT_color,2021.2.3,Win32,59.75500448,,,,,,,,2,Ontime,short,k,1,2.0785,3,3,15,3,1,,,,,
,1.21,,,,,,,,,f,blue,5e0fe5cc2fc4786f5a0205c0,2021-09-27_11h53.42.372,forced_choiceRT_color,2021.2.3,Win32,59.75500448,,,,,,,,2,Ontime,short,f,1,2.0156,4,0,16,1,1,,,,,
,0.04,,,,,,,,,k,purple,5e0fe5cc2fc4786f5a0205c0,2021-09-27_11h53.42.372,forced_choiceRT_color,2021.2.3,Win32,59.75500448,,,,,,,,2,Ontime,short,k,1,2.0051,4,1,17,3,1,,,,,
,0.71,,,,,,,,,d,orange,5e0fe5cc2fc4786f5a0205c0,2021-09-27_11h53.42.372,forced_choiceRT_color,2021.2.3,Win32,59.75500448,,,,,,,,2,Ontime,short,d,1,2.0999,4,2,18,0,1,,,,,
,1.13,,,,,,,,,f,blue,5e0fe5cc2fc4786f5a0205c0,2021-09-27_11h53.42.372,forced_choiceRT_color,2021.2.3,Win32,59.75500448,,,,,,,,2,Slow,short,f,1,2.1225,4,3,19,1,1,,,,,
,0.44,,,,,,,,,f,blue,5e0fe5cc2fc4786f5a0205c0,2021-09-27_11h53.42.372,forced_choiceRT_color,2021.2.3,Win32,59.75500448,,,,,,,,2,Slow,short,f,1,2.1618,5,0,20,1,1,,,,,
,0.29,,,,,,,,,j,red,5e0fe5cc2fc4786f5a0205c0,2021-09-27_11h53.42.372,forced_choiceRT_color,2021.2.3,Win32,59.75500448,,,,,,,,2,Ontime,short,j,1,1.9707,5,1,21,2,1,,,,,
,1.15,,,,,,,,,d,orange,5e0fe5cc2fc4786f5a0205c0,2021-09-27_11h53.42.372,forced_choiceRT_color,2021.2.3,Win32,59.75500448,,,,,,,,2,Slow,short,d,1,2.1431,5,2,22,0,1,,,,,
,1.14,,,,,,,,,d,orange,5e0fe5cc2fc4786f5a0205c0,2021-09-27_11h53.42.372,forced_choiceRT_color,2021.2.3,Win32,59.75500448,,,,,,,,2,Ontime,short,d,1,1.9293,5,3,23,0,1,,,,,
,0.06,,,,,,,,,f,blue,5e0fe5cc2fc4786f5a0205c0,2021-09-27_11h53.42.372,forced_choiceRT_color,2021.2.3,Win32,59.75500448,,,,,,,,2,Slow,short,f,1,2.154,6,0,24,1,1,,,,,
,1.67,,,,,,,,,k,purple,5e0fe5cc2fc4786f5a0205c0,2021-09-27_11h53.42.372,forced_choiceRT_color,2021.2.3,Win32,59.75500448,,,,,,,,2,Slow,short,j,0,2.2796,6,1,25,3,1,,,,,
,1.57,,,,,,,,,f,blue,5e0fe5cc2fc4786f5a0205c0,2021-09-27_11h53.42.372,forced_choiceRT_color,2021.2.3,Win32,59.75500448,,,,,,,,2,Slow,short,f,1,2.1527,6,2,26,1,1,,,,,
,1.2,,,,,,,,,f,blue,5e0fe5cc2fc4786f5a0205c0,2021-09-27_11h53.42.372,forced_choiceRT_color,2021.2.3,Win32,59.75500448,,,,,,,,2,Fast,short,f,1,1.7917,6,3,27,1,1,,,,,
,0.34,,,,,,,,,k,purple,5e0fe5cc2fc4786f5a0205c0,2021-09-27_11h53.42.372,forced_choiceRT_color,2021.2.3,Win32,59.75500448,,,,,,,,2,Slow,short,k,1,2.1965,7,0,28,3,1,,,,,
,1.51,,,,,,,,,j,red,5e0fe5cc2fc4786f5a0205c0,2021-09-27_11h53.42.372,forced_choiceRT_color,2021.2.3,Win32,59.75500448,,,,,,,,2,Slow,short,j,1,2.3029,7,1,29,2,1,,,,,
,1.63,,,,,,,,,j,red,5e0fe5cc2fc4786f5a0205c0,2021-09-27_11h53.42.372,forced_choiceRT_color,2021.2.3,Win32,59.75500448,,,,,,,,2,Slow,short,j,1,2.1217,7,2,30,2,1,,,,,
,1.59,,,,,,,,,k,purple,5e0fe5cc2fc4786f5a0205c0,2021-09-27_11h53.42.372,forced_choiceRT_color,2021.2.3,Win32,59.75500448,,,,,,,,2,Ontime,short,k,1,2.0876,7,3,31,3,1,,,,,
,1.27,,,,,,,,,k,purple,5e0fe5cc2fc4786f5a0205c0,2021-09-27_11h53.42.372,forced_choiceRT_color,2021.2.3,Win32,59.75500448,,,,,,,,2,Fast,short,k,1,1.7445,8,0,32,3,1,,,,,
,0.68,,,,,,,,,k,purple,5e0fe5cc2fc4786f5a0205c0,2021-09-27_11h53.42.372,forced_choiceRT_color,2021.2.3,Win32,59.75500448,,,,,,,,2,Slow,short,k,1,2.1788,8,1,33,3,1,,,,,
,1.45,,,,,,,,,f,blue,5e0fe5cc2fc4786f5a0205c0,2021-09-27_11h53.42.372,forced_choiceRT_color,2021.2.3,Win32,59.75500448,,,,,,,,2,Ontime,short,d,0,2.0211,8,2,34,1,1,,,,,
,0.86,,,,,,,,,j,red,5e0fe5cc2fc4786f5a0205c0,2021-09-27_11h53.42.372,forced_choiceRT_color,2021.2.3,Win32,59.75500448,,,,,,,,2,Fast,short,k,0,1.7752,8,3,35,2,1,,,,,
,0.49,,,,,,,,,d,orange,5e0fe5cc2fc4786f5a0205c0,2021-09-27_11h53.42.372,forced_choiceRT_color,2021.2.3,Win32,59.75500448,,,,,,,,2,Fast,short,d,1,1.4889,9,0,36,0,1,,,,,
,0.09,,,,,,,,,j,red,5e0fe5cc2fc4786f5a0205c0,2021-09-27_11h53.42.372,forced_choiceRT_color,2021.2.3,Win32,59.75500448,,,,,,,,2,Ontime,short,j,1,2.076,9,1,37,2,1,,,,,
,1.53,,,,,,,,,d,orange,5e0fe5cc2fc4786f5a0205c0,2021-09-27_11h53.42.372,forced_choiceRT_color,2021.2.3,Win32,59.75500448,,,,,,,,2,Slow,short,k,0,2.1865,9,2,38,0,1,,,,,
,0.88,,,,,,,,,d,orange,5e0fe5cc2fc4786f5a0205c0,2021-09-27_11h53.42.372,forced_choiceRT_color,2021.2.3,Win32,59.75500448,,,,,,,,2,Fast,short,d,1,1.7493,9,3,39,0,1,,,,,
,,,,,,,,,,,,5e0fe5cc2fc4786f5a0205c0,2021-09-27_11h53.42.372,forced_choiceRT_color,2021.2.3,Win32,59.75500448,,,,,,,,,,,,,,,,,,,1,0,1,0,1
,1.68,,,,,,,,,j,red,5e0fe5cc2fc4786f5a0205c0,2021-09-27_11h53.42.372,forced_choiceRT_color,2021.2.3,Win32,59.75500448,,,,,,,,3,Slow,short,k,0,2.2022,0,0,0,2,1,,,,,
,0.46,,,,,,,,,j,red,5e0fe5cc2fc4786f5a0205c0,2021-09-27_11h53.42.372,forced_choiceRT_color,2021.2.3,Win32,59.75500448,,,,,,,,3,Ontime,short,j,1,2.0114,0,1,1,2,1,,,,,
,0.03,,,,,,,,,k,purple,5e0fe5cc2fc4786f5a0205c0,2021-09-27_11h53.42.372,forced_choiceRT_color,2021.2.3,Win32,59.75500448,,,,,,,,3,Slow,short,k,1,2.207,0,2,2,3,1,,,,,
,1.45,,,,,,,,,k,purple,5e0fe5cc2fc4786f5a0205c0,2021-09-27_11h53.42.372,forced_choiceRT_color,2021.2.3,Win32,59.75500448,,,,,,,,3,Fast,short,k,1,1.8713,0,3,3,3,1,,,,,
,0.51,,,,,,,,,j,red,5e0fe5cc2fc4786f5a0205c0,2021-09-27_11h53.42.372,forced_choiceRT_color,2021.2.3,Win32,59.75500448,,,,,,,,3,Fast,short,j,1,1.8769,1,0,4,2,1,,,,,
,0.57,,,,,,,,,j,red,5e0fe5cc2fc4786f5a0205c0,2021-09-27_11h53.42.372,forced_choiceRT_color,2021.2.3,Win32,59.75500448,,,,,,,,3,Ontime,short,j,1,2.0651,1,1,5,2,1,,,,,
,0.91,,,,,,,,,k,purple,5e0fe5cc2fc4786f5a0205c0,2021-09-27_11h53.42.372,forced_choiceRT_color,2021.2.3,Win32,59.75500448,,,,,,,,3,Slow,short,k,1,2.211,1,2,6,3,1,,,,,
,1.59,,,,,,,,,d,orange,5e0fe5cc2fc4786f5a0205c0,2021-09-27_11h53.42.372,forced_choiceRT_color,2021.2.3,Win32,59.75500448,,,,,,,,3,Slow,short,d,1,2.155,1,3,7,0,1,,,,,
,0.15,,,,,,,,,k,purple,5e0fe5cc2fc4786f5a0205c0,2021-09-27_11h53.42.372,forced_choiceRT_color,2021.2.3,Win32,59.75500448,,,,,,,,3,Slow,short,k,1,2.1041,2,0,8,3,1,,,,,
,0.43,,,,,,,,,d,orange,5e0fe5cc2fc4786f5a0205c0,2021-09-27_11h53.42.372,forced_choiceRT_color,2021.2.3,Win32,59.75500448,,,,,,,,3,Ontime,short,d,1,1.9425,2,1,9,0,1,,,,,
,0.51,,,,,,,,,f,blue,5e0fe5cc2fc4786f5a0205c0,2021-09-27_11h53.42.372,forced_choiceRT_color,2021.2.3,Win32,59.75500448,,,,,,,,3,Fast,short,f,1,1.7372,2,2,10,1,1,,,,,
,1.44,,,,,,,,,k,purple,5e0fe5cc2fc4786f5a0205c0,2021-09-27_11h53.42.372,forced_choiceRT_color,2021.2.3,Win32,59.75500448,,,,,,,,3,Ontime,short,k,1,1.9376,2,3,11,3,1,,,,,
,0.51,,,,,,,,,d,orange,5e0fe5cc2fc4786f5a0205c0,2021-09-27_11h53.42.372,forced_choiceRT_color,2021.2.3,Win32,59.75500448,,,,,,,,3,Fast,short,d,1,1.3198,3,0,12,0,1,,,,,
,1.51,,,,,,,,,k,purple,5e0fe5cc2fc4786f5a0205c0,2021-09-27_11h53.42.372,forced_choiceRT_color,2021.2.3,Win32,59.75500448,,,,,,,,3,Slow,short,k,1,2.142,3,1,13,3,1,,,,,
,1.87,,,,,,,,,d,orange,5e0fe5cc2fc4786f5a0205c0,2021-09-27_11h53.42.372,forced_choiceRT_color,2021.2.3,Win32,59.75500448,,,,,,,,3,Slow,short,j,0,2.7364,3,2,14,0,1,,,,,
,0.18,,,,,,,,,d,orange,5e0fe5cc2fc4786f5a0205c0,2021-09-27_11h53.42.372,forced_choiceRT_color,2021.2.3,Win32,59.75500448,,,,,,,,3,Fast,short,f,0,1.7781,3,3,15,0,1,,,,,
,0.22,,,,,,,,,f,blue,5e0fe5cc2fc4786f5a0205c0,2021-09-27_11h53.42.372,forced_choiceRT_color,2021.2.3,Win32,59.75500448,,,,,,,,3,Ontime,short,f,1,2.0382,4,0,16,1,1,,,,,
,0.43,,,,,,,,,j,red,5e0fe5cc2fc4786f5a0205c0,2021-09-27_11h53.42.372,forced_choiceRT_color,2021.2.3,Win32,59.75500448,,,,,,,,3,Ontime,short,j,1,2.0541,4,1,17,2,1,,,,,
,1.77,,,,,,,,,f,blue,5e0fe5cc2fc4786f5a0205c0,2021-09-27_11h53.42.372,forced_choiceRT_color,2021.2.3,Win32,59.75500448,,,,,,,,3,Slow,short,d,0,2.3463,4,2,18,1,1,,,,,
,0.81,,,,,,,,,d,orange,5e0fe5cc2fc4786f5a0205c0,2021-09-27_11h53.42.372,forced_choiceRT_color,2021.2.3,Win32,59.75500448,,,,,,,,3,Fast,short,d,1,1.871,4,3,19,0,1,,,,,
,1.52,,,,,,,,,j,red,5e0fe5cc2fc4786f5a0205c0,2021-09-27_11h53.42.372,forced_choiceRT_color,2021.2.3,Win32,59.75500448,,,,,,,,3,Ontime,short,k,0,2.0575,5,0,20,2,1,,,,,
,0.3,,,,,,,,,f,blue,5e0fe5cc2fc4786f5a0205c0,2021-09-27_11h53.42.372,forced_choiceRT_color,2021.2.3,Win32,59.75500448,,,,,,,,3,Slow,short,d,0,3.7396,5,1,21,1,1,,,,,
,1.6,,,,,,,,,f,blue,5e0fe5cc2fc4786f5a0205c0,2021-09-27_11h53.42.372,forced_choiceRT_color,2021.2.3,Win32,59.75500448,,,,,,,,3,Slow,short,f,1,2.2802,5,2,22,1,1,,,,,
,1.36,,,,,,,,,j,red,5e0fe5cc2fc4786f5a0205c0,2021-09-27_11h53.42.372,forced_choiceRT_color,2021.2.3,Win32,59.75500448,,,,,,,,3,Ontime,short,j,1,2.0058,5,3,23,2,1,,,,,
,1.17,,,,,,,,,f,blue,5e0fe5cc2fc4786f5a0205c0,2021-09-27_11h53.42.372,forced_choiceRT_color,2021.2.3,Win32,59.75500448,,,,,,,,3,Slow,short,f,1,2.1067,6,0,24,1,1,,,,,
,1.6,,,,,,,,,j,red,5e0fe5cc2fc4786f5a0205c0,2021-09-27_11h53.42.372,forced_choiceRT_color,2021.2.3,Win32,59.75500448,,,,,,,,3,Slow,short,j,1,2.2085,6,1,25,2,1,,,,,
,0.6,,,,,,,,,k,purple,5e0fe5cc2fc4786f5a0205c0,2021-09-27_11h53.42.372,forced_choiceRT_color,2021.2.3,Win32,59.75500448,,,,,,,,3,Ontime,short,k,1,2.0812,6,2,26,3,1,,,,,
,0.57,,,,,,,,,f,blue,5e0fe5cc2fc4786f5a0205c0,2021-09-27_11h53.42.372,forced_choiceRT_color,2021.2.3,Win32,59.75500448,,,,,,,,3,Ontime,short,f,1,2.075,6,3,27,1,1,,,,,
,1.57,,,,,,,,,d,orange,5e0fe5cc2fc4786f5a0205c0,2021-09-27_11h53.42.372,forced_choiceRT_color,2021.2.3,Win32,59.75500448,,,,,,,,3,Slow,short,d,1,2.1566,7,0,28,0,1,,,,,
,0.03,,,,,,,,,d,orange,5e0fe5cc2fc4786f5a0205c0,2021-09-27_11h53.42.372,forced_choiceRT_color,2021.2.3,Win32,59.75500448,,,,,,,,3,Ontime,short,d,1,1.9207,7,1,29,0,1,,,,,
,1.97,,,,,,,,,f,blue,5e0fe5cc2fc4786f5a0205c0,2021-09-27_11h53.42.372,forced_choiceRT_color,2021.2.3,Win32,59.75500448,,,,,,,,3,Slow,short,d,0,2.1426,7,2,30,1,1,,,,,
,1.11,,,,,,,,,k,purple,5e0fe5cc2fc4786f5a0205c0,2021-09-27_11h53.42.372,forced_choiceRT_color,2021.2.3,Win32,59.75500448,,,,,,,,3,Fast,short,k,1,1.7873,7,3,31,3,1,,,,,
,0.4,,,,,,,,,k,purple,5e0fe5cc2fc4786f5a0205c0,2021-09-27_11h53.42.372,forced_choiceRT_color,2021.2.3,Win32,59.75500448,,,,,,,,3,Slow,short,k,1,2.1118,8,0,32,3,1,,,,,
,0.68,,,,,,,,,j,red,5e0fe5cc2fc4786f5a0205c0,2021-09-27_11h53.42.372,forced_choiceRT_color,2021.2.3,Win32,59.75500448,,,,,,,,3,Ontime,short,j,1,1.9692,8,1,33,2,1,,,,,
,1.78,,,,,,,,,f,blue,5e0fe5cc2fc4786f5a0205c0,2021-09-27_11h53.42.372,forced_choiceRT_color,2021.2.3,Win32,59.75500448,,,,,,,,3,Slow,short,d,0,2.3041,8,2,34,1,1,,,,,
,1.39,,,,,,,,,d,orange,5e0fe5cc2fc4786f5a0205c0,2021-09-27_11h53.42.372,forced_choiceRT_color,2021.2.3,Win32,59.75500448,,,,,,,,3,Slow,short,d,1,2.1036,8,3,35,0,1,,,,,
,1.16,,,,,,,,,d,orange,5e0fe5cc2fc4786f5a0205c0,2021-09-27_11h53.42.372,forced_choiceRT_color,2021.2.3,Win32,59.75500448,,,,,,,,3,Fast,short,d,1,1.7149,9,0,36,0,1,,,,,
,1.7,,,,,,,,,j,red,5e0fe5cc2fc4786f5a0205c0,2021-09-27_11h53.42.372,forced_choiceRT_color,2021.2.3,Win32,59.75500448,,,,,,,,3,Slow,short,k,0,2.1417,9,1,37,2,1,,,,,
,1.74,,,,,,,,,k,purple,5e0fe5cc2fc4786f5a0205c0,2021-09-27_11h53.42.372,forced_choiceRT_color,2021.2.3,Win32,59.75500448,,,,,,,,3,Slow,short,j,0,2.2566,9,2,38,3,1,,,,,
,0.03,,,,,,,,,f,blue,5e0fe5cc2fc4786f5a0205c0,2021-09-27_11h53.42.372,forced_choiceRT_color,2021.2.3,Win32,59.75500448,,,,,,,,3,Slow,short,f,1,2.1467,9,3,39,1,1,,,,,
,,,,,,,,,,,,5e0fe5cc2fc4786f5a0205c0,2021-09-27_11h53.42.372,forced_choiceRT_color,2021.2.3,Win32,59.75500448,,,,,,,,,,,,,,,,,,,2,0,2,0,1
,0.86,,,,,,,,,j,red,5e0fe5cc2fc4786f5a0205c0,2021-09-27_11h53.42.372,forced_choiceRT_color,2021.2.3,Win32,59.75500448,,,,,,,,4,Ontime,short,j,1,1.9066,0,0,0,2,1,,,,,
,0.27,,,,,,,,,d,orange,5e0fe5cc2fc4786f5a0205c0,2021-09-27_11h53.42.372,forced_choiceRT_color,2021.2.3,Win32,59.75500448,,,,,,,,4,Ontime,short,d,1,2.0288,0,1,1,0,1,,,,,
,1.95,,,,,,,,,j,red,5e0fe5cc2fc4786f5a0205c0,2021-09-27_11h53.42.372,forced_choiceRT_color,2021.2.3,Win32,59.75500448,,,,,,,,4,Slow,short,k,0,2.1606,0,2,2,2,1,,,,,
,1.42,,,,,,,,,j,red,5e0fe5cc2fc4786f5a0205c0,2021-09-27_11h53.42.372,forced_choiceRT_color,2021.2.3,Win32,59.75500448,,,,,,,,4,Fast,short,k,0,1.8685,0,3,3,2,1,,,,,
,0.5,,,,,,,,,k,purple,5e0fe5cc2fc4786f5a0205c0,2021-09-27_11h53.42.372,forced_choiceRT_color,2021.2.3,Win32,59.75500448,,,,,,,,4,Ontime,short,k,1,1.9526,1,0,4,3,1,,,,,
,0.6,,,,,,,,,d,orange,5e0fe5cc2fc4786f5a0205c0,2021-09-27_11h53.42.372,forced_choiceRT_color,2021.2.3,Win32,59.75500448,,,,,,,,4,Slow,short,d,1,2.159,1,1,5,0,1,,,,,
,1.09,,,,,,,,,j,red,5e0fe5cc2fc4786f5a0205c0,2021-09-27_11h53.42.372,forced_choiceRT_color,2021.2.3,Win32,59.75500448,,,,,,,,4,Fast,short,j,1,1.7386,1,2,6,2,1,,,,,
,0.08,,,,,,,,,j,red,5e0fe5cc2fc4786f5a0205c0,2021-09-27_11h53.42.372,forced_choiceRT_color,2021.2.3,Win32,59.75500448,,,,,,,,4,Fast,short,j,1,1.8366,1,3,7,2,1,,,,,
,1.8,,,,,,,,,d,orange,5e0fe5cc2fc4786f5a0205c0,2021-09-27_11h53.42.372,forced_choiceRT_color,2021.2.3,Win32,59.75500448,,,,,,,,4,Slow,short,f,0,2.269,2,0,8,0,1,,,,,
,0.83,,,,,,,,,k,purple,5e0fe5cc2fc4786f5a0205c0,2021-09-27_11h53.42.372,forced_choiceRT_color,2021.2.3,Win32,59.75500448,,,,,,,,4,Fast,short,k,1,1.7864,2,1,9,3,1,,,,,
,1.23,,,,,,,,,d,orange,5e0fe5cc2fc4786f5a0205c0,2021-09-27_11h53.42.372,forced_choiceRT_color,2021.2.3,Win32,59.75500448,,,,,,,,4,Ontime,short,j,0,2.0755,2,2,10,0,1,,,,,
,0.57,,,,,,,,,d,orange,5e0fe5cc2fc4786f5a0205c0,2021-09-27_11h53.42.372,forced_choiceRT_color,2021.2.3,Win32,59.75500448,,,,,,,,4,Fast,short,d,1,0.1502,2,3,11,0,1,,,,,
,1,,,,,,,,,f,blue,5e0fe5cc2fc4786f5a0205c0,2021-09-27_11h53.42.372,forced_choiceRT_color,2021.2.3,Win32,59.75500448,,,,,,,,4,Ontime,short,f,1,1.9865,3,0,12,1,1,,,,,
,0.64,,,,,,,,,j,red,5e0fe5cc2fc4786f5a0205c0,2021-09-27_11h53.42.372,forced_choiceRT_color,2021.2.3,Win32,59.75500448,,,,,,,,4,Slow,short,j,1,2.2381,3,1,13,2,1,,,,,
,1.39,,,,,,,,,f,blue,5e0fe5cc2fc4786f5a0205c0,2021-09-27_11h53.42.372,forced_choiceRT_color,2021.2.3,Win32,59.75500448,,,,,,,,4,Slow,short,f,1,2.1692,3,2,14,1,1,,,,,
,0.23,,,,,,,,,d,orange,5e0fe5cc2fc4786f5a0205c0,2021-09-27_11h53.42.372,forced_choiceRT_color,2021.2.3,Win32,59.75500448,,,,,,,,4,Fast,short,d,1,1.744,3,3,15,0,1,,,,,
,1.19,,,,,,,,,k,purple,5e0fe5cc2fc4786f5a0205c0,2021-09-27_11h53.42.372,forced_choiceRT_color,2021.2.3,Win32,59.75500448,,,,,,,,4,Fast,short,k,1,1.8199,4,0,16,3,1,,,,,
,1.35,,,,,,,,,f,blue,5e0fe5cc2fc4786f5a0205c0,2021-09-27_11h53.42.372,forced_choiceRT_color,2021.2.3,Win32,59.75500448,,,,,,,,4,Ontime,short,f,1,2.0127,4,1,17,1,1,,,,,
,1.43,,,,,,,,,k,purple,5e0fe5cc2fc4786f5a0205c0,2021-09-27_11h53.42.372,forced_choiceRT_color,2021.2.3,Win32,59.75500448,,,,,,,,4,Slow,short,k,1,2.4037,4,2,18,3,1,,,,,
,1.19,,,,,,,,,k,purple,5e0fe5cc2fc4786f5a0205c0,2021-09-27_11h53.42.372,forced_choiceRT_color,2021.2.3,Win32,59.75500448,,,,,,,,4,Fast,short,k,1,1.6546,4,3,19,3,1,,,,,
,1.37,,,,,,,,,d,orange,5e0fe5cc2fc4786f5a0205c0,2021-09-27_11h53.42.372,forced_choiceRT_color,2021.2.3,Win32,59.75500448,,,,,,,,4,Ontime,short,d,1,2.0765,5,0,20,0,1,,,,,
,0,,,,,,,,,f,blue,5e0fe5cc2fc4786f5a0205c0,2021-09-27_11h53.42.372,forced_choiceRT_color,2021.2.3,Win32,59.75500448,,,,,,,,4,Ontime,short,f,1,2.0183,5,1,21,1,1,,,,,
,0.23,,,,,,,,,f,blue,5e0fe5cc2fc4786f5a0205c0,2021-09-27_11h53.42.372,forced_choiceRT_color,2021.2.3,Win32,59.75500448,,,,,,,,4,Slow,short,f,1,2.1555,5,2,22,1,1,,,,,
,0.06,,,,,,,,,d,orange,5e0fe5cc2fc4786f5a0205c0,2021-09-27_11h53.42.372,forced_choiceRT_color,2021.2.3,Win32,59.75500448,,,,,,,,4,Ontime,short,d,1,1.9653,5,3,23,0,1,,,,,
,1.76,,,,,,,,,k,purple,5e0fe5cc2fc4786f5a0205c0,2021-09-27_11h53.42.372,forced_choiceRT_color,2021.2.3,Win32,59.75500448,,,,,,,,4,Slow,short,k,1,2.3194,6,0,24,3,1,,,,,
,0.22,,,,,,,,,k,purple,5e0fe5cc2fc4786f5a0205c0,2021-09-27_11h53.42.372,forced_choiceRT_color,2021.2.3,Win32,59.75500448,,,,,,,,4,Slow,short,k,1,2.1192,6,1,25,3,1,,,,,
,1.84,,,,,,,,,d,orange,5e0fe5cc2fc4786f5a0205c0,2021-09-27_11h53.42.372,forced_choiceRT_color,2021.2.3,Win32,59.75500448,,,,,,,,4,Slow,short,j,0,2.2903,6,2,26,0,1,,,,,
,0.16,,,,,,,,,f,blue,5e0fe5cc2fc4786f5a0205c0,2021-09-27_11h53.42.372,forced_choiceRT_color,2021.2.3,Win32,59.75500448,,,,,,,,4,Ontime,short,f,1,1.935,6,3,27,1,1,,,,,
,0.19,,,,,,,,,f,blue,5e0fe5cc2fc4786f5a0205c0,2021-09-27_11h53.42.372,forced_choiceRT_color,2021.2.3,Win32,59.75500448,,,,,,,,4,Slow,short,f,1,2.1085,7,0,28,1,1,,,,,
,0.54,,,,,,,,,f,blue,5e0fe5cc2fc4786f5a0205c0,2021-09-27_11h53.42.372,forced_choiceRT_color,2021.2.3,Win32,59.75500448,,,,,,,,4,Ontime,short,f,1,1.9691,7,1,29,1,1,,,,,
,0.02,,,,,,,,,k,purple,5e0fe5cc2fc4786f5a0205c0,2021-09-27_11h53.42.372,forced_choiceRT_color,2021.2.3,Win32,59.75500448,,,,,,,,4,Ontime,short,k,1,2.0554,7,2,30,3,1,,,,,
,1.9,,,,,,,,,j,red,5e0fe5cc2fc4786f5a0205c0,2021-09-27_11h53.42.372,forced_choiceRT_color,2021.2.3,Win32,59.75500448,,,,,,,,4,Slow,short,j,1,2.5206,7,3,31,2,1,,,,,
,0.2,,,,,,,,,j,red,5e0fe5cc2fc4786f5a0205c0,2021-09-27_11h53.42.372,forced_choiceRT_color,2021.2.3,Win32,59.75500448,,,,,,,,4,Ontime,short,j,1,2.0803,8,0,32,2,1,,,,,
,1.87,,,,,,,,,d,orange,5e0fe5cc2fc4786f5a0205c0,2021-09-27_11h53.42.372,forced_choiceRT_color,2021.2.3,Win32,59.75500448,,,,,,,,4,Slow,short,d,1,2.3846,8,1,33,0,1,,,,,
,1.38,,,,,,,,,k,purple,5e0fe5cc2fc4786f5a0205c0,2021-09-27_11h53.42.372,forced_choiceRT_color,2021.2.3,Win32,59.75500448,,,,,,,,4,Ontime,short,k,1,1.9917,8,2,34,3,1,,,,,
,1.72,,,,,,,,,j,red,5e0fe5cc2fc4786f5a0205c0,2021-09-27_11h53.42.372,forced_choiceRT_color,2021.2.3,Win32,59.75500448,,,,,,,,4,Slow,short,j,1,2.3718,8,3,35,2,1,,,,,
,0.23,,,,,,,,,f,blue,5e0fe5cc2fc4786f5a0205c0,2021-09-27_11h53.42.372,forced_choiceRT_color,2021.2.3,Win32,59.75500448,,,,,,,,4,Ontime,short,f,1,2.0803,9,0,36,1,1,,,,,
,1.7,,,,,,,,,f,blue,5e0fe5cc2fc4786f5a0205c0,2021-09-27_11h53.42.372,forced_choiceRT_color,2021.2.3,Win32,59.75500448,,,,,,,,4,Slow,short,f,1,2.3957,9,1,37,1,1,,,,,
,0.05,,,,,,,,,k,purple,5e0fe5cc2fc4786f5a0205c0,2021-09-27_11h53.42.372,forced_choiceRT_color,2021.2.3,Win32,59.75500448,,,,,,,,4,Fast,short,k,1,1.8242,9,2,38,3,1,,,,,
,0.66,,,,,,,,,j,red,5e0fe5cc2fc4786f5a0205c0,2021-09-27_11h53.42.372,forced_choiceRT_color,2021.2.3,Win32,59.75500448,,,,,,,,4,Fast,short,d,0,1.7038,9,3,39,2,1,,,,,
,,,,,,,,,,,,5e0fe5cc2fc4786f5a0205c0,2021-09-27_11h53.42.372,forced_choiceRT_color,2021.2.3,Win32,59.75500448,,,,,,,,,,,,,,,,,,,3,0,3,0,1
,1.51,,,,,,,,,d,orange,5e0fe5cc2fc4786f5a0205c0,2021-09-27_11h53.42.372,forced_choiceRT_color,2021.2.3,Win32,59.75500448,,,,,,,,5,Ontime,short,d,1,2.072,0,0,0,0,1,,,,,
,1.34,,,,,,,,,j,red,5e0fe5cc2fc4786f5a0205c0,2021-09-27_11h53.42.372,forced_choiceRT_color,2021.2.3,Win32,59.75500448,,,,,,,,5,Slow,short,k,0,2.1047,0,1,1,2,1,,,,,
,1.02,,,,,,,,,d,orange,5e0fe5cc2fc4786f5a0205c0,2021-09-27_11h53.42.372,forced_choiceRT_color,2021.2.3,Win32,59.75500448,,,,,,,,5,Ontime,short,d,1,1.9237,0,2,2,0,1,,,,,
,1.86,,,,,,,,,k,purple,5e0fe5cc2fc4786f5a0205c0,2021-09-27_11h53.42.372,forced_choiceRT_color,2021.2.3,Win32,59.75500448,,,,,,,,5,Slow,short,j,0,2.4209,0,3,3,3,1,,,,,
,1.44,,,,,,,,,j,red,5e0fe5cc2fc4786f5a0205c0,2021-09-27_11h53.42.372,forced_choiceRT_color,2021.2.3,Win32,59.75500448,,,,,,,,5,Fast,short,k,0,1.7709,1,0,4,2,1,,,,,
,1.31,,,,,,,,,k,purple,5e0fe5cc2fc4786f5a0205c0,2021-09-27_11h53.42.372,forced_choiceRT_color,2021.2.3,Win32,59.75500448,,,,,,,,5,Slow,short,k,1,2.1479,1,1,5,3,1,,,,,
,0.65,,,,,,,,,f,blue,5e0fe5cc2fc4786f5a0205c0,2021-09-27_11h53.42.372,forced_choiceRT_color,2021.2.3,Win32,59.75500448,,,,,,,,5,Fast,short,k,0,1.8836,1,2,6,1,1,,,,,
,0.78,,,,,,,,,k,purple,5e0fe5cc2fc4786f5a0205c0,2021-09-27_11h53.42.372,forced_choiceRT_color,2021.2.3,Win32,59.75500448,,,,,,,,5,Slow,short,k,1,2.2696,1,3,7,3,1,,,,,
,0.9,,,,,,,,,k,purple,5e0fe5cc2fc4786f5a0205c0,2021-09-27_11h53.42.372,forced_choiceRT_color,2021.2.3,Win32,59.75500448,,,,,,,,5,Ontime,short,j,0,2.004,2,0,8,3,1,,,,,
,1.33,,,,,,,,,f,blue,5e0fe5cc2fc4786f5a0205c0,2021-09-27_11h53.42.372,forced_choiceRT_color,2021.2.3,Win32,59.75500448,,,,,,,,5,Ontime,short,j,0,2.0705,2,1,9,1,1,,,,,
,1.3,,,,,,,,,j,red,5e0fe5cc2fc4786f5a0205c0,2021-09-27_11h53.42.372,forced_choiceRT_color,2021.2.3,Win32,59.75500448,,,,,,,,5,Ontime,short,j,1,2.0224,2,2,10,2,1,,,,,
,0.23,,,,,,,,,j,red,5e0fe5cc2fc4786f5a0205c0,2021-09-27_11h53.42.372,forced_choiceRT_color,2021.2.3,Win32,59.75500448,,,,,,,,5,Ontime,short,j,1,2.0279,2,3,11,2,1,,,,,
,1.77,,,,,,,,,k,purple,5e0fe5cc2fc4786f5a0205c0,2021-09-27_11h53.42.372,forced_choiceRT_color,2021.2.3,Win32,59.75500448,,,,,,,,5,Ontime,short,j,0,2.0186,3,0,12,3,1,,,,,
,0.61,,,,,,,,,k,purple,5e0fe5cc2fc4786f5a0205c0,2021-09-27_11h53.42.372,forced_choiceRT_color,2021.2.3,Win32,59.75500448,,,,,,,,5,Ontime,short,k,1,1.9204,3,1,13,3,1,,,,,
,1.5,,,,,,,,,d,orange,5e0fe5cc2fc4786f5a0205c0,2021-09-27_11h53.42.372,forced_choiceRT_color,2021.2.3,Win32,59.75500448,,,,,,,,5,Fast,short,j,0,1.8548,3,2,14,0,1,,,,,
,1.96,,,,,,,,,j,red,5e0fe5cc2fc4786f5a0205c0,2021-09-27_11h53.42.372,forced_choiceRT_color,2021.2.3,Win32,59.75500448,,,,,,,,5,Slow,short,d,0,2.1906,3,3,15,2,1,,,,,
,1.72,,,,,,,,,f,blue,5e0fe5cc2fc4786f5a0205c0,2021-09-27_11h53.42.372,forced_choiceRT_color,2021.2.3,Win32,59.75500448,,,,,,,,5,Fast,short,j,0,1.7835,4,0,16,1,1,,,,,
,0.33,,,,,,,,,k,purple,5e0fe5cc2fc4786f5a0205c0,2021-09-27_11h53.42.372,forced_choiceRT_color,2021.2.3,Win32,59.75500448,,,,,,,,5,Ontime,short,k,1,2.088,4,1,17,3,1,,,,,
,0.61,,,,,,,,,j,red,5e0fe5cc2fc4786f5a0205c0,2021-09-27_11h53.42.372,forced_choiceRT_color,2021.2.3,Win32,59.75500448,,,,,,,,5,Ontime,short,j,1,2.0397,4,2,18,2,1,,,,,
,0.45,,,,,,,,,k,purple,5e0fe5cc2fc4786f5a0205c0,2021-09-27_11h53.42.372,forced_choiceRT_color,2021.2.3,Win32,59.75500448,,,,,,,,5,Ontime,short,k,1,1.9076,4,3,19,3,1,,,,,
,1.9,,,,,,,,,j,red,5e0fe5cc2fc4786f5a0205c0,2021-09-27_11h53.42.372,forced_choiceRT_color,2021.2.3,Win32,59.75500448,,,,,,,,5,Fast,short,k,0,1.7747,5,0,20,2,1,,,,,
,0.13,,,,,,,,,f,blue,5e0fe5cc2fc4786f5a0205c0,2021-09-27_11h53.42.372,forced_choiceRT_color,2021.2.3,Win32,59.75500448,,,,,,,,5,Fast,short,f,1,1.8549,5,1,21,1,1,,,,,
,1.45,,,,,,,,,d,orange,5e0fe5cc2fc4786f5a0205c0,2021-09-27_11h53.42.372,forced_choiceRT_color,2021.2.3,Win32,59.75500448,,,,,,,,5,Slow,short,d,1,2.1039,5,2,22,0,1,,,,,
,1.71,,,,,,,,,k,purple,5e0fe5cc2fc4786f5a0205c0,2021-09-27_11h53.42.372,forced_choiceRT_color,2021.2.3,Win32,59.75500448,,,,,,,,5,Ontime,short,f,0,2.0599,5,3,23,3,1,,,,,
,1.58,,,,,,,,,f,blue,5e0fe5cc2fc4786f5a0205c0,2021-09-27_11h53.42.372,forced_choiceRT_color,2021.2.3,Win32,59.75500448,,,,,,,,5,Slow,short,d,0,2.1039,6,0,24,1,1,,,,,
,0.85,,,,,,,,,d,orange,5e0fe5cc2fc4786f5a0205c0,2021-09-27_11h53.42.372,forced_choiceRT_color,2021.2.3,Win32,59.75500448,,,,,,,,5,Fast,short,d,1,1.723,6,1,25,0,1,,,,,
,1.69,,,,,,,,,f,blue,5e0fe5cc2fc4786f5a0205c0,2021-09-27_11h53.42.372,forced_choiceRT_color,2021.2.3,Win32,59.75500448,,,,,,,,5,Ontime,short,d,0,1.9088,6,2,26,1,1,,,,,
,1.31,,,,,,,,,f,blue,5e0fe5cc2fc4786f5a0205c0,2021-09-27_11h53.42.372,forced_choiceRT_color,2021.2.3,Win32,59.75500448,,,,,,,,5,Slow,short,f,1,2.1092,6,3,27,1,1,,,,,
,1.39,,,,,,,,,d,orange,5e0fe5cc2fc4786f5a0205c0,2021-09-27_11h53.42.372,forced_choiceRT_color,2021.2.3,Win32,59.75500448,,,,,,,,5,Fast,short,f,0,1.7667,7,0,28,0,1,,,,,
,1.03,,,,,,,,,d,orange,5e0fe5cc2fc4786f5a0205c0,2021-09-27_11h53.42.372,forced_choiceRT_color,2021.2.3,Win32,59.75500448,,,,,,,,5,Slow,short,d,1,2.1079,7,1,29,0,1,,,,,
,0.84,,,,,,,,,f,blue,5e0fe5cc2fc4786f5a0205c0,2021-09-27_11h53.42.372,forced_choiceRT_color,2021.2.3,Win32,59.75500448,,,,,,,,5,Ontime,short,f,1,2.0033,7,2,30,1,1,,,,,
,0,,,,,,,,,d,orange,5e0fe5cc2fc4786f5a0205c0,2021-09-27_11h53.42.372,forced_choiceRT_color,2021.2.3,Win32,59.75500448,,,,,,,,5,Ontime,short,d,1,1.9709,7,3,31,0,1,,,,,
,0.71,,,,,,,,,d,orange,5e0fe5cc2fc4786f5a0205c0,2021-09-27_11h53.42.372,forced_choiceRT_color,2021.2.3,Win32,59.75500448,,,,,,,,5,Slow,short,d,1,2.1767,8,0,32,0,1,,,,,
,1.2,,,,,,,,,f,blue,5e0fe5cc2fc4786f5a0205c0,2021-09-27_11h53.42.372,forced_choiceRT_color,2021.2.3,Win32,59.75500448,,,,,,,,5,Ontime,short,f,1,2.0109,8,1,33,1,1,,,,,
,0.82,,,,,,,,,j,red,5e0fe5cc2fc4786f5a0205c0,2021-09-27_11h53.42.372,forced_choiceRT_color,2021.2.3,Win32,59.75500448,,,,,,,,5,Ontime,short,j,1,2.0714,8,2,34,2,1,,,,,
,1.14,,,,,,,,,j,red,5e0fe5cc2fc4786f5a0205c0,2021-09-27_11h53.42.372,forced_choiceRT_color,2021.2.3,Win32,59.75500448,,,,,,,,5,Slow,short,j,1,2.1119,8,3,35,2,1,,,,,
,1.03,,,,,,,,,j,red,5e0fe5cc2fc4786f5a0205c0,2021-09-27_11h53.42.372,forced_choiceRT_color,2021.2.3,Win32,59.75500448,,,,,,,,5,Slow,short,j,1,2.2541,9,0,36,2,1,,,,,
,0.41,,,,,,,,,k,purple,5e0fe5cc2fc4786f5a0205c0,2021-09-27_11h53.42.372,forced_choiceRT_color,2021.2.3,Win32,59.75500448,,,,,,,,5,Fast,short,k,1,1.8524,9,1,37,3,1,,,,,
,0.53,,,,,,,,,d,orange,5e0fe5cc2fc4786f5a0205c0,2021-09-27_11h53.42.372,forced_choiceRT_color,2021.2.3,Win32,59.75500448,,,,,,,,5,Ontime,short,d,1,1.9972,9,2,38,0,1,,,,,
,1.03,,,,,,,,,f,blue,5e0fe5cc2fc4786f5a0205c0,2021-09-27_11h53.42.372,forced_choiceRT_color,2021.2.3,Win32,59.75500448,,,,,,,,5,Ontime,short,f,1,1.9877,9,3,39,1,1,,,,,
,,,,,,,,,,,,5e0fe5cc2fc4786f5a0205c0,2021-09-27_11h53.42.372,forced_choiceRT_color,2021.2.3,Win32,59.75500448,,,,,,,,,,,,,,,,,,,4,0,4,0,1
,0.03,,,,,,,,,d,orange,5e0fe5cc2fc4786f5a0205c0,2021-09-27_11h53.42.372,forced_choiceRT_color,2021.2.3,Win32,59.75500448,,,,,,,,6,Ontime,short,d,1,2.0548,0,0,0,0,1,,,,,
,1.28,,,,,,,,,k,purple,5e0fe5cc2fc4786f5a0205c0,2021-09-27_11h53.42.372,forced_choiceRT_color,2021.2.3,Win32,59.75500448,,,,,,,,6,Ontime,short,k,1,2.0091,0,1,1,3,1,,,,,
,1.79,,,,,,,,,f,blue,5e0fe5cc2fc4786f5a0205c0,2021-09-27_11h53.42.372,forced_choiceRT_color,2021.2.3,Win32,59.75500448,,,,,,,,6,Ontime,short,k,0,2.045,0,2,2,1,1,,,,,
,1.09,,,,,,,,,k,purple,5e0fe5cc2fc4786f5a0205c0,2021-09-27_11h53.42.372,forced_choiceRT_color,2021.2.3,Win32,59.75500448,,,,,,,,6,Ontime,short,f,0,2.0044,0,3,3,3,1,,,,,
,1.64,,,,,,,,,d,orange,5e0fe5cc2fc4786f5a0205c0,2021-09-27_11h53.42.372,forced_choiceRT_color,2021.2.3,Win32,59.75500448,,,,,,,,6,Ontime,short,k,0,2.036,1,0,4,0,1,,,,,
,1.06,,,,,,,,,d,orange,5e0fe5cc2fc4786f5a0205c0,2021-09-27_11h53.42.372,forced_choiceRT_color,2021.2.3,Win32,59.75500448,,,,,,,,6,Fast,short,d,1,1.5763,1,1,5,0,1,,,,,
,0.08,,,,,,,,,j,red,5e0fe5cc2fc4786f5a0205c0,2021-09-27_11h53.42.372,forced_choiceRT_color,2021.2.3,Win32,59.75500448,,,,,,,,6,Fast,short,j,1,1.8901,1,2,6,2,1,,,,,
,0.93,,,,,,,,,d,orange,5e0fe5cc2fc4786f5a0205c0,2021-09-27_11h53.42.372,forced_choiceRT_color,2021.2.3,Win32,59.75500448,,,,,,,,6,Ontime,short,d,1,2.0469,1,3,7,0,1,,,,,
,1.66,,,,,,,,,k,purple,5e0fe5cc2fc4786f5a0205c0,2021-09-27_11h53.42.372,forced_choiceRT_color,2021.2.3,Win32,59.75500448,,,,,,,,6,Slow,short,k,1,2.4258,2,0,8,3,1,,,,,
,0.36,,,,,,,,,j,red,5e0fe5cc2fc4786f5a0205c0,2021-09-27_11h53.42.372,forced_choiceRT_color,2021.2.3,Win32,59.75500448,,,,,,,,6,Ontime,short,j,1,2.016,2,1,9,2,1,,,,,
,0.67,,,,,,,,,j,red,5e0fe5cc2fc4786f5a0205c0,2021-09-27_11h53.42.372,forced_choiceRT_color,2021.2.3,Win32,59.75500448,,,,,,,,6,Slow,short,j,1,2.137,2,2,10,2,1,,,,,
,0.59,,,,,,,,,f,blue,5e0fe5cc2fc4786f5a0205c0,2021-09-27_11h53.42.372,forced_choiceRT_color,2021.2.3,Win32,59.75500448,,,,,,,,6,Slow,short,f,1,2.19,2,3,11,1,1,,,,,
,1.94,,,,,,,,,k,purple,5e0fe5cc2fc4786f5a0205c0,2021-09-27_11h53.42.372,forced_choiceRT_color,2021.2.3,Win32,59.75500448,,,,,,,,6,Slow,short,k,1,2.1107,3,0,12,3,1,,,,,
,0.06,,,,,,,,,f,blue,5e0fe5cc2fc4786f5a0205c0,2021-09-27_11h53.42.372,forced_choiceRT_color,2021.2.3,Win32,59.75500448,,,,,,,,6,Ontime,short,f,1,2.0494,3,1,13,1,1,,,,,
,0.89,,,,,,,,,d,orange,5e0fe5cc2fc4786f5a0205c0,2021-09-27_11h53.42.372,forced_choiceRT_color,2021.2.3,Win32,59.75500448,,,,,,,,6,Ontime,short,d,1,1.9249,3,2,14,0,1,,,,,
,0.31,,,,,,,,,d,orange,5e0fe5cc2fc4786f5a0205c0,2021-09-27_11h53.42.372,forced_choiceRT_color,2021.2.3,Win32,59.75500448,,,,,,,,6,Ontime,short,d,1,2.0547,3,3,15,0,1,,,,,
,1.79,,,,,,,,,d,orange,5e0fe5cc2fc4786f5a0205c0,2021-09-27_11h53.42.372,forced_choiceRT_color,2021.2.3,Win32,59.75500448,,,,,,,,6,Ontime,short,d,1,2.0073,4,0,16,0,1,,,,,
,0.14,,,,,,,,,j,red,5e0fe5cc2fc4786f5a0205c0,2021-09-27_11h53.42.372,forced_choiceRT_color,2021.2.3,Win32,59.75500448,,,,,,,,6,Ontime,short,j,1,1.901,4,1,17,2,1,,,,,
,1.71,,,,,,,,,f,blue,5e0fe5cc2fc4786f5a0205c0,2021-09-27_11h53.42.372,forced_choiceRT_color,2021.2.3,Win32,59.75500448,,,,,,,,6,Ontime,short,j,0,2.0121,4,2,18,1,1,,,,,
,0.52,,,,,,,,,j,red,5e0fe5cc2fc4786f5a0205c0,2021-09-27_11h53.42.372,forced_choiceRT_color,2021.2.3,Win32,59.75500448,,,,,,,,6,Ontime,short,j,1,2.0858,4,3,19,2,1,,,,,
,0.15,,,,,,,,,k,purple,5e0fe5cc2fc4786f5a0205c0,2021-09-27_11h53.42.372,forced_choiceRT_color,2021.2.3,Win32,59.75500448,,,,,,,,6,Ontime,short,k,1,1.962,5,0,20,3,1,,,,,
,0.87,,,,,,,,,d,orange,5e0fe5cc2fc4786f5a0205c0,2021-09-27_11h53.42.372,forced_choiceRT_color,2021.2.3,Win32,59.75500448,,,,,,,,6,Fast,short,d,1,1.7923,5,1,21,0,1,,,,,
,0.88,,,,,,,,,j,red,5e0fe5cc2fc4786f5a0205c0,2021-09-27_11h53.42.372,forced_choiceRT_color,2021.2.3,Win32,59.75500448,,,,,,,,6,Fast,short,j,1,1.7703,5,2,22,2,1,,,,,
,0.5,,,,,,,,,f,blue,5e0fe5cc2fc4786f5a0205c0,2021-09-27_11h53.42.372,forced_choiceRT_color,2021.2.3,Win32,59.75500448,,,,,,,,6,Slow,short,f,1,2.2166,5,3,23,1,1,,,,,
,0.44,,,,,,,,,k,purple,5e0fe5cc2fc4786f5a0205c0,2021-09-27_11h53.42.372,forced_choiceRT_color,2021.2.3,Win32,59.75500448,,,,,,,,6,Slow,short,k,1,2.1106,6,0,24,3,1,,,,,
,1.97,,,,,,,,,k,purple,5e0fe5cc2fc4786f5a0205c0,2021-09-27_11h53.42.372,forced_choiceRT_color,2021.2.3,Win32,59.75500448,,,,,,,,6,Ontime,short,k,1,1.9763,6,1,25,3,1,,,,,
,0.67,,,,,,,,,j,red,5e0fe5cc2fc4786f5a0205c0,2021-09-27_11h53.42.372,forced_choiceRT_color,2021.2.3,Win32,59.75500448,,,,,,,,6,Ontime,short,j,1,2.0549,6,2,26,2,1,,,,,
,0.97,,,,,,,,,f,blue,5e0fe5cc2fc4786f5a0205c0,2021-09-27_11h53.42.372,forced_choiceRT_color,2021.2.3,Win32,59.75500448,,,,,,,,6,Fast,short,f,1,1.7926,6,3,27,1,1,,,,,
,1.61,,,,,,,,,k,purple,5e0fe5cc2fc4786f5a0205c0,2021-09-27_11h53.42.372,forced_choiceRT_color,2021.2.3,Win32,59.75500448,,,,,,,,6,Slow,short,f,0,2.1028,7,0,28,3,1,,,,,
,1,,,,,,,,,k,purple,5e0fe5cc2fc4786f5a0205c0,2021-09-27_11h53.42.372,forced_choiceRT_color,2021.2.3,Win32,59.75500448,,,,,,,,6,Fast,short,j,0,1.6763,7,1,29,3,1,,,,,
,1.48,,,,,,,,,f,blue,5e0fe5cc2fc4786f5a0205c0,2021-09-27_11h53.42.372,forced_choiceRT_color,2021.2.3,Win32,59.75500448,,,,,,,,6,Ontime,short,f,1,1.9709,7,2,30,1,1,,,,,
,0.65,,,,,,,,,k,purple,5e0fe5cc2fc4786f5a0205c0,2021-09-27_11h53.42.372,forced_choiceRT_color,2021.2.3,Win32,59.75500448,,,,,,,,6,Ontime,short,j,0,2.0804,7,3,31,3,1,,,,,
,0.83,,,,,,,,,j,red,5e0fe5cc2fc4786f5a0205c0,2021-09-27_11h53.42.372,forced_choiceRT_color,2021.2.3,Win32,59.75500448,,,,,,,,6,Slow,short,k,0,2.1137,8,0,32,2,1,,,,,
,0.46,,,,,,,,,f,blue,5e0fe5cc2fc4786f5a0205c0,2021-09-27_11h53.42.372,forced_choiceRT_color,2021.2.3,Win32,59.75500448,,,,,,,,6,Slow,short,f,1,2.1039,8,1,33,1,1,,,,,
,1.17,,,,,,,,,j,red,5e0fe5cc2fc4786f5a0205c0,2021-09-27_11h53.42.372,forced_choiceRT_color,2021.2.3,Win32,59.75500448,,,,,,,,6,Ontime,short,j,1,2.0366,8,2,34,2,1,,,,,
,1.21,,,,,,,,,d,orange,5e0fe5cc2fc4786f5a0205c0,2021-09-27_11h53.42.372,forced_choiceRT_color,2021.2.3,Win32,59.75500448,,,,,,,,6,Slow,short,f,0,2.1537,8,3,35,0,1,,,,,
,0.3,,,,,,,,,d,orange,5e0fe5cc2fc4786f5a0205c0,2021-09-27_11h53.42.372,forced_choiceRT_color,2021.2.3,Win32,59.75500448,,,,,,,,6,Fast,short,f,0,1.8512,9,0,36,0,1,,,,,
,1.74,,,,,,,,,f,blue,5e0fe5cc2fc4786f5a0205c0,2021-09-27_11h53.42.372,forced_choiceRT_color,2021.2.3,Win32,59.75500448,,,,,,,,6,Slow,short,f,1,2.2262,9,1,37,1,1,,,,,
,1.05,,,,,,,,,j,red,5e0fe5cc2fc4786f5a0205c0,2021-09-27_11h53.42.372,forced_choiceRT_color,2021.2.3,Win32,59.75500448,,,,,,,,6,Slow,short,j,1,2.1198,9,2,38,2,1,,,,,
,0.08,,,,,,,,,f,blue,5e0fe5cc2fc4786f5a0205c0,2021-09-27_11h53.42.372,forced_choiceRT_color,2021.2.3,Win32,59.75500448,,,,,,,,6,Slow,short,f,1,2.2364,9,3,39,1,1,,,,,
,,,,,,,,,,,,5e0fe5cc2fc4786f5a0205c0,2021-09-27_11h53.42.372,forced_choiceRT_color,2021.2.3,Win32,59.75500448,,,,,,,,,,,,,,,,,,,5,0,5,0,1
,1.94,,,,,,,,,k,purple,5e0fe5cc2fc4786f5a0205c0,2021-09-27_11h53.42.372,forced_choiceRT_color,2021.2.3,Win32,59.75500448,,,,,,,,7,Slow,short,j,0,2.5095,0,0,0,3,1,,,,,
,0.19,,,,,,,,,f,blue,5e0fe5cc2fc4786f5a0205c0,2021-09-27_11h53.42.372,forced_choiceRT_color,2021.2.3,Win32,59.75500448,,,,,,,,7,Slow,short,f,1,2.1277,0,1,1,1,1,,,,,
,1.1,,,,,,,,,f,blue,5e0fe5cc2fc4786f5a0205c0,2021-09-27_11h53.42.372,forced_choiceRT_color,2021.2.3,Win32,59.75500448,,,,,,,,7,Slow,short,f,1,2.1207,0,2,2,1,1,,,,,
,0.29,,,,,,,,,j,red,5e0fe5cc2fc4786f5a0205c0,2021-09-27_11h53.42.372,forced_choiceRT_color,2021.2.3,Win32,59.75500448,,,,,,,,7,Slow,short,k,0,2.27,0,3,3,2,1,,,,,
,1.37,,,,,,,,,k,purple,5e0fe5cc2fc4786f5a0205c0,2021-09-27_11h53.42.372,forced_choiceRT_color,2021.2.3,Win32,59.75500448,,,,,,,,7,Ontime,short,j,0,1.9464,1,0,4,3,1,,,,,
,1.41,,,,,,,,,d,orange,5e0fe5cc2fc4786f5a0205c0,2021-09-27_11h53.42.372,forced_choiceRT_color,2021.2.3,Win32,59.75500448,,,,,,,,7,Slow,short,d,1,2.3091,1,1,5,0,1,,,,,
,0.07,,,,,,,,,d,orange,5e0fe5cc2fc4786f5a0205c0,2021-09-27_11h53.42.372,forced_choiceRT_color,2021.2.3,Win32,59.75500448,,,,,,,,7,Slow,short,d,1,2.1032,1,2,6,0,1,,,,,
,1.84,,,,,,,,,j,red,5e0fe5cc2fc4786f5a0205c0,2021-09-27_11h53.42.372,forced_choiceRT_color,2021.2.3,Win32,59.75500448,,,,,,,,7,Slow,short,k,0,2.5617,1,3,7,2,1,,,,,
,0.82,,,,,,,,,k,purple,5e0fe5cc2fc4786f5a0205c0,2021-09-27_11h53.42.372,forced_choiceRT_color,2021.2.3,Win32,59.75500448,,,,,,,,7,Slow,short,k,1,2.1037,2,0,8,3,1,,,,,
,1.61,,,,,,,,,j,red,5e0fe5cc2fc4786f5a0205c0,2021-09-27_11h53.42.372,forced_choiceRT_color,2021.2.3,Win32,59.75500448,,,,,,,,7,Slow,short,j,1,2.2202,2,1,9,2,1,,,,,
,1.01,,,,,,,,,k,purple,5e0fe5cc2fc4786f5a0205c0,2021-09-27_11h53.42.372,forced_choiceRT_color,2021.2.3,Win32,59.75500448,,,,,,,,7,Fast,short,k,1,1.6134,2,2,10,3,1,,,,,
,0.62,,,,,,,,,k,purple,5e0fe5cc2fc4786f5a0205c0,2021-09-27_11h53.42.372,forced_choiceRT_color,2021.2.3,Win32,59.75500448,,,,,,,,7,Ontime,short,k,1,1.9835,2,3,11,3,1,,,,,
,0.44,,,,,,,,,j,red,5e0fe5cc2fc4786f5a0205c0,2021-09-27_11h53.42.372,forced_choiceRT_color,2021.2.3,Win32,59.75500448,,,,,,,,7,Slow,short,j,1,2.2431,3,0,12,2,1,,,,,
,0.35,,,,,,,,,j,red,5e0fe5cc2fc4786f5a0205c0,2021-09-27_11h53.42.372,forced_choiceRT_color,2021.2.3,Win32,59.75500448,,,,,,,,7,Ontime,short,j,1,1.9001,3,1,13,2,1,,,,,
,0.69,,,,,,,,,k,purple,5e0fe5cc2fc4786f5a0205c0,2021-09-27_11h53.42.372,forced_choiceRT_color,2021.2.3,Win32,59.75500448,,,,,,,,7,Ontime,short,k,1,1.9869,3,2,14,3,1,,,,,
,1.47,,,,,,,,,k,purple,5e0fe5cc2fc4786f5a0205c0,2021-09-27_11h53.42.372,forced_choiceRT_color,2021.2.3,Win32,59.75500448,,,,,,,,7,Ontime,short,k,1,1.9785,3,3,15,3,1,,,,,
,1.42,,,,,,,,,d,orange,5e0fe5cc2fc4786f5a0205c0,2021-09-27_11h53.42.372,forced_choiceRT_color,2021.2.3,Win32,59.75500448,,,,,,,,7,Ontime,short,d,1,1.9036,4,0,16,0,1,,,,,
,0.31,,,,,,,,,f,blue,5e0fe5cc2fc4786f5a0205c0,2021-09-27_11h53.42.372,forced_choiceRT_color,2021.2.3,Win32,59.75500448,,,,,,,,7,Ontime,short,f,1,1.9695,4,1,17,1,1,,,,,
,1.51,,,,,,,,,f,blue,5e0fe5cc2fc4786f5a0205c0,2021-09-27_11h53.42.372,forced_choiceRT_color,2021.2.3,Win32,59.75500448,,,,,,,,7,Ontime,short,f,1,1.9434,4,2,18,1,1,,,,,
,1.69,,,,,,,,,f,blue,5e0fe5cc2fc4786f5a0205c0,2021-09-27_11h53.42.372,forced_choiceRT_color,2021.2.3,Win32,59.75500448,,,,,,,,7,Slow,short,f,1,2.1697,4,3,19,1,1,,,,,
,0.5,,,,,,,,,k,purple,5e0fe5cc2fc4786f5a0205c0,2021-09-27_11h53.42.372,forced_choiceRT_color,2021.2.3,Win32,59.75500448,,,,,,,,7,Ontime,short,k,1,1.9617,5,0,20,3,1,,,,,
,0.4,,,,,,,,,f,blue,5e0fe5cc2fc4786f5a0205c0,2021-09-27_11h53.42.372,forced_choiceRT_color,2021.2.3,Win32,59.75500448,,,,,,,,7,Slow,short,f,1,2.1865,5,1,21,1,1,,,,,
,1.23,,,,,,,,,f,blue,5e0fe5cc2fc4786f5a0205c0,2021-09-27_11h53.42.372,forced_choiceRT_color,2021.2.3,Win32,59.75500448,,,,,,,,7,Fast,short,f,1,1.8115,5,2,22,1,1,,,,,
,0.37,,,,,,,,,j,red,5e0fe5cc2fc4786f5a0205c0,2021-09-27_11h53.42.372,forced_choiceRT_color,2021.2.3,Win32,59.75500448,,,,,,,,7,Ontime,short,j,1,2.0865,5,3,23,2,1,,,,,
,0.77,,,,,,,,,j,red,5e0fe5cc2fc4786f5a0205c0,2021-09-27_11h53.42.372,forced_choiceRT_color,2021.2.3,Win32,59.75500448,,,,,,,,7,Slow,short,j,1,2.1571,6,0,24,2,1,,,,,
,0.07,,,,,,,,,f,blue,5e0fe5cc2fc4786f5a0205c0,2021-09-27_11h53.42.372,forced_choiceRT_color,2021.2.3,Win32,59.75500448,,,,,,,,7,Fast,short,f,1,1.7258,6,1,25,1,1,,,,,
,0.5,,,,,,,,,d,orange,5e0fe5cc2fc4786f5a0205c0,2021-09-27_11h53.42.372,forced_choiceRT_color,2021.2.3,Win32,59.75500448,,,,,,,,7,Slow,short,d,1,2.1119,6,2,26,0,1,,,,,
,1.84,,,,,,,,,d,orange,5e0fe5cc2fc4786f5a0205c0,2021-09-27_11h53.42.372,forced_choiceRT_color,2021.2.3,Win32,59.75500448,,,,,,,,7,Slow,short,d,1,2.2332,6,3,27,0,1,,,,,
,0.48,,,,,,,,,f,blue,5e0fe5cc2fc4786f5a0205c0,2021-09-27_11h53.42.372,forced_choiceRT_color,2021.2.3,Win32,59.75500448,,,,,,,,7,Ontime,short,f,1,1.9044,7,0,28,1,1,,,,,
,1.47,,,,,,,,,d,orange,5e0fe5cc2fc4786f5a0205c0,2021-09-27_11h53.42.372,forced_choiceRT_color,2021.2.3,Win32,59.75500448,,,,,,,,7,Slow,short,d,1,2.1152,7,1,29,0,1,,,,,
,1.78,,,,,,,,,d,orange,5e0fe5cc2fc4786f5a0205c0,2021-09-27_11h53.42.372,forced_choiceRT_color,2021.2.3,Win32,59.75500448,,,,,,,,7,Slow,short,d,1,2.189,7,2,30,0,1,,,,,
,1.41,,,,,,,,,f,blue,5e0fe5cc2fc4786f5a0205c0,2021-09-27_11h53.42.372,forced_choiceRT_color,2021.2.3,Win32,59.75500448,,,,,,,,7,Ontime,short,f,1,1.9196,7,3,31,1,1,,,,,
,1.23,,,,,,,,,d,orange,5e0fe5cc2fc4786f5a0205c0,2021-09-27_11h53.42.372,forced_choiceRT_color,2021.2.3,Win32,59.75500448,,,,,,,,7,Fast,short,f,0,1.6879,8,0,32,0,1,,,,,
,1.71,,,,,,,,,k,purple,5e0fe5cc2fc4786f5a0205c0,2021-09-27_11h53.42.372,forced_choiceRT_color,2021.2.3,Win32,59.75500448,,,,,,,,7,Ontime,short,d,0,1.9376,8,1,33,3,1,,,,,
,0.35,,,,,,,,,j,red,5e0fe5cc2fc4786f5a0205c0,2021-09-27_11h53.42.372,forced_choiceRT_color,2021.2.3,Win32,59.75500448,,,,,,,,7,Fast,short,j,1,1.5629,8,2,34,2,1,,,,,
,1.83,,,,,,,,,d,orange,5e0fe5cc2fc4786f5a0205c0,2021-09-27_11h53.42.372,forced_choiceRT_color,2021.2.3,Win32,59.75500448,,,,,,,,7,Slow,short,d,1,2.4218,8,3,35,0,1,,,,,
,0.04,,,,,,,,,k,purple,5e0fe5cc2fc4786f5a0205c0,2021-09-27_11h53.42.372,forced_choiceRT_color,2021.2.3,Win32,59.75500448,,,,,,,,7,Fast,short,k,1,0.6125,9,0,36,3,1,,,,,
,0.23,,,,,,,,,j,red,5e0fe5cc2fc4786f5a0205c0,2021-09-27_11h53.42.372,forced_choiceRT_color,2021.2.3,Win32,59.75500448,,,,,,,,7,Ontime,short,j,1,1.9204,9,1,37,2,1,,,,,
,1.94,,,,,,,,,j,red,5e0fe5cc2fc4786f5a0205c0,2021-09-27_11h53.42.372,forced_choiceRT_color,2021.2.3,Win32,59.75500448,,,,,,,,7,Slow,short,j,1,2.3736,9,2,38,2,1,,,,,
,0.05,,,,,,,,,d,orange,5e0fe5cc2fc4786f5a0205c0,2021-09-27_11h53.42.372,forced_choiceRT_color,2021.2.3,Win32,59.75500448,,,,,,,,7,Ontime,short,d,1,2.0297,9,3,39,0,1,,,,,
,,,,,,,,,,,,5e0fe5cc2fc4786f5a0205c0,2021-09-27_11h53.42.372,forced_choiceRT_color,2021.2.3,Win32,59.75500448,,,,,,,,,,,,,,,,,,,6,0,6,0,1
,1.56,,,,,,,,,d,orange,5e0fe5cc2fc4786f5a0205c0,2021-09-27_11h53.42.372,forced_choiceRT_color,2021.2.3,Win32,59.75500448,,,,,,,,8,Slow,short,d,1,2.1829,0,0,0,0,1,,,,,
,1.74,,,,,,,,,f,blue,5e0fe5cc2fc4786f5a0205c0,2021-09-27_11h53.42.372,forced_choiceRT_color,2021.2.3,Win32,59.75500448,,,,,,,,8,Slow,short,d,0,2.2264,0,1,1,1,1,,,,,
,0.7,,,,,,,,,k,purple,5e0fe5cc2fc4786f5a0205c0,2021-09-27_11h53.42.372,forced_choiceRT_color,2021.2.3,Win32,59.75500448,,,,,,,,8,Fast,short,j,0,1.3747,0,2,2,3,1,,,,,
,1.93,,,,,,,,,j,red,5e0fe5cc2fc4786f5a0205c0,2021-09-27_11h53.42.372,forced_choiceRT_color,2021.2.3,Win32,59.75500448,,,,,,,,8,Slow,short,f,0,2.3589,0,3,3,2,1,,,,,
,1.57,,,,,,,,,k,purple,5e0fe5cc2fc4786f5a0205c0,2021-09-27_11h53.42.372,forced_choiceRT_color,2021.2.3,Win32,59.75500448,,,,,,,,8,Ontime,short,k,1,1.9859,1,0,4,3,1,,,,,
,0.01,,,,,,,,,f,blue,5e0fe5cc2fc4786f5a0205c0,2021-09-27_11h53.42.372,forced_choiceRT_color,2021.2.3,Win32,59.75500448,,,,,,,,8,Ontime,short,f,1,1.9583,1,1,5,1,1,,,,,
,1.7,,,,,,,,,d,orange,5e0fe5cc2fc4786f5a0205c0,2021-09-27_11h53.42.372,forced_choiceRT_color,2021.2.3,Win32,59.75500448,,,,,,,,8,Slow,short,d,1,2.2549,1,2,6,0,1,,,,,
,1.73,,,,,,,,,d,orange,5e0fe5cc2fc4786f5a0205c0,2021-09-27_11h53.42.372,forced_choiceRT_color,2021.2.3,Win32,59.75500448,,,,,,,,8,Slow,short,d,1,2.2203,1,3,7,0,1,,,,,
,0.3,,,,,,,,,k,purple,5e0fe5cc2fc4786f5a0205c0,2021-09-27_11h53.42.372,forced_choiceRT_color,2021.2.3,Win32,59.75500448,,,,,,,,8,Ontime,short,k,1,2.0217,2,0,8,3,1,,,,,
,1.55,,,,,,,,,j,red,5e0fe5cc2fc4786f5a0205c0,2021-09-27_11h53.42.372,forced_choiceRT_color,2021.2.3,Win32,59.75500448,,,,,,,,8,Ontime,short,j,1,2.019,2,1,9,2,1,,,,,
,1.25,,,,,,,,,j,red,5e0fe5cc2fc4786f5a0205c0,2021-09-27_11h53.42.372,forced_choiceRT_color,2021.2.3,Win32,59.75500448,,,,,,,,8,Fast,short,j,1,1.7092,2,2,10,2,1,,,,,
,1.37,,,,,,,,,k,purple,5e0fe5cc2fc4786f5a0205c0,2021-09-27_11h53.42.372,forced_choiceRT_color,2021.2.3,Win32,59.75500448,,,,,,,,8,Slow,short,k,1,2.1941,2,3,11,3,1,,,,,
,1.61,,,,,,,,,k,purple,5e0fe5cc2fc4786f5a0205c0,2021-09-27_11h53.42.372,forced_choiceRT_color,2021.2.3,Win32,59.75500448,,,,,,,,8,Slow,short,k,1,2.1212,3,0,12,3,1,,,,,
,1.14,,,,,,,,,f,blue,5e0fe5cc2fc4786f5a0205c0,2021-09-27_11h53.42.372,forced_choiceRT_color,2021.2.3,Win32,59.75500448,,,,,,,,8,Slow,short,f,1,2.1003,3,1,13,1,1,,,,,
,1.48,,,,,,,,,d,orange,5e0fe5cc2fc4786f5a0205c0,2021-09-27_11h53.42.372,forced_choiceRT_color,2021.2.3,Win32,59.75500448,,,,,,,,8,Ontime,short,d,1,1.9858,3,2,14,0,1,,,,,
,1.04,,,,,,,,,j,red,5e0fe5cc2fc4786f5a0205c0,2021-09-27_11h53.42.372,forced_choiceRT_color,2021.2.3,Win32,59.75500448,,,,,,,,8,Slow,short,j,1,2.2929,3,3,15,2,1,,,,,
,1.62,,,,,,,,,d,orange,5e0fe5cc2fc4786f5a0205c0,2021-09-27_11h53.42.372,forced_choiceRT_color,2021.2.3,Win32,59.75500448,,,,,,,,8,Slow,short,d,1,2.1067,4,0,16,0,1,,,,,
,0.97,,,,,,,,,d,orange,5e0fe5cc2fc4786f5a0205c0,2021-09-27_11h53.42.372,forced_choiceRT_color,2021.2.3,Win32,59.75500448,,,,,,,,8,Fast,short,d,1,1.4553,4,1,17,0,1,,,,,
,1.85,,,,,,,,,d,orange,5e0fe5cc2fc4786f5a0205c0,2021-09-27_11h53.42.372,forced_choiceRT_color,2021.2.3,Win32,59.75500448,,,,,,,,8,Slow,short,d,1,2.3402,4,2,18,0,1,,,,,
,0.02,,,,,,,,,f,blue,5e0fe5cc2fc4786f5a0205c0,2021-09-27_11h53.42.372,forced_choiceRT_color,2021.2.3,Win32,59.75500448,,,,,,,,8,Fast,short,f,1,1.6069,4,3,19,1,1,,,,,
,1.06,,,,,,,,,d,orange,5e0fe5cc2fc4786f5a0205c0,2021-09-27_11h53.42.372,forced_choiceRT_color,2021.2.3,Win32,59.75500448,,,,,,,,8,Fast,short,d,1,1.8367,5,0,20,0,1,,,,,
,0.92,,,,,,,,,j,red,5e0fe5cc2fc4786f5a0205c0,2021-09-27_11h53.42.372,forced_choiceRT_color,2021.2.3,Win32,59.75500448,,,,,,,,8,Fast,short,j,1,1.6863,5,1,21,2,1,,,,,
,0.3,,,,,,,,,f,blue,5e0fe5cc2fc4786f5a0205c0,2021-09-27_11h53.42.372,forced_choiceRT_color,2021.2.3,Win32,59.75500448,,,,,,,,8,Ontime,short,f,1,2.0196,5,2,22,1,1,,,,,
,0.71,,,,,,,,,k,purple,5e0fe5cc2fc4786f5a0205c0,2021-09-27_11h53.42.372,forced_choiceRT_color,2021.2.3,Win32,59.75500448,,,,,,,,8,Ontime,short,k,1,2.0066,5,3,23,3,1,,,,,
,0.35,,,,,,,,,j,red,5e0fe5cc2fc4786f5a0205c0,2021-09-27_11h53.42.372,forced_choiceRT_color,2021.2.3,Win32,59.75500448,,,,,,,,8,Ontime,short,j,1,1.9532,6,0,24,2,1,,,,,
,0.55,,,,,,,,,f,blue,5e0fe5cc2fc4786f5a0205c0,2021-09-27_11h53.42.372,forced_choiceRT_color,2021.2.3,Win32,59.75500448,,,,,,,,8,Ontime,short,f,1,1.9404,6,1,25,1,1,,,,,
,1.85,,,,,,,,,d,orange,5e0fe5cc2fc4786f5a0205c0,2021-09-27_11h53.42.372,forced_choiceRT_color,2021.2.3,Win32,59.75500448,,,,,,,,8,Slow,short,f,0,2.1871,6,2,26,0,1,,,,,
,1.88,,,,,,,,,f,blue,5e0fe5cc2fc4786f5a0205c0,2021-09-27_11h53.42.372,forced_choiceRT_color,2021.2.3,Win32,59.75500448,,,,,,,,8,Slow,short,f,1,2.397,6,3,27,1,1,,,,,
,1.1,,,,,,,,,d,orange,5e0fe5cc2fc4786f5a0205c0,2021-09-27_11h53.42.372,forced_choiceRT_color,2021.2.3,Win32,59.75500448,,,,,,,,8,Ontime,short,j,0,2.0605,7,0,28,0,1,,,,,
,0.25,,,,,,,,,j,red,5e0fe5cc2fc4786f5a0205c0,2021-09-27_11h53.42.372,forced_choiceRT_color,2021.2.3,Win32,59.75500448,,,,,,,,8,Ontime,short,j,1,2.0192,7,1,29,2,1,,,,,
,0.1,,,,,,,,,j,red,5e0fe5cc2fc4786f5a0205c0,2021-09-27_11h53.42.372,forced_choiceRT_color,2021.2.3,Win32,59.75500448,,,,,,,,8,Slow,short,j,1,2.1033,7,2,30,2,1,,,,,
,1.15,,,,,,,,,k,purple,5e0fe5cc2fc4786f5a0205c0,2021-09-27_11h53.42.372,forced_choiceRT_color,2021.2.3,Win32,59.75500448,,,,,,,,8,Fast,short,d,0,1.7198,7,3,31,3,1,,,,,
,0.61,,,,,,,,,f,blue,5e0fe5cc2fc4786f5a0205c0,2021-09-27_11h53.42.372,forced_choiceRT_color,2021.2.3,Win32,59.75500448,,,,,,,,8,Ontime,short,f,1,2.0865,8,0,32,1,1,,,,,
,0.75,,,,,,,,,f,blue,5e0fe5cc2fc4786f5a0205c0,2021-09-27_11h53.42.372,forced_choiceRT_color,2021.2.3,Win32,59.75500448,,,,,,,,8,Slow,short,f,1,2.1553,8,1,33,1,1,,,,,
,1.13,,,,,,,,,k,purple,5e0fe5cc2fc4786f5a0205c0,2021-09-27_11h53.42.372,forced_choiceRT_color,2021.2.3,Win32,59.75500448,,,,,,,,8,Fast,short,k,1,1.7434,8,2,34,3,1,,,,,
,0.45,,,,,,,,,k,purple,5e0fe5cc2fc4786f5a0205c0,2021-09-27_11h53.42.372,forced_choiceRT_color,2021.2.3,Win32,59.75500448,,,,,,,,8,Ontime,short,k,1,1.971,8,3,35,3,1,,,,,
,0.36,,,,,,,,,k,purple,5e0fe5cc2fc4786f5a0205c0,2021-09-27_11h53.42.372,forced_choiceRT_color,2021.2.3,Win32,59.75500448,,,,,,,,8,Ontime,short,k,1,1.9856,9,0,36,3,1,,,,,
,0.41,,,,,,,,,j,red,5e0fe5cc2fc4786f5a0205c0,2021-09-27_11h53.42.372,forced_choiceRT_color,2021.2.3,Win32,59.75500448,,,,,,,,8,Ontime,short,j,1,1.9522,9,1,37,2,1,,,,,
,0.94,,,,,,,,,j,red,5e0fe5cc2fc4786f5a0205c0,2021-09-27_11h53.42.372,forced_choiceRT_color,2021.2.3,Win32,59.75500448,,,,,,,,8,Fast,short,j,1,1.8789,9,2,38,2,1,,,,,
,1.18,,,,,,,,,f,blue,5e0fe5cc2fc4786f5a0205c0,2021-09-27_11h53.42.372,forced_choiceRT_color,2021.2.3,Win32,59.75500448,,,,,,,,8,Fast,short,f,1,1.5888,9,3,39,1,1,,,,,
,,,,,,,,,,,,5e0fe5cc2fc4786f5a0205c0,2021-09-27_11h53.42.372,forced_choiceRT_color,2021.2.3,Win32,59.75500448,,,,,,,,,,,,,,,,,,,7,0,7,0,1
,0.7,,,,,,,,,k,purple,5e0fe5cc2fc4786f5a0205c0,2021-09-27_11h53.42.372,forced_choiceRT_color,2021.2.3,Win32,59.75500448,,,,,,,,9,Slow,short,j,0,4.0374,0,0,0,3,1,,,,,
,1.52,,,,,,,,,f,blue,5e0fe5cc2fc4786f5a0205c0,2021-09-27_11h53.42.372,forced_choiceRT_color,2021.2.3,Win32,59.75500448,,,,,,,,9,Ontime,short,d,0,2.063,0,1,1,1,1,,,,,
,1.9,,,,,,,,,j,red,5e0fe5cc2fc4786f5a0205c0,2021-09-27_11h53.42.372,forced_choiceRT_color,2021.2.3,Win32,59.75500448,,,,,,,,9,Fast,short,f,0,0.1006,0,2,2,2,1,,,,,
,0.28,,,,,,,,,j,red,5e0fe5cc2fc4786f5a0205c0,2021-09-27_11h53.42.372,forced_choiceRT_color,2021.2.3,Win32,59.75500448,,,,,,,,9,Fast,short,j,1,1.8933,0,3,3,2,1,,,,,
,1.3,,,,,,,,,d,orange,5e0fe5cc2fc4786f5a0205c0,2021-09-27_11h53.42.372,forced_choiceRT_color,2021.2.3,Win32,59.75500448,,,,,,,,9,Ontime,short,f,0,2.0743,1,0,4,0,1,,,,,
,1.87,,,,,,,,,k,purple,5e0fe5cc2fc4786f5a0205c0,2021-09-27_11h53.42.372,forced_choiceRT_color,2021.2.3,Win32,59.75500448,,,,,,,,9,Slow,short,k,1,2.6357,1,1,5,3,1,,,,,
,1.71,,,,,,,,,k,purple,5e0fe5cc2fc4786f5a0205c0,2021-09-27_11h53.42.372,forced_choiceRT_color,2021.2.3,Win32,59.75500448,,,,,,,,9,Slow,short,k,1,2.1388,1,2,6,3,1,,,,,
,0.21,,,,,,,,,d,orange,5e0fe5cc2fc4786f5a0205c0,2021-09-27_11h53.42.372,forced_choiceRT_color,2021.2.3,Win32,59.75500448,,,,,,,,9,Ontime,short,d,1,2.0302,1,3,7,0,1,,,,,
,0.03,,,,,,,,,d,orange,5e0fe5cc2fc4786f5a0205c0,2021-09-27_11h53.42.372,forced_choiceRT_color,2021.2.3,Win32,59.75500448,,,,,,,,9,Slow,short,d,1,2.1361,2,0,8,0,1,,,,,
,1.4,,,,,,,,,d,orange,5e0fe5cc2fc4786f5a0205c0,2021-09-27_11h53.42.372,forced_choiceRT_color,2021.2.3,Win32,59.75500448,,,,,,,,9,Fast,short,d,1,1.8124,2,1,9,0,1,,,,,
,0.24,,,,,,,,,f,blue,5e0fe5cc2fc4786f5a0205c0,2021-09-27_11h53.42.372,forced_choiceRT_color,2021.2.3,Win32,59.75500448,,,,,,,,9,Fast,short,f,1,1.7873,2,2,10,1,1,,,,,
,1.94,,,,,,,,,j,red,5e0fe5cc2fc4786f5a0205c0,2021-09-27_11h53.42.372,forced_choiceRT_color,2021.2.3,Win32,59.75500448,,,,,,,,9,Slow,short,d,0,2.2699,2,3,11,2,1,,,,,
,0.09,,,,,,,,,f,blue,5e0fe5cc2fc4786f5a0205c0,2021-09-27_11h53.42.372,forced_choiceRT_color,2021.2.3,Win32,59.75500448,,,,,,,,9,Ontime,short,f,1,2.0963,3,0,12,1,1,,,,,
,0.02,,,,,,,,,j,red,5e0fe5cc2fc4786f5a0205c0,2021-09-27_11h53.42.372,forced_choiceRT_color,2021.2.3,Win32,59.75500448,,,,,,,,9,Ontime,short,j,1,2.0411,3,1,13,2,1,,,,,
,1.53,,,,,,,,,k,purple,5e0fe5cc2fc4786f5a0205c0,2021-09-27_11h53.42.372,forced_choiceRT_color,2021.2.3,Win32,59.75500448,,,,,,,,9,Ontime,short,k,1,2.0535,3,2,14,3,1,,,,,
,1.17,,,,,,,,,k,purple,5e0fe5cc2fc4786f5a0205c0,2021-09-27_11h53.42.372,forced_choiceRT_color,2021.2.3,Win32,59.75500448,,,,,,,,9,Ontime,short,k,1,2.053,3,3,15,3,1,,,,,
,0.77,,,,,,,,,f,blue,5e0fe5cc2fc4786f5a0205c0,2021-09-27_11h53.42.372,forced_choiceRT_color,2021.2.3,Win32,59.75500448,,,,,,,,9,Slow,short,f,1,2.1563,4,0,16,1,1,,,,,
,1.76,,,,,,,,,d,orange,5e0fe5cc2fc4786f5a0205c0,2021-09-27_11h53.42.372,forced_choiceRT_color,2021.2.3,Win32,59.75500448,,,,,,,,9,Slow,short,j,0,2.3424,4,1,17,0,1,,,,,
,1.79,,,,,,,,,d,orange,5e0fe5cc2fc4786f5a0205c0,2021-09-27_11h53.42.372,forced_choiceRT_color,2021.2.3,Win32,59.75500448,,,,,,,,9,Slow,short,d,1,2.232,4,2,18,0,1,,,,,
,0.1,,,,,,,,,j,red,5e0fe5cc2fc4786f5a0205c0,2021-09-27_11h53.42.372,forced_choiceRT_color,2021.2.3,Win32,59.75500448,,,,,,,,9,Fast,short,j,1,1.0057,4,3,19,2,1,,,,,
,1.02,,,,,,,,,d,orange,5e0fe5cc2fc4786f5a0205c0,2021-09-27_11h53.42.372,forced_choiceRT_color,2021.2.3,Win32,59.75500448,,,,,,,,9,Slow,short,d,1,2.1203,5,0,20,0,1,,,,,
,0.31,,,,,,,,,k,purple,5e0fe5cc2fc4786f5a0205c0,2021-09-27_11h53.42.372,forced_choiceRT_color,2021.2.3,Win32,59.75500448,,,,,,,,9,Ontime,short,k,1,2.0035,5,1,21,3,1,,,,,
,1.64,,,,,,,,,d,orange,5e0fe5cc2fc4786f5a0205c0,2021-09-27_11h53.42.372,forced_choiceRT_color,2021.2.3,Win32,59.75500448,,,,,,,,9,Slow,short,d,1,2.3422,5,2,22,0,1,,,,,
,0.23,,,,,,,,,j,red,5e0fe5cc2fc4786f5a0205c0,2021-09-27_11h53.42.372,forced_choiceRT_color,2021.2.3,Win32,59.75500448,,,,,,,,9,Slow,short,j,1,2.1126,5,3,23,2,1,,,,,
,0.91,,,,,,,,,k,purple,5e0fe5cc2fc4786f5a0205c0,2021-09-27_11h53.42.372,forced_choiceRT_color,2021.2.3,Win32,59.75500448,,,,,,,,9,Slow,short,k,1,2.1036,6,0,24,3,1,,,,,
,1.98,,,,,,,,,k,purple,5e0fe5cc2fc4786f5a0205c0,2021-09-27_11h53.42.372,forced_choiceRT_color,2021.2.3,Win32,59.75500448,,,,,,,,9,Slow,short,k,1,2.3772,6,1,25,3,1,,,,,
,1.47,,,,,,,,,f,blue,5e0fe5cc2fc4786f5a0205c0,2021-09-27_11h53.42.372,forced_choiceRT_color,2021.2.3,Win32,59.75500448,,,,,,,,9,Ontime,short,f,1,2.0129,6,2,26,1,1,,,,,
,0.84,,,,,,,,,k,purple,5e0fe5cc2fc4786f5a0205c0,2021-09-27_11h53.42.372,forced_choiceRT_color,2021.2.3,Win32,59.75500448,,,,,,,,9,Slow,short,k,1,2.205,6,3,27,3,1,,,,,
,0.81,,,,,,,,,f,blue,5e0fe5cc2fc4786f5a0205c0,2021-09-27_11h53.42.372,forced_choiceRT_color,2021.2.3,Win32,59.75500448,,,,,,,,9,Ontime,short,f,1,1.9733,7,0,28,1,1,,,,,
,1.43,,,,,,,,,d,orange,5e0fe5cc2fc4786f5a0205c0,2021-09-27_11h53.42.372,forced_choiceRT_color,2021.2.3,Win32,59.75500448,,,,,,,,9,Ontime,short,d,1,2.0355,7,1,29,0,1,,,,,
,1.72,,,,,,,,,f,blue,5e0fe5cc2fc4786f5a0205c0,2021-09-27_11h53.42.372,forced_choiceRT_color,2021.2.3,Win32,59.75500448,,,,,,,,9,Slow,short,f,1,2.1694,7,2,30,1,1,,,,,
,0.96,,,,,,,,,f,blue,5e0fe5cc2fc4786f5a0205c0,2021-09-27_11h53.42.372,forced_choiceRT_color,2021.2.3,Win32,59.75500448,,,,,,,,9,Ontime,short,f,1,2.0805,7,3,31,1,1,,,,,
,0.47,,,,,,,,,f,blue,5e0fe5cc2fc4786f5a0205c0,2021-09-27_11h53.42.372,forced_choiceRT_color,2021.2.3,Win32,59.75500448,,,,,,,,9,Slow,short,f,1,2.1708,8,0,32,1,1,,,,,
,1.46,,,,,,,,,k,purple,5e0fe5cc2fc4786f5a0205c0,2021-09-27_11h53.42.372,forced_choiceRT_color,2021.2.3,Win32,59.75500448,,,,,,,,9,Ontime,short,k,1,2.0127,8,1,33,3,1,,,,,
,0.28,,,,,,,,,j,red,5e0fe5cc2fc4786f5a0205c0,2021-09-27_11h53.42.372,forced_choiceRT_color,2021.2.3,Win32,59.75500448,,,,,,,,9,Fast,short,j,1,1.8394,8,2,34,2,1,,,,,
,1.69,,,,,,,,,f,blue,5e0fe5cc2fc4786f5a0205c0,2021-09-27_11h53.42.372,forced_choiceRT_color,2021.2.3,Win32,59.75500448,,,,,,,,9,Slow,short,d,0,2.2234,8,3,35,1,1,,,,,
,0.36,,,,,,,,,j,red,5e0fe5cc2fc4786f5a0205c0,2021-09-27_11h53.42.372,forced_choiceRT_color,2021.2.3,Win32,59.75500448,,,,,,,,9,Fast,short,j,1,1.5523,9,0,36,2,1,,,,,
,1.28,,,,,,,,,j,red,5e0fe5cc2fc4786f5a0205c0,2021-09-27_11h53.42.372,forced_choiceRT_color,2021.2.3,Win32,59.75500448,,,,,,,,9,Ontime,short,j,1,1.9294,9,1,37,2,1,,,,,
,1.16,,,,,,,,,j,red,5e0fe5cc2fc4786f5a0205c0,2021-09-27_11h53.42.372,forced_choiceRT_color,2021.2.3,Win32,59.75500448,,,,,,,,9,Ontime,short,j,1,2.0718,9,2,38,2,1,,,,,
,0.86,,,,,,,,,d,orange,5e0fe5cc2fc4786f5a0205c0,2021-09-27_11h53.42.372,forced_choiceRT_color,2021.2.3,Win32,59.75500448,,,,,,,,9,Ontime,short,d,1,1.9952,9,3,39,0,1,,,,,
,,,,,,,,,,,,5e0fe5cc2fc4786f5a0205c0,2021-09-27_11h53.42.372,forced_choiceRT_color,2021.2.3,Win32,59.75500448,,,,,,,,,,,,,,,,,,,8,0,8,0,1
,1.8,,,,,,,,,d,orange,5e0fe5cc2fc4786f5a0205c0,2021-09-27_11h53.42.372,forced_choiceRT_color,2021.2.3,Win32,59.75500448,,,,,,,,10,Slow,short,k,0,2.127,0,0,0,0,1,,,,,
,0.58,,,,,,,,,j,red,5e0fe5cc2fc4786f5a0205c0,2021-09-27_11h53.42.372,forced_choiceRT_color,2021.2.3,Win32,59.75500448,,,,,,,,10,Ontime,short,j,1,2.0865,0,1,1,2,1,,,,,
,1,,,,,,,,,f,blue,5e0fe5cc2fc4786f5a0205c0,2021-09-27_11h53.42.372,forced_choiceRT_color,2021.2.3,Win32,59.75500448,,,,,,,,10,Ontime,short,f,1,2.02,0,2,2,1,1,,,,,
,0.41,,,,,,,,,d,orange,5e0fe5cc2fc4786f5a0205c0,2021-09-27_11h53.42.372,forced_choiceRT_color,2021.2.3,Win32,59.75500448,,,,,,,,10,Ontime,short,d,1,2.0039,0,3,3,0,1,,,,,
,1.1,,,,,,,,,j,red,5e0fe5cc2fc4786f5a0205c0,2021-09-27_11h53.42.372,forced_choiceRT_color,2021.2.3,Win32,59.75500448,,,,,,,,10,Fast,short,j,1,1.7362,1,0,4,2,1,,,,,
,1.64,,,,,,,,,k,purple,5e0fe5cc2fc4786f5a0205c0,2021-09-27_11h53.42.372,forced_choiceRT_color,2021.2.3,Win32,59.75500448,,,,,,,,10,Slow,short,k,1,2.1713,1,1,5,3,1,,,,,
,0.61,,,,,,,,,f,blue,5e0fe5cc2fc4786f5a0205c0,2021-09-27_11h53.42.372,forced_choiceRT_color,2021.2.3,Win32,59.75500448,,,,,,,,10,Fast,short,f,1,1.5442,1,2,6,1,1,,,,,
,1.67,,,,,,,,,f,blue,5e0fe5cc2fc4786f5a0205c0,2021-09-27_11h53.42.372,forced_choiceRT_color,2021.2.3,Win32,59.75500448,,,,,,,,10,Slow,short,k,0,2.2132,1,3,7,1,1,,,,,
,1.99,,,,,,,,,j,red,5e0fe5cc2fc4786f5a0205c0,2021-09-27_11h53.42.372,forced_choiceRT_color,2021.2.3,Win32,59.75500448,,,,,,,,10,Fast,short,j,1,1.7023,2,0,8,2,1,,,,,
,1.7,,,,,,,,,j,red,5e0fe5cc2fc4786f5a0205c0,2021-09-27_11h53.42.372,forced_choiceRT_color,2021.2.3,Win32,59.75500448,,,,,,,,10,Fast,short,j,1,1.8974,2,1,9,2,1,,,,,
,0.62,,,,,,,,,k,purple,5e0fe5cc2fc4786f5a0205c0,2021-09-27_11h53.42.372,forced_choiceRT_color,2021.2.3,Win32,59.75500448,,,,,,,,10,Ontime,short,j,0,1.9418,2,2,10,3,1,,,,,
,1.73,,,,,,,,,k,purple,5e0fe5cc2fc4786f5a0205c0,2021-09-27_11h53.42.372,forced_choiceRT_color,2021.2.3,Win32,59.75500448,,,,,,,,10,Ontime,short,j,0,1.9703,2,3,11,3,1,,,,,
,1.45,,,,,,,,,f,blue,5e0fe5cc2fc4786f5a0205c0,2021-09-27_11h53.42.372,forced_choiceRT_color,2021.2.3,Win32,59.75500448,,,,,,,,10,Fast,short,j,0,1.8542,3,0,12,1,1,,,,,
,0.83,,,,,,,,,f,blue,5e0fe5cc2fc4786f5a0205c0,2021-09-27_11h53.42.372,forced_choiceRT_color,2021.2.3,Win32,59.75500448,,,,,,,,10,Fast,short,j,0,1.7659,3,1,13,1,1,,,,,
,0.06,,,,,,,,,j,red,5e0fe5cc2fc4786f5a0205c0,2021-09-27_11h53.42.372,forced_choiceRT_color,2021.2.3,Win32,59.75500448,,,,,,,,10,Ontime,short,j,1,2.0199,3,2,14,2,1,,,,,
,1.03,,,,,,,,,d,orange,5e0fe5cc2fc4786f5a0205c0,2021-09-27_11h53.42.372,forced_choiceRT_color,2021.2.3,Win32,59.75500448,,,,,,,,10,Ontime,short,j,0,2.0757,3,3,15,0,1,,,,,
,0.48,,,,,,,,,d,orange,5e0fe5cc2fc4786f5a0205c0,2021-09-27_11h53.42.372,forced_choiceRT_color,2021.2.3,Win32,59.75500448,,,,,,,,10,Ontime,short,j,0,2.0231,4,0,16,0,1,,,,,
,0.12,,,,,,,,,k,purple,5e0fe5cc2fc4786f5a0205c0,2021-09-27_11h53.42.372,forced_choiceRT_color,2021.2.3,Win32,59.75500448,,,,,,,,10,Fast,short,j,0,1.8864,4,1,17,3,1,,,,,
,0.31,,,,,,,,,k,purple,5e0fe5cc2fc4786f5a0205c0,2021-09-27_11h53.42.372,forced_choiceRT_color,2021.2.3,Win32,59.75500448,,,,,,,,10,Ontime,short,k,1,1.9448,4,2,18,3,1,,,,,
,0.54,,,,,,,,,f,blue,5e0fe5cc2fc4786f5a0205c0,2021-09-27_11h53.42.372,forced_choiceRT_color,2021.2.3,Win32,59.75500448,,,,,,,,10,Ontime,short,f,1,2.002,4,3,19,1,1,,,,,
,1.43,,,,,,,,,d,orange,5e0fe5cc2fc4786f5a0205c0,2021-09-27_11h53.42.372,forced_choiceRT_color,2021.2.3,Win32,59.75500448,,,,,,,,10,Ontime,short,d,1,1.9867,5,0,20,0,1,,,,,
,0.4,,,,,,,,,d,orange,5e0fe5cc2fc4786f5a0205c0,2021-09-27_11h53.42.372,forced_choiceRT_color,2021.2.3,Win32,59.75500448,,,,,,,,10,Fast,short,d,1,1.8597,5,1,21,0,1,,,,,
,1.73,,,,,,,,,k,purple,5e0fe5cc2fc4786f5a0205c0,2021-09-27_11h53.42.372,forced_choiceRT_color,2021.2.3,Win32,59.75500448,,,,,,,,10,Fast,short,k,1,1.6103,5,2,22,3,1,,,,,
,0.09,,,,,,,,,f,blue,5e0fe5cc2fc4786f5a0205c0,2021-09-27_11h53.42.372,forced_choiceRT_color,2021.2.3,Win32,59.75500448,,,,,,,,10,Fast,short,f,1,1.636,5,3,23,1,1,,,,,
,1.02,,,,,,,,,j,red,5e0fe5cc2fc4786f5a0205c0,2021-09-27_11h53.42.372,forced_choiceRT_color,2021.2.3,Win32,59.75500448,,,,,,,,10,Ontime,short,j,1,2.0088,6,0,24,2,1,,,,,
,0.5,,,,,,,,,k,purple,5e0fe5cc2fc4786f5a0205c0,2021-09-27_11h53.42.372,forced_choiceRT_color,2021.2.3,Win32,59.75500448,,,,,,,,10,Slow,short,k,1,2.1182,6,1,25,3,1,,,,,
,0.25,,,,,,,,,f,blue,5e0fe5cc2fc4786f5a0205c0,2021-09-27_11h53.42.372,forced_choiceRT_color,2021.2.3,Win32,59.75500448,,,,,,,,10,Fast,short,f,1,1.6168,6,2,26,1,1,,,,,
,1.05,,,,,,,,,k,purple,5e0fe5cc2fc4786f5a0205c0,2021-09-27_11h53.42.372,forced_choiceRT_color,2021.2.3,Win32,59.75500448,,,,,,,,10,Fast,short,k,1,1.5919,6,3,27,3,1,,,,,
,0.48,,,,,,,,,k,purple,5e0fe5cc2fc4786f5a0205c0,2021-09-27_11h53.42.372,forced_choiceRT_color,2021.2.3,Win32,59.75500448,,,,,,,,10,Ontime,short,k,1,2.053,7,0,28,3,1,,,,,
,1.42,,,,,,,,,d,orange,5e0fe5cc2fc4786f5a0205c0,2021-09-27_11h53.42.372,forced_choiceRT_color,2021.2.3,Win32,59.75500448,,,,,,,,10,Slow,short,d,1,2.1068,7,1,29,0,1,,,,,
,0.64,,,,,,,,,d,orange,5e0fe5cc2fc4786f5a0205c0,2021-09-27_11h53.42.372,forced_choiceRT_color,2021.2.3,Win32,59.75500448,,,,,,,,10,Ontime,short,d,1,1.9533,7,2,30,0,1,,,,,
,1.04,,,,,,,,,j,red,5e0fe5cc2fc4786f5a0205c0,2021-09-27_11h53.42.372,forced_choiceRT_color,2021.2.3,Win32,59.75500448,,,,,,,,10,Fast,short,j,1,1.7509,7,3,31,2,1,,,,,
,1.99,,,,,,,,,j,red,5e0fe5cc2fc4786f5a0205c0,2021-09-27_11h53.42.372,forced_choiceRT_color,2021.2.3,Win32,59.75500448,,,,,,,,10,Slow,short,j,1,2.5612,8,0,32,2,1,,,,,
,1.15,,,,,,,,,f,blue,5e0fe5cc2fc4786f5a0205c0,2021-09-27_11h53.42.372,forced_choiceRT_color,2021.2.3,Win32,59.75500448,,,,,,,,10,Slow,short,f,1,2.1295,8,1,33,1,1,,,,,
,1.52,,,,,,,,,j,red,5e0fe5cc2fc4786f5a0205c0,2021-09-27_11h53.42.372,forced_choiceRT_color,2021.2.3,Win32,59.75500448,,,,,,,,10,Ontime,short,j,1,2.0535,8,2,34,2,1,,,,,
,1.13,,,,,,,,,d,orange,5e0fe5cc2fc4786f5a0205c0,2021-09-27_11h53.42.372,forced_choiceRT_color,2021.2.3,Win32,59.75500448,,,,,,,,10,Ontime,short,f,0,1.9849,8,3,35,0,1,,,,,
,0.37,,,,,,,,,j,red,5e0fe5cc2fc4786f5a0205c0,2021-09-27_11h53.42.372,forced_choiceRT_color,2021.2.3,Win32,59.75500448,,,,,,,,10,Fast,short,j,1,1.8943,9,0,36,2,1,,,,,
,1.86,,,,,,,,,f,blue,5e0fe5cc2fc4786f5a0205c0,2021-09-27_11h53.42.372,forced_choiceRT_color,2021.2.3,Win32,59.75500448,,,,,,,,10,Slow,short,f,1,2.4596,9,1,37,1,1,,,,,
,1.43,,,,,,,,,k,purple,5e0fe5cc2fc4786f5a0205c0,2021-09-27_11h53.42.372,forced_choiceRT_color,2021.2.3,Win32,59.75500448,,,,,,,,10,Slow,short,d,0,2.3119,9,2,38,3,1,,,,,
,0.33,,,,,,,,,d,orange,5e0fe5cc2fc4786f5a0205c0,2021-09-27_11h53.42.372,forced_choiceRT_color,2021.2.3,Win32,59.75500448,,,,,,,,10,Fast,short,f,0,1.6022,9,3,39,0,1,,,,,
,,,,,,,,,,,,5e0fe5cc2fc4786f5a0205c0,2021-09-27_11h53.42.372,forced_choiceRT_color,2021.2.3,Win32,59.75500448,,,,,,,,,,,,,,,,,,,9,0,9,0,1
