IP_Addresss,target_onset,trial_resp_sp.keys,trial_resp_sp.corr,trial_resp_sp.rt,trials_train_loop.thisRepN,trials_train_loop.thisTrialN,trials_train_loop.thisN,trials_train_loop.thisIndex,trials_train_loop.ran,correct_key,color,participant,date,expName,psychopyVersion,OS,frameRate,trial_resp_timing.keys,trial_resp_timing.rt,trials_train_timing.thisRepN,trials_train_timing.thisTrialN,trials_train_timing.thisN,trials_train_timing.thisIndex,trials_train_timing.ran,block_id,ontime,feedback_cond,forcedRT_resp.keys,forcedRT_resp.corr,forcedRT_resp.rt,trials.thisRepN,trials.thisTrialN,trials.thisN,trials.thisIndex,trials.ran,blocks.thisRepN,blocks.thisTrialN,blocks.thisN,blocks.thisIndex,blocks.ran
172.218.244.184,0,j,1,3.2439,0,0,0,2,1,j,red,5ea302aeb39fb424ac3b7e36,2021-09-27_14h31.13.211,forced_choiceRT_color,2021.2.3,MacIntel,60.0024001,,,,,,,,,,,,,,,,,,,,,,,
,0,d,1,0.8516,0,1,1,0,1,d,orange,5ea302aeb39fb424ac3b7e36,2021-09-27_14h31.13.211,forced_choiceRT_color,2021.2.3,MacIntel,60.0024001,,,,,,,,,,,,,,,,,,,,,,,
,0,d,0,0.6042,0,2,2,2,1,j,red,5ea302aeb39fb424ac3b7e36,2021-09-27_14h31.13.211,forced_choiceRT_color,2021.2.3,MacIntel,60.0024001,,,,,,,,,,,,,,,,,,,,,,,
,0,f,0,0.8782,0,3,3,0,1,d,orange,5ea302aeb39fb424ac3b7e36,2021-09-27_14h31.13.211,forced_choiceRT_color,2021.2.3,MacIntel,60.0024001,,,,,,,,,,,,,,,,,,,,,,,
,0,k,1,0.9021,1,0,4,3,1,k,purple,5ea302aeb39fb424ac3b7e36,2021-09-27_14h31.13.211,forced_choiceRT_color,2021.2.3,MacIntel,60.0024001,,,,,,,,,,,,,,,,,,,,,,,
,0,k,0,1.5482,1,1,5,2,1,j,red,5ea302aeb39fb424ac3b7e36,2021-09-27_14h31.13.211,forced_choiceRT_color,2021.2.3,MacIntel,60.0024001,,,,,,,,,,,,,,,,,,,,,,,
,0,j,0,1.5875,1,2,6,1,1,f,blue,5ea302aeb39fb424ac3b7e36,2021-09-27_14h31.13.211,forced_choiceRT_color,2021.2.3,MacIntel,60.0024001,,,,,,,,,,,,,,,,,,,,,,,
,0,f,1,1.5607,1,3,7,1,1,f,blue,5ea302aeb39fb424ac3b7e36,2021-09-27_14h31.13.211,forced_choiceRT_color,2021.2.3,MacIntel,60.0024001,,,,,,,,,,,,,,,,,,,,,,,
,0,j,1,2.2148,2,0,8,2,1,j,red,5ea302aeb39fb424ac3b7e36,2021-09-27_14h31.13.211,forced_choiceRT_color,2021.2.3,MacIntel,60.0024001,,,,,,,,,,,,,,,,,,,,,,,
,0,d,1,0.8789,2,1,9,0,1,d,orange,5ea302aeb39fb424ac3b7e36,2021-09-27_14h31.13.211,forced_choiceRT_color,2021.2.3,MacIntel,60.0024001,,,,,,,,,,,,,,,,,,,,,,,
,0,f,1,1.1311,2,2,10,1,1,f,blue,5ea302aeb39fb424ac3b7e36,2021-09-27_14h31.13.211,forced_choiceRT_color,2021.2.3,MacIntel,60.0024001,,,,,,,,,,,,,,,,,,,,,,,
,0,k,1,2.3356,2,3,11,3,1,k,purple,5ea302aeb39fb424ac3b7e36,2021-09-27_14h31.13.211,forced_choiceRT_color,2021.2.3,MacIntel,60.0024001,,,,,,,,,,,,,,,,,,,,,,,
,0,j,1,1.414,3,0,12,2,1,j,red,5ea302aeb39fb424ac3b7e36,2021-09-27_14h31.13.211,forced_choiceRT_color,2021.2.3,MacIntel,60.0024001,,,,,,,,,,,,,,,,,,,,,,,
,0,d,1,0.7989,3,1,13,0,1,d,orange,5ea302aeb39fb424ac3b7e36,2021-09-27_14h31.13.211,forced_choiceRT_color,2021.2.3,MacIntel,60.0024001,,,,,,,,,,,,,,,,,,,,,,,
,0,k,1,1.015,3,2,14,3,1,k,purple,5ea302aeb39fb424ac3b7e36,2021-09-27_14h31.13.211,forced_choiceRT_color,2021.2.3,MacIntel,60.0024001,,,,,,,,,,,,,,,,,,,,,,,
,0,k,1,1.126,3,3,15,3,1,k,purple,5ea302aeb39fb424ac3b7e36,2021-09-27_14h31.13.211,forced_choiceRT_color,2021.2.3,MacIntel,60.0024001,,,,,,,,,,,,,,,,,,,,,,,
,0,f,1,0.8429,4,0,16,1,1,f,blue,5ea302aeb39fb424ac3b7e36,2021-09-27_14h31.13.211,forced_choiceRT_color,2021.2.3,MacIntel,60.0024001,,,,,,,,,,,,,,,,,,,,,,,
,0,j,1,0.6656,4,1,17,2,1,j,red,5ea302aeb39fb424ac3b7e36,2021-09-27_14h31.13.211,forced_choiceRT_color,2021.2.3,MacIntel,60.0024001,,,,,,,,,,,,,,,,,,,,,,,
,0,d,1,0.8441,4,2,18,0,1,d,orange,5ea302aeb39fb424ac3b7e36,2021-09-27_14h31.13.211,forced_choiceRT_color,2021.2.3,MacIntel,60.0024001,,,,,,,,,,,,,,,,,,,,,,,
,0,k,1,0.7636,4,3,19,3,1,k,purple,5ea302aeb39fb424ac3b7e36,2021-09-27_14h31.13.211,forced_choiceRT_color,2021.2.3,MacIntel,60.0024001,,,,,,,,,,,,,,,,,,,,,,,
,0,f,1,0.7285,5,0,20,1,1,f,blue,5ea302aeb39fb424ac3b7e36,2021-09-27_14h31.13.211,forced_choiceRT_color,2021.2.3,MacIntel,60.0024001,,,,,,,,,,,,,,,,,,,,,,,
,0,j,1,0.5249,5,1,21,2,1,j,red,5ea302aeb39fb424ac3b7e36,2021-09-27_14h31.13.211,forced_choiceRT_color,2021.2.3,MacIntel,60.0024001,,,,,,,,,,,,,,,,,,,,,,,
,0,k,1,0.8411,5,2,22,3,1,k,purple,5ea302aeb39fb424ac3b7e36,2021-09-27_14h31.13.211,forced_choiceRT_color,2021.2.3,MacIntel,60.0024001,,,,,,,,,,,,,,,,,,,,,,,
,0,f,1,0.7908,5,3,23,1,1,f,blue,5ea302aeb39fb424ac3b7e36,2021-09-27_14h31.13.211,forced_choiceRT_color,2021.2.3,MacIntel,60.0024001,,,,,,,,,,,,,,,,,,,,,,,
,0,k,1,0.5574,6,0,24,3,1,k,purple,5ea302aeb39fb424ac3b7e36,2021-09-27_14h31.13.211,forced_choiceRT_color,2021.2.3,MacIntel,60.0024001,,,,,,,,,,,,,,,,,,,,,,,
,0,f,1,0.7944,6,1,25,1,1,f,blue,5ea302aeb39fb424ac3b7e36,2021-09-27_14h31.13.211,forced_choiceRT_color,2021.2.3,MacIntel,60.0024001,,,,,,,,,,,,,,,,,,,,,,,
,0,d,1,0.4835,6,2,26,0,1,d,orange,5ea302aeb39fb424ac3b7e36,2021-09-27_14h31.13.211,forced_choiceRT_color,2021.2.3,MacIntel,60.0024001,,,,,,,,,,,,,,,,,,,,,,,
,0,f,1,0.646,6,3,27,1,1,f,blue,5ea302aeb39fb424ac3b7e36,2021-09-27_14h31.13.211,forced_choiceRT_color,2021.2.3,MacIntel,60.0024001,,,,,,,,,,,,,,,,,,,,,,,
,0,d,1,0.6368,7,0,28,0,1,d,orange,5ea302aeb39fb424ac3b7e36,2021-09-27_14h31.13.211,forced_choiceRT_color,2021.2.3,MacIntel,60.0024001,,,,,,,,,,,,,,,,,,,,,,,
,0,j,1,0.5364,7,1,29,2,1,j,red,5ea302aeb39fb424ac3b7e36,2021-09-27_14h31.13.211,forced_choiceRT_color,2021.2.3,MacIntel,60.0024001,,,,,,,,,,,,,,,,,,,,,,,
,0,j,1,0.6005,7,2,30,2,1,j,red,5ea302aeb39fb424ac3b7e36,2021-09-27_14h31.13.211,forced_choiceRT_color,2021.2.3,MacIntel,60.0024001,,,,,,,,,,,,,,,,,,,,,,,
,0,d,1,0.5112,7,3,31,0,1,d,orange,5ea302aeb39fb424ac3b7e36,2021-09-27_14h31.13.211,forced_choiceRT_color,2021.2.3,MacIntel,60.0024001,,,,,,,,,,,,,,,,,,,,,,,
,0,k,1,0.5515,8,0,32,3,1,k,purple,5ea302aeb39fb424ac3b7e36,2021-09-27_14h31.13.211,forced_choiceRT_color,2021.2.3,MacIntel,60.0024001,,,,,,,,,,,,,,,,,,,,,,,
,0,f,1,0.8536,8,1,33,1,1,f,blue,5ea302aeb39fb424ac3b7e36,2021-09-27_14h31.13.211,forced_choiceRT_color,2021.2.3,MacIntel,60.0024001,,,,,,,,,,,,,,,,,,,,,,,
,0,k,1,0.6167,8,2,34,3,1,k,purple,5ea302aeb39fb424ac3b7e36,2021-09-27_14h31.13.211,forced_choiceRT_color,2021.2.3,MacIntel,60.0024001,,,,,,,,,,,,,,,,,,,,,,,
,0,d,1,0.521,8,3,35,0,1,d,orange,5ea302aeb39fb424ac3b7e36,2021-09-27_14h31.13.211,forced_choiceRT_color,2021.2.3,MacIntel,60.0024001,,,,,,,,,,,,,,,,,,,,,,,
,0,d,1,0.533,9,0,36,0,1,d,orange,5ea302aeb39fb424ac3b7e36,2021-09-27_14h31.13.211,forced_choiceRT_color,2021.2.3,MacIntel,60.0024001,,,,,,,,,,,,,,,,,,,,,,,
,0,d,1,0.5034,9,1,37,0,1,d,orange,5ea302aeb39fb424ac3b7e36,2021-09-27_14h31.13.211,forced_choiceRT_color,2021.2.3,MacIntel,60.0024001,,,,,,,,,,,,,,,,,,,,,,,
,0,k,1,0.527,9,2,38,3,1,k,purple,5ea302aeb39fb424ac3b7e36,2021-09-27_14h31.13.211,forced_choiceRT_color,2021.2.3,MacIntel,60.0024001,,,,,,,,,,,,,,,,,,,,,,,
,0,d,1,0.4066,9,3,39,0,1,d,orange,5ea302aeb39fb424ac3b7e36,2021-09-27_14h31.13.211,forced_choiceRT_color,2021.2.3,MacIntel,60.0024001,,,,,,,,,,,,,,,,,,,,,,,
,0,j,1,0.7521,10,0,40,2,1,j,red,5ea302aeb39fb424ac3b7e36,2021-09-27_14h31.13.211,forced_choiceRT_color,2021.2.3,MacIntel,60.0024001,,,,,,,,,,,,,,,,,,,,,,,
,0,k,1,0.7266,10,1,41,3,1,k,purple,5ea302aeb39fb424ac3b7e36,2021-09-27_14h31.13.211,forced_choiceRT_color,2021.2.3,MacIntel,60.0024001,,,,,,,,,,,,,,,,,,,,,,,
,0,j,1,0.7538,10,2,42,2,1,j,red,5ea302aeb39fb424ac3b7e36,2021-09-27_14h31.13.211,forced_choiceRT_color,2021.2.3,MacIntel,60.0024001,,,,,,,,,,,,,,,,,,,,,,,
,0,f,1,0.6167,10,3,43,1,1,f,blue,5ea302aeb39fb424ac3b7e36,2021-09-27_14h31.13.211,forced_choiceRT_color,2021.2.3,MacIntel,60.0024001,,,,,,,,,,,,,,,,,,,,,,,
,0,k,1,0.5672,11,0,44,3,1,k,purple,5ea302aeb39fb424ac3b7e36,2021-09-27_14h31.13.211,forced_choiceRT_color,2021.2.3,MacIntel,60.0024001,,,,,,,,,,,,,,,,,,,,,,,
,0,k,1,0.8009,11,1,45,3,1,k,purple,5ea302aeb39fb424ac3b7e36,2021-09-27_14h31.13.211,forced_choiceRT_color,2021.2.3,MacIntel,60.0024001,,,,,,,,,,,,,,,,,,,,,,,
,0,f,1,0.7176,11,2,46,1,1,f,blue,5ea302aeb39fb424ac3b7e36,2021-09-27_14h31.13.211,forced_choiceRT_color,2021.2.3,MacIntel,60.0024001,,,,,,,,,,,,,,,,,,,,,,,
,0,d,1,0.533,11,3,47,0,1,d,orange,5ea302aeb39fb424ac3b7e36,2021-09-27_14h31.13.211,forced_choiceRT_color,2021.2.3,MacIntel,60.0024001,,,,,,,,,,,,,,,,,,,,,,,
,0,d,1,0.5017,12,0,48,0,1,d,orange,5ea302aeb39fb424ac3b7e36,2021-09-27_14h31.13.211,forced_choiceRT_color,2021.2.3,MacIntel,60.0024001,,,,,,,,,,,,,,,,,,,,,,,
,0,f,1,0.637,12,1,49,1,1,f,blue,5ea302aeb39fb424ac3b7e36,2021-09-27_14h31.13.211,forced_choiceRT_color,2021.2.3,MacIntel,60.0024001,,,,,,,,,,,,,,,,,,,,,,,
,0,j,1,0.6085,12,2,50,2,1,j,red,5ea302aeb39fb424ac3b7e36,2021-09-27_14h31.13.211,forced_choiceRT_color,2021.2.3,MacIntel,60.0024001,,,,,,,,,,,,,,,,,,,,,,,
,0,d,1,0.5246,12,3,51,0,1,d,orange,5ea302aeb39fb424ac3b7e36,2021-09-27_14h31.13.211,forced_choiceRT_color,2021.2.3,MacIntel,60.0024001,,,,,,,,,,,,,,,,,,,,,,,
,0,k,1,0.5136,13,0,52,3,1,k,purple,5ea302aeb39fb424ac3b7e36,2021-09-27_14h31.13.211,forced_choiceRT_color,2021.2.3,MacIntel,60.0024001,,,,,,,,,,,,,,,,,,,,,,,
,0,j,1,0.6769,13,1,53,2,1,j,red,5ea302aeb39fb424ac3b7e36,2021-09-27_14h31.13.211,forced_choiceRT_color,2021.2.3,MacIntel,60.0024001,,,,,,,,,,,,,,,,,,,,,,,
,0,f,1,0.635,13,2,54,1,1,f,blue,5ea302aeb39fb424ac3b7e36,2021-09-27_14h31.13.211,forced_choiceRT_color,2021.2.3,MacIntel,60.0024001,,,,,,,,,,,,,,,,,,,,,,,
,0,j,1,0.5832,13,3,55,2,1,j,red,5ea302aeb39fb424ac3b7e36,2021-09-27_14h31.13.211,forced_choiceRT_color,2021.2.3,MacIntel,60.0024001,,,,,,,,,,,,,,,,,,,,,,,
,0,j,1,0.7774,14,0,56,2,1,j,red,5ea302aeb39fb424ac3b7e36,2021-09-27_14h31.13.211,forced_choiceRT_color,2021.2.3,MacIntel,60.0024001,,,,,,,,,,,,,,,,,,,,,,,
,0,f,1,0.5885,14,1,57,1,1,f,blue,5ea302aeb39fb424ac3b7e36,2021-09-27_14h31.13.211,forced_choiceRT_color,2021.2.3,MacIntel,60.0024001,,,,,,,,,,,,,,,,,,,,,,,
,0,k,1,0.6057,14,2,58,3,1,k,purple,5ea302aeb39fb424ac3b7e36,2021-09-27_14h31.13.211,forced_choiceRT_color,2021.2.3,MacIntel,60.0024001,,,,,,,,,,,,,,,,,,,,,,,
,0,f,1,0.6522,14,3,59,1,1,f,blue,5ea302aeb39fb424ac3b7e36,2021-09-27_14h31.13.211,forced_choiceRT_color,2021.2.3,MacIntel,60.0024001,,,,,,,,,,,,,,,,,,,,,,,
,,,,,,,,,,,,5ea302aeb39fb424ac3b7e36,2021-09-27_14h31.13.211,forced_choiceRT_color,2021.2.3,MacIntel,60.0024001,j,13.4627,0,0,0,0,1,,,,,,,,,,,,,,,,
,,,,,,,,,,,,5ea302aeb39fb424ac3b7e36,2021-09-27_14h31.13.211,forced_choiceRT_color,2021.2.3,MacIntel,60.0024001,j,2.305,1,0,1,0,1,,,,,,,,,,,,,,,,
,,,,,,,,,,,,5ea302aeb39fb424ac3b7e36,2021-09-27_14h31.13.211,forced_choiceRT_color,2021.2.3,MacIntel,60.0024001,j,1.9527,2,0,2,0,1,,,,,,,,,,,,,,,,
,,,,,,,,,,,,5ea302aeb39fb424ac3b7e36,2021-09-27_14h31.13.211,forced_choiceRT_color,2021.2.3,MacIntel,60.0024001,j,2.0322,3,0,3,0,1,,,,,,,,,,,,,,,,
,,,,,,,,,,,,5ea302aeb39fb424ac3b7e36,2021-09-27_14h31.13.211,forced_choiceRT_color,2021.2.3,MacIntel,60.0024001,j,1.9634,4,0,4,0,1,,,,,,,,,,,,,,,,
,,,,,,,,,,,,5ea302aeb39fb424ac3b7e36,2021-09-27_14h31.13.211,forced_choiceRT_color,2021.2.3,MacIntel,60.0024001,j,2.0186,5,0,5,0,1,,,,,,,,,,,,,,,,
,,,,,,,,,,,,5ea302aeb39fb424ac3b7e36,2021-09-27_14h31.13.211,forced_choiceRT_color,2021.2.3,MacIntel,60.0024001,f,1.9721,6,0,6,0,1,,,,,,,,,,,,,,,,
,,,,,,,,,,,,5ea302aeb39fb424ac3b7e36,2021-09-27_14h31.13.211,forced_choiceRT_color,2021.2.3,MacIntel,60.0024001,f,2.0603,7,0,7,0,1,,,,,,,,,,,,,,,,
,,,,,,,,,,,,5ea302aeb39fb424ac3b7e36,2021-09-27_14h31.13.211,forced_choiceRT_color,2021.2.3,MacIntel,60.0024001,f,2.0378,8,0,8,0,1,,,,,,,,,,,,,,,,
,,,,,,,,,,,,5ea302aeb39fb424ac3b7e36,2021-09-27_14h31.13.211,forced_choiceRT_color,2021.2.3,MacIntel,60.0024001,j,1.9455,9,0,9,0,1,,,,,,,,,,,,,,,,
,,,,,,,,,,,,5ea302aeb39fb424ac3b7e36,2021-09-27_14h31.13.211,forced_choiceRT_color,2021.2.3,MacIntel,60.0024001,j,2.004,10,0,10,0,1,,,,,,,,,,,,,,,,
,,,,,,,,,,,,5ea302aeb39fb424ac3b7e36,2021-09-27_14h31.13.211,forced_choiceRT_color,2021.2.3,MacIntel,60.0024001,f,2.0175,11,0,11,0,1,,,,,,,,,,,,,,,,
,,,,,,,,,,,,5ea302aeb39fb424ac3b7e36,2021-09-27_14h31.13.211,forced_choiceRT_color,2021.2.3,MacIntel,60.0024001,j,2.061,12,0,12,0,1,,,,,,,,,,,,,,,,
,,,,,,,,,,,,5ea302aeb39fb424ac3b7e36,2021-09-27_14h31.13.211,forced_choiceRT_color,2021.2.3,MacIntel,60.0024001,j,1.9887,13,0,13,0,1,,,,,,,,,,,,,,,,
,,,,,,,,,,,,5ea302aeb39fb424ac3b7e36,2021-09-27_14h31.13.211,forced_choiceRT_color,2021.2.3,MacIntel,60.0024001,j,2.0436,14,0,14,0,1,,,,,,,,,,,,,,,,
,,,,,,,,,,,,5ea302aeb39fb424ac3b7e36,2021-09-27_14h31.13.211,forced_choiceRT_color,2021.2.3,MacIntel,60.0024001,f,1.9138,15,0,15,0,1,,,,,,,,,,,,,,,,
,,,,,,,,,,,,5ea302aeb39fb424ac3b7e36,2021-09-27_14h31.13.211,forced_choiceRT_color,2021.2.3,MacIntel,60.0024001,f,2.025,16,0,16,0,1,,,,,,,,,,,,,,,,
,,,,,,,,,,,,5ea302aeb39fb424ac3b7e36,2021-09-27_14h31.13.211,forced_choiceRT_color,2021.2.3,MacIntel,60.0024001,f,1.9955,17,0,17,0,1,,,,,,,,,,,,,,,,
,,,,,,,,,,,,5ea302aeb39fb424ac3b7e36,2021-09-27_14h31.13.211,forced_choiceRT_color,2021.2.3,MacIntel,60.0024001,j,2.0169,18,0,18,0,1,,,,,,,,,,,,,,,,
,,,,,,,,,,,,5ea302aeb39fb424ac3b7e36,2021-09-27_14h31.13.211,forced_choiceRT_color,2021.2.3,MacIntel,60.0024001,j,1.8499,19,0,19,0,1,,,,,,,,,,,,,,,,
,0.35,,,,,,,,,d,orange,5ea302aeb39fb424ac3b7e36,2021-09-27_14h31.13.211,forced_choiceRT_color,2021.2.3,MacIntel,60.0024001,,,,,,,,1,Ontime,short,f,0,1.9762,0,0,0,0,1,,,,,
,1.1,,,,,,,,,d,orange,5ea302aeb39fb424ac3b7e36,2021-09-27_14h31.13.211,forced_choiceRT_color,2021.2.3,MacIntel,60.0024001,,,,,,,,1,Slow,short,f,0,2.1316,0,1,1,0,1,,,,,
,1.79,,,,,,,,,f,blue,5ea302aeb39fb424ac3b7e36,2021-09-27_14h31.13.211,forced_choiceRT_color,2021.2.3,MacIntel,60.0024001,,,,,,,,1,Ontime,short,j,0,2.0447,0,2,2,1,1,,,,,
,0.47,,,,,,,,,j,red,5ea302aeb39fb424ac3b7e36,2021-09-27_14h31.13.211,forced_choiceRT_color,2021.2.3,MacIntel,60.0024001,,,,,,,,1,Ontime,short,j,1,1.9044,0,3,3,2,1,,,,,
,0.47,,,,,,,,,d,orange,5ea302aeb39fb424ac3b7e36,2021-09-27_14h31.13.211,forced_choiceRT_color,2021.2.3,MacIntel,60.0024001,,,,,,,,1,Ontime,short,j,0,2.0195,1,0,4,0,1,,,,,
,1.56,,,,,,,,,f,blue,5ea302aeb39fb424ac3b7e36,2021-09-27_14h31.13.211,forced_choiceRT_color,2021.2.3,MacIntel,60.0024001,,,,,,,,1,Ontime,short,j,0,1.915,1,1,5,1,1,,,,,
,0.08,,,,,,,,,k,purple,5ea302aeb39fb424ac3b7e36,2021-09-27_14h31.13.211,forced_choiceRT_color,2021.2.3,MacIntel,60.0024001,,,,,,,,1,Ontime,short,j,0,2.0779,1,2,6,3,1,,,,,
,1.77,,,,,,,,,f,blue,5ea302aeb39fb424ac3b7e36,2021-09-27_14h31.13.211,forced_choiceRT_color,2021.2.3,MacIntel,60.0024001,,,,,,,,1,Ontime,short,j,0,1.9734,1,3,7,1,1,,,,,
,0.16,,,,,,,,,f,blue,5ea302aeb39fb424ac3b7e36,2021-09-27_14h31.13.211,forced_choiceRT_color,2021.2.3,MacIntel,60.0024001,,,,,,,,1,Ontime,short,j,0,1.9541,2,0,8,1,1,,,,,
,0.16,,,,,,,,,d,orange,5ea302aeb39fb424ac3b7e36,2021-09-27_14h31.13.211,forced_choiceRT_color,2021.2.3,MacIntel,60.0024001,,,,,,,,1,Fast,short,j,0,1.8147,2,1,9,0,1,,,,,
,1.19,,,,,,,,,f,blue,5ea302aeb39fb424ac3b7e36,2021-09-27_14h31.13.211,forced_choiceRT_color,2021.2.3,MacIntel,60.0024001,,,,,,,,1,Ontime,short,j,0,2.0108,2,2,10,1,1,,,,,
,1.83,,,,,,,,,k,purple,5ea302aeb39fb424ac3b7e36,2021-09-27_14h31.13.211,forced_choiceRT_color,2021.2.3,MacIntel,60.0024001,,,,,,,,1,Ontime,short,j,0,2.0103,2,3,11,3,1,,,,,
,0.63,,,,,,,,,j,red,5ea302aeb39fb424ac3b7e36,2021-09-27_14h31.13.211,forced_choiceRT_color,2021.2.3,MacIntel,60.0024001,,,,,,,,1,Ontime,short,j,1,1.9103,3,0,12,2,1,,,,,
,0.8,,,,,,,,,k,purple,5ea302aeb39fb424ac3b7e36,2021-09-27_14h31.13.211,forced_choiceRT_color,2021.2.3,MacIntel,60.0024001,,,,,,,,1,Ontime,short,j,0,2.0073,3,1,13,3,1,,,,,
,0.98,,,,,,,,,j,red,5ea302aeb39fb424ac3b7e36,2021-09-27_14h31.13.211,forced_choiceRT_color,2021.2.3,MacIntel,60.0024001,,,,,,,,1,Fast,short,j,1,1.7739,3,2,14,2,1,,,,,
,0.23,,,,,,,,,j,red,5ea302aeb39fb424ac3b7e36,2021-09-27_14h31.13.211,forced_choiceRT_color,2021.2.3,MacIntel,60.0024001,,,,,,,,1,Fast,short,j,1,1.8634,3,3,15,2,1,,,,,
,0.03,,,,,,,,,f,blue,5ea302aeb39fb424ac3b7e36,2021-09-27_14h31.13.211,forced_choiceRT_color,2021.2.3,MacIntel,60.0024001,,,,,,,,1,Fast,short,j,0,1.7857,4,0,16,1,1,,,,,
,0.51,,,,,,,,,k,purple,5ea302aeb39fb424ac3b7e36,2021-09-27_14h31.13.211,forced_choiceRT_color,2021.2.3,MacIntel,60.0024001,,,,,,,,1,Slow,short,j,0,2.1591,4,1,17,3,1,,,,,
,0.59,,,,,,,,,j,red,5ea302aeb39fb424ac3b7e36,2021-09-27_14h31.13.211,forced_choiceRT_color,2021.2.3,MacIntel,60.0024001,,,,,,,,1,Ontime,short,j,1,2.0904,4,2,18,2,1,,,,,
,0.61,,,,,,,,,j,red,5ea302aeb39fb424ac3b7e36,2021-09-27_14h31.13.211,forced_choiceRT_color,2021.2.3,MacIntel,60.0024001,,,,,,,,1,Ontime,short,j,1,2.0355,4,3,19,2,1,,,,,
,1.48,,,,,,,,,k,purple,5ea302aeb39fb424ac3b7e36,2021-09-27_14h31.13.211,forced_choiceRT_color,2021.2.3,MacIntel,60.0024001,,,,,,,,1,Ontime,short,j,0,1.9576,5,0,20,3,1,,,,,
,1.29,,,,,,,,,j,red,5ea302aeb39fb424ac3b7e36,2021-09-27_14h31.13.211,forced_choiceRT_color,2021.2.3,MacIntel,60.0024001,,,,,,,,1,Ontime,short,j,1,1.9235,5,1,21,2,1,,,,,
,0.42,,,,,,,,,f,blue,5ea302aeb39fb424ac3b7e36,2021-09-27_14h31.13.211,forced_choiceRT_color,2021.2.3,MacIntel,60.0024001,,,,,,,,1,Fast,short,j,0,1.8575,5,2,22,1,1,,,,,
,0.77,,,,,,,,,k,purple,5ea302aeb39fb424ac3b7e36,2021-09-27_14h31.13.211,forced_choiceRT_color,2021.2.3,MacIntel,60.0024001,,,,,,,,1,Ontime,short,j,0,1.9506,5,3,23,3,1,,,,,
,1.65,,,,,,,,,j,red,5ea302aeb39fb424ac3b7e36,2021-09-27_14h31.13.211,forced_choiceRT_color,2021.2.3,MacIntel,60.0024001,,,,,,,,1,Ontime,short,j,1,2.0843,6,0,24,2,1,,,,,
,0.05,,,,,,,,,d,orange,5ea302aeb39fb424ac3b7e36,2021-09-27_14h31.13.211,forced_choiceRT_color,2021.2.3,MacIntel,60.0024001,,,,,,,,1,Ontime,short,j,0,1.9831,6,1,25,0,1,,,,,
,0.7,,,,,,,,,j,red,5ea302aeb39fb424ac3b7e36,2021-09-27_14h31.13.211,forced_choiceRT_color,2021.2.3,MacIntel,60.0024001,,,,,,,,1,Ontime,short,j,1,1.9476,6,2,26,2,1,,,,,
,0.49,,,,,,,,,d,orange,5ea302aeb39fb424ac3b7e36,2021-09-27_14h31.13.211,forced_choiceRT_color,2021.2.3,MacIntel,60.0024001,,,,,,,,1,Fast,short,f,0,1.8472,6,3,27,0,1,,,,,
,0.52,,,,,,,,,k,purple,5ea302aeb39fb424ac3b7e36,2021-09-27_14h31.13.211,forced_choiceRT_color,2021.2.3,MacIntel,60.0024001,,,,,,,,1,Ontime,short,f,0,1.9739,7,0,28,3,1,,,,,
,0.3,,,,,,,,,d,orange,5ea302aeb39fb424ac3b7e36,2021-09-27_14h31.13.211,forced_choiceRT_color,2021.2.3,MacIntel,60.0024001,,,,,,,,1,Ontime,short,f,0,2.0768,7,1,29,0,1,,,,,
,0.31,,,,,,,,,j,red,5ea302aeb39fb424ac3b7e36,2021-09-27_14h31.13.211,forced_choiceRT_color,2021.2.3,MacIntel,60.0024001,,,,,,,,1,Ontime,short,f,0,2.0478,7,2,30,2,1,,,,,
,0.68,,,,,,,,,k,purple,5ea302aeb39fb424ac3b7e36,2021-09-27_14h31.13.211,forced_choiceRT_color,2021.2.3,MacIntel,60.0024001,,,,,,,,1,Ontime,short,j,0,1.947,7,3,31,3,1,,,,,
,0.21,,,,,,,,,k,purple,5ea302aeb39fb424ac3b7e36,2021-09-27_14h31.13.211,forced_choiceRT_color,2021.2.3,MacIntel,60.0024001,,,,,,,,1,Ontime,short,j,0,1.9986,8,0,32,3,1,,,,,
,1.35,,,,,,,,,d,orange,5ea302aeb39fb424ac3b7e36,2021-09-27_14h31.13.211,forced_choiceRT_color,2021.2.3,MacIntel,60.0024001,,,,,,,,1,Fast,short,j,0,1.8538,8,1,33,0,1,,,,,
,1.72,,,,,,,,,d,orange,5ea302aeb39fb424ac3b7e36,2021-09-27_14h31.13.211,forced_choiceRT_color,2021.2.3,MacIntel,60.0024001,,,,,,,,1,Ontime,short,f,0,2.0364,8,2,34,0,1,,,,,
,1.01,,,,,,,,,k,purple,5ea302aeb39fb424ac3b7e36,2021-09-27_14h31.13.211,forced_choiceRT_color,2021.2.3,MacIntel,60.0024001,,,,,,,,1,Ontime,short,f,0,1.9425,8,3,35,3,1,,,,,
,1.07,,,,,,,,,f,blue,5ea302aeb39fb424ac3b7e36,2021-09-27_14h31.13.211,forced_choiceRT_color,2021.2.3,MacIntel,60.0024001,,,,,,,,1,Fast,short,j,0,1.8985,9,0,36,1,1,,,,,
,1.11,,,,,,,,,f,blue,5ea302aeb39fb424ac3b7e36,2021-09-27_14h31.13.211,forced_choiceRT_color,2021.2.3,MacIntel,60.0024001,,,,,,,,1,Ontime,short,j,0,1.9098,9,1,37,1,1,,,,,
,0.52,,,,,,,,,f,blue,5ea302aeb39fb424ac3b7e36,2021-09-27_14h31.13.211,forced_choiceRT_color,2021.2.3,MacIntel,60.0024001,,,,,,,,1,Ontime,short,j,0,1.9648,9,2,38,1,1,,,,,
,0.72,,,,,,,,,d,orange,5ea302aeb39fb424ac3b7e36,2021-09-27_14h31.13.211,forced_choiceRT_color,2021.2.3,MacIntel,60.0024001,,,,,,,,1,Ontime,short,f,0,2.0524,9,3,39,0,1,,,,,
,,,,,,,,,,,,5ea302aeb39fb424ac3b7e36,2021-09-27_14h31.13.211,forced_choiceRT_color,2021.2.3,MacIntel,60.0024001,,,,,,,,,,,,,,,,,,,0,0,0,0,1
,0.17,,,,,,,,,j,red,5ea302aeb39fb424ac3b7e36,2021-09-27_14h31.13.211,forced_choiceRT_color,2021.2.3,MacIntel,60.0024001,,,,,,,,2,Ontime,short,j,1,1.9881,0,0,0,2,1,,,,,
,0.9,,,,,,,,,k,purple,5ea302aeb39fb424ac3b7e36,2021-09-27_14h31.13.211,forced_choiceRT_color,2021.2.3,MacIntel,60.0024001,,,,,,,,2,Ontime,short,j,0,2.084,0,1,1,3,1,,,,,
,0.13,,,,,,,,,d,orange,5ea302aeb39fb424ac3b7e36,2021-09-27_14h31.13.211,forced_choiceRT_color,2021.2.3,MacIntel,60.0024001,,,,,,,,2,Fast,short,j,0,1.7191,0,2,2,0,1,,,,,
,0.15,,,,,,,,,k,purple,5ea302aeb39fb424ac3b7e36,2021-09-27_14h31.13.211,forced_choiceRT_color,2021.2.3,MacIntel,60.0024001,,,,,,,,2,Ontime,short,j,0,2.0139,0,3,3,3,1,,,,,
,1.65,,,,,,,,,f,blue,5ea302aeb39fb424ac3b7e36,2021-09-27_14h31.13.211,forced_choiceRT_color,2021.2.3,MacIntel,60.0024001,,,,,,,,2,Ontime,short,j,0,2.0918,1,0,4,1,1,,,,,
,0.18,,,,,,,,,f,blue,5ea302aeb39fb424ac3b7e36,2021-09-27_14h31.13.211,forced_choiceRT_color,2021.2.3,MacIntel,60.0024001,,,,,,,,2,Ontime,short,j,0,1.9216,1,1,5,1,1,,,,,
,0.92,,,,,,,,,j,red,5ea302aeb39fb424ac3b7e36,2021-09-27_14h31.13.211,forced_choiceRT_color,2021.2.3,MacIntel,60.0024001,,,,,,,,2,Ontime,short,j,1,2.0783,1,2,6,2,1,,,,,
,0.96,,,,,,,,,k,purple,5ea302aeb39fb424ac3b7e36,2021-09-27_14h31.13.211,forced_choiceRT_color,2021.2.3,MacIntel,60.0024001,,,,,,,,2,Slow,short,j,0,2.111,1,3,7,3,1,,,,,
,1.85,,,,,,,,,d,orange,5ea302aeb39fb424ac3b7e36,2021-09-27_14h31.13.211,forced_choiceRT_color,2021.2.3,MacIntel,60.0024001,,,,,,,,2,Slow,short,j,0,2.1403,2,0,8,0,1,,,,,
,1.08,,,,,,,,,f,blue,5ea302aeb39fb424ac3b7e36,2021-09-27_14h31.13.211,forced_choiceRT_color,2021.2.3,MacIntel,60.0024001,,,,,,,,2,Ontime,short,j,0,2.0628,2,1,9,1,1,,,,,
,1.18,,,,,,,,,d,orange,5ea302aeb39fb424ac3b7e36,2021-09-27_14h31.13.211,forced_choiceRT_color,2021.2.3,MacIntel,60.0024001,,,,,,,,2,Ontime,short,j,0,2.0526,2,2,10,0,1,,,,,
,1.2,,,,,,,,,f,blue,5ea302aeb39fb424ac3b7e36,2021-09-27_14h31.13.211,forced_choiceRT_color,2021.2.3,MacIntel,60.0024001,,,,,,,,2,Ontime,short,j,0,2.0122,2,3,11,1,1,,,,,
,0.39,,,,,,,,,j,red,5ea302aeb39fb424ac3b7e36,2021-09-27_14h31.13.211,forced_choiceRT_color,2021.2.3,MacIntel,60.0024001,,,,,,,,2,Ontime,short,j,1,2.0078,3,0,12,2,1,,,,,
,1.93,,,,,,,,,k,purple,5ea302aeb39fb424ac3b7e36,2021-09-27_14h31.13.211,forced_choiceRT_color,2021.2.3,MacIntel,60.0024001,,,,,,,,2,Ontime,short,j,0,1.9828,3,1,13,3,1,,,,,
,1.67,,,,,,,,,d,orange,5ea302aeb39fb424ac3b7e36,2021-09-27_14h31.13.211,forced_choiceRT_color,2021.2.3,MacIntel,60.0024001,,,,,,,,2,Ontime,short,j,0,1.9257,3,2,14,0,1,,,,,
,0.76,,,,,,,,,k,purple,5ea302aeb39fb424ac3b7e36,2021-09-27_14h31.13.211,forced_choiceRT_color,2021.2.3,MacIntel,60.0024001,,,,,,,,2,Ontime,short,j,0,1.9024,3,3,15,3,1,,,,,
,1.91,,,,,,,,,d,orange,5ea302aeb39fb424ac3b7e36,2021-09-27_14h31.13.211,forced_choiceRT_color,2021.2.3,MacIntel,60.0024001,,,,,,,,2,Ontime,short,j,0,1.9846,4,0,16,0,1,,,,,
,1.88,,,,,,,,,d,orange,5ea302aeb39fb424ac3b7e36,2021-09-27_14h31.13.211,forced_choiceRT_color,2021.2.3,MacIntel,60.0024001,,,,,,,,2,Ontime,short,j,0,1.9179,4,1,17,0,1,,,,,
,1.34,,,,,,,,,k,purple,5ea302aeb39fb424ac3b7e36,2021-09-27_14h31.13.211,forced_choiceRT_color,2021.2.3,MacIntel,60.0024001,,,,,,,,2,Fast,short,j,0,1.8742,4,2,18,3,1,,,,,
,1.39,,,,,,,,,f,blue,5ea302aeb39fb424ac3b7e36,2021-09-27_14h31.13.211,forced_choiceRT_color,2021.2.3,MacIntel,60.0024001,,,,,,,,2,Ontime,short,j,0,2.0369,4,3,19,1,1,,,,,
,1.58,,,,,,,,,j,red,5ea302aeb39fb424ac3b7e36,2021-09-27_14h31.13.211,forced_choiceRT_color,2021.2.3,MacIntel,60.0024001,,,,,,,,2,Ontime,short,j,1,1.9433,5,0,20,2,1,,,,,
,1.07,,,,,,,,,k,purple,5ea302aeb39fb424ac3b7e36,2021-09-27_14h31.13.211,forced_choiceRT_color,2021.2.3,MacIntel,60.0024001,,,,,,,,2,Ontime,short,j,0,2.0432,5,1,21,3,1,,,,,
,0.89,,,,,,,,,d,orange,5ea302aeb39fb424ac3b7e36,2021-09-27_14h31.13.211,forced_choiceRT_color,2021.2.3,MacIntel,60.0024001,,,,,,,,2,Ontime,short,j,0,2.0753,5,2,22,0,1,,,,,
,1.83,,,,,,,,,d,orange,5ea302aeb39fb424ac3b7e36,2021-09-27_14h31.13.211,forced_choiceRT_color,2021.2.3,MacIntel,60.0024001,,,,,,,,2,Ontime,short,j,0,2.0823,5,3,23,0,1,,,,,
,1.28,,,,,,,,,k,purple,5ea302aeb39fb424ac3b7e36,2021-09-27_14h31.13.211,forced_choiceRT_color,2021.2.3,MacIntel,60.0024001,,,,,,,,2,Ontime,short,j,0,2.0663,6,0,24,3,1,,,,,
,1.1,,,,,,,,,f,blue,5ea302aeb39fb424ac3b7e36,2021-09-27_14h31.13.211,forced_choiceRT_color,2021.2.3,MacIntel,60.0024001,,,,,,,,2,Ontime,short,j,0,1.9865,6,1,25,1,1,,,,,
,0.75,,,,,,,,,j,red,5ea302aeb39fb424ac3b7e36,2021-09-27_14h31.13.211,forced_choiceRT_color,2021.2.3,MacIntel,60.0024001,,,,,,,,2,Ontime,short,j,1,1.935,6,2,26,2,1,,,,,
,0.58,,,,,,,,,j,red,5ea302aeb39fb424ac3b7e36,2021-09-27_14h31.13.211,forced_choiceRT_color,2021.2.3,MacIntel,60.0024001,,,,,,,,2,Ontime,short,j,1,1.9742,6,3,27,2,1,,,,,
,1.11,,,,,,,,,d,orange,5ea302aeb39fb424ac3b7e36,2021-09-27_14h31.13.211,forced_choiceRT_color,2021.2.3,MacIntel,60.0024001,,,,,,,,2,Ontime,short,j,0,1.9457,7,0,28,0,1,,,,,
,0.91,,,,,,,,,f,blue,5ea302aeb39fb424ac3b7e36,2021-09-27_14h31.13.211,forced_choiceRT_color,2021.2.3,MacIntel,60.0024001,,,,,,,,2,Ontime,short,j,0,1.9328,7,1,29,1,1,,,,,
,0.04,,,,,,,,,f,blue,5ea302aeb39fb424ac3b7e36,2021-09-27_14h31.13.211,forced_choiceRT_color,2021.2.3,MacIntel,60.0024001,,,,,,,,2,Fast,short,j,0,1.7688,7,2,30,1,1,,,,,
,0.52,,,,,,,,,j,red,5ea302aeb39fb424ac3b7e36,2021-09-27_14h31.13.211,forced_choiceRT_color,2021.2.3,MacIntel,60.0024001,,,,,,,,2,Slow,short,j,1,2.1031,7,3,31,2,1,,,,,
,0.96,,,,,,,,,f,blue,5ea302aeb39fb424ac3b7e36,2021-09-27_14h31.13.211,forced_choiceRT_color,2021.2.3,MacIntel,60.0024001,,,,,,,,2,Ontime,short,j,0,1.943,8,0,32,1,1,,,,,
,1.74,,,,,,,,,j,red,5ea302aeb39fb424ac3b7e36,2021-09-27_14h31.13.211,forced_choiceRT_color,2021.2.3,MacIntel,60.0024001,,,,,,,,2,Ontime,short,j,1,2.0005,8,1,33,2,1,,,,,
,0.15,,,,,,,,,j,red,5ea302aeb39fb424ac3b7e36,2021-09-27_14h31.13.211,forced_choiceRT_color,2021.2.3,MacIntel,60.0024001,,,,,,,,2,Fast,short,j,1,1.7885,8,2,34,2,1,,,,,
,1.12,,,,,,,,,d,orange,5ea302aeb39fb424ac3b7e36,2021-09-27_14h31.13.211,forced_choiceRT_color,2021.2.3,MacIntel,60.0024001,,,,,,,,2,Ontime,short,j,0,2.0769,8,3,35,0,1,,,,,
,0.74,,,,,,,,,k,purple,5ea302aeb39fb424ac3b7e36,2021-09-27_14h31.13.211,forced_choiceRT_color,2021.2.3,MacIntel,60.0024001,,,,,,,,2,Slow,short,j,0,2.1178,9,0,36,3,1,,,,,
,1.92,,,,,,,,,j,red,5ea302aeb39fb424ac3b7e36,2021-09-27_14h31.13.211,forced_choiceRT_color,2021.2.3,MacIntel,60.0024001,,,,,,,,2,Fast,short,j,1,1.8592,9,1,37,2,1,,,,,
,0.71,,,,,,,,,f,blue,5ea302aeb39fb424ac3b7e36,2021-09-27_14h31.13.211,forced_choiceRT_color,2021.2.3,MacIntel,60.0024001,,,,,,,,2,Ontime,short,j,0,2.0528,9,2,38,1,1,,,,,
,1.04,,,,,,,,,k,purple,5ea302aeb39fb424ac3b7e36,2021-09-27_14h31.13.211,forced_choiceRT_color,2021.2.3,MacIntel,60.0024001,,,,,,,,2,Slow,short,j,0,2.1694,9,3,39,3,1,,,,,
,,,,,,,,,,,,5ea302aeb39fb424ac3b7e36,2021-09-27_14h31.13.211,forced_choiceRT_color,2021.2.3,MacIntel,60.0024001,,,,,,,,,,,,,,,,,,,1,0,1,0,1
,0.93,,,,,,,,,k,purple,5ea302aeb39fb424ac3b7e36,2021-09-27_14h31.13.211,forced_choiceRT_color,2021.2.3,MacIntel,60.0024001,,,,,,,,3,Fast,short,k,1,1.6865,0,0,0,3,1,,,,,
,1.95,,,,,,,,,d,orange,5ea302aeb39fb424ac3b7e36,2021-09-27_14h31.13.211,forced_choiceRT_color,2021.2.3,MacIntel,60.0024001,,,,,,,,3,Slow,short,k,0,2.22,0,1,1,0,1,,,,,
,1.74,,,,,,,,,k,purple,5ea302aeb39fb424ac3b7e36,2021-09-27_14h31.13.211,forced_choiceRT_color,2021.2.3,MacIntel,60.0024001,,,,,,,,3,Slow,short,j,0,2.1836,0,2,2,3,1,,,,,
,0.36,,,,,,,,,k,purple,5ea302aeb39fb424ac3b7e36,2021-09-27_14h31.13.211,forced_choiceRT_color,2021.2.3,MacIntel,60.0024001,,,,,,,,3,Fast,short,k,1,1.0296,0,3,3,3,1,,,,,
,0.45,,,,,,,,,d,orange,5ea302aeb39fb424ac3b7e36,2021-09-27_14h31.13.211,forced_choiceRT_color,2021.2.3,MacIntel,60.0024001,,,,,,,,3,Fast,short,d,1,1.6805,1,0,4,0,1,,,,,
,1.4,,,,,,,,,f,blue,5ea302aeb39fb424ac3b7e36,2021-09-27_14h31.13.211,forced_choiceRT_color,2021.2.3,MacIntel,60.0024001,,,,,,,,3,Ontime,short,f,1,1.9589,1,1,5,1,1,,,,,
,1.24,,,,,,,,,d,orange,5ea302aeb39fb424ac3b7e36,2021-09-27_14h31.13.211,forced_choiceRT_color,2021.2.3,MacIntel,60.0024001,,,,,,,,3,Fast,short,d,1,1.8361,1,2,6,0,1,,,,,
,1.07,,,,,,,,,j,red,5ea302aeb39fb424ac3b7e36,2021-09-27_14h31.13.211,forced_choiceRT_color,2021.2.3,MacIntel,60.0024001,,,,,,,,3,Ontime,short,j,1,1.9741,1,3,7,2,1,,,,,
,0.38,,,,,,,,,k,purple,5ea302aeb39fb424ac3b7e36,2021-09-27_14h31.13.211,forced_choiceRT_color,2021.2.3,MacIntel,60.0024001,,,,,,,,3,Fast,short,k,1,1.8237,2,0,8,3,1,,,,,
,0.9,,,,,,,,,j,red,5ea302aeb39fb424ac3b7e36,2021-09-27_14h31.13.211,forced_choiceRT_color,2021.2.3,MacIntel,60.0024001,,,,,,,,3,Fast,short,f,0,1.8656,2,1,9,2,1,,,,,
,0.58,,,,,,,,,f,blue,5ea302aeb39fb424ac3b7e36,2021-09-27_14h31.13.211,forced_choiceRT_color,2021.2.3,MacIntel,60.0024001,,,,,,,,3,Ontime,short,f,1,2.0785,2,2,10,1,1,,,,,
,0,,,,,,,,,d,orange,5ea302aeb39fb424ac3b7e36,2021-09-27_14h31.13.211,forced_choiceRT_color,2021.2.3,MacIntel,60.0024001,,,,,,,,3,Fast,short,d,1,1.795,2,3,11,0,1,,,,,
,0.88,,,,,,,,,j,red,5ea302aeb39fb424ac3b7e36,2021-09-27_14h31.13.211,forced_choiceRT_color,2021.2.3,MacIntel,60.0024001,,,,,,,,3,Ontime,short,j,1,2.0367,3,0,12,2,1,,,,,
,1.38,,,,,,,,,j,red,5ea302aeb39fb424ac3b7e36,2021-09-27_14h31.13.211,forced_choiceRT_color,2021.2.3,MacIntel,60.0024001,,,,,,,,3,Ontime,short,j,1,1.9656,3,1,13,2,1,,,,,
,0.97,,,,,,,,,j,red,5ea302aeb39fb424ac3b7e36,2021-09-27_14h31.13.211,forced_choiceRT_color,2021.2.3,MacIntel,60.0024001,,,,,,,,3,Ontime,short,j,1,1.9637,3,2,14,2,1,,,,,
,1.09,,,,,,,,,f,blue,5ea302aeb39fb424ac3b7e36,2021-09-27_14h31.13.211,forced_choiceRT_color,2021.2.3,MacIntel,60.0024001,,,,,,,,3,Slow,short,f,1,2.1017,3,3,15,1,1,,,,,
,1.93,,,,,,,,,k,purple,5ea302aeb39fb424ac3b7e36,2021-09-27_14h31.13.211,forced_choiceRT_color,2021.2.3,MacIntel,60.0024001,,,,,,,,3,Slow,short,d,0,2.3604,4,0,16,3,1,,,,,
,0.39,,,,,,,,,f,blue,5ea302aeb39fb424ac3b7e36,2021-09-27_14h31.13.211,forced_choiceRT_color,2021.2.3,MacIntel,60.0024001,,,,,,,,3,Fast,short,j,0,1.8203,4,1,17,1,1,,,,,
,0.56,,,,,,,,,d,orange,5ea302aeb39fb424ac3b7e36,2021-09-27_14h31.13.211,forced_choiceRT_color,2021.2.3,MacIntel,60.0024001,,,,,,,,3,Ontime,short,d,1,1.9905,4,2,18,0,1,,,,,
,1.41,,,,,,,,,d,orange,5ea302aeb39fb424ac3b7e36,2021-09-27_14h31.13.211,forced_choiceRT_color,2021.2.3,MacIntel,60.0024001,,,,,,,,3,Ontime,short,d,1,2.0322,4,3,19,0,1,,,,,
,0.17,,,,,,,,,f,blue,5ea302aeb39fb424ac3b7e36,2021-09-27_14h31.13.211,forced_choiceRT_color,2021.2.3,MacIntel,60.0024001,,,,,,,,3,Ontime,short,f,1,2.0558,5,0,20,1,1,,,,,
,1.5,,,,,,,,,j,red,5ea302aeb39fb424ac3b7e36,2021-09-27_14h31.13.211,forced_choiceRT_color,2021.2.3,MacIntel,60.0024001,,,,,,,,3,Ontime,short,j,1,2.0695,5,1,21,2,1,,,,,
,1.56,,,,,,,,,j,red,5ea302aeb39fb424ac3b7e36,2021-09-27_14h31.13.211,forced_choiceRT_color,2021.2.3,MacIntel,60.0024001,,,,,,,,3,Slow,short,j,1,2.1342,5,2,22,2,1,,,,,
,1.68,,,,,,,,,k,purple,5ea302aeb39fb424ac3b7e36,2021-09-27_14h31.13.211,forced_choiceRT_color,2021.2.3,MacIntel,60.0024001,,,,,,,,3,Slow,short,k,1,2.2319,5,3,23,3,1,,,,,
,1.52,,,,,,,,,j,red,5ea302aeb39fb424ac3b7e36,2021-09-27_14h31.13.211,forced_choiceRT_color,2021.2.3,MacIntel,60.0024001,,,,,,,,3,Slow,short,f,0,2.1474,6,0,24,2,1,,,,,
,0.63,,,,,,,,,f,blue,5ea302aeb39fb424ac3b7e36,2021-09-27_14h31.13.211,forced_choiceRT_color,2021.2.3,MacIntel,60.0024001,,,,,,,,3,Ontime,short,f,1,2.0046,6,1,25,1,1,,,,,
,1.57,,,,,,,,,d,orange,5ea302aeb39fb424ac3b7e36,2021-09-27_14h31.13.211,forced_choiceRT_color,2021.2.3,MacIntel,60.0024001,,,,,,,,3,Ontime,short,d,1,2.0341,6,2,26,0,1,,,,,
,1.07,,,,,,,,,k,purple,5ea302aeb39fb424ac3b7e36,2021-09-27_14h31.13.211,forced_choiceRT_color,2021.2.3,MacIntel,60.0024001,,,,,,,,3,Ontime,short,k,1,1.9746,6,3,27,3,1,,,,,
,0.7,,,,,,,,,f,blue,5ea302aeb39fb424ac3b7e36,2021-09-27_14h31.13.211,forced_choiceRT_color,2021.2.3,MacIntel,60.0024001,,,,,,,,3,Ontime,short,f,1,1.9651,7,0,28,1,1,,,,,
,0.9,,,,,,,,,f,blue,5ea302aeb39fb424ac3b7e36,2021-09-27_14h31.13.211,forced_choiceRT_color,2021.2.3,MacIntel,60.0024001,,,,,,,,3,Slow,short,f,1,2.1892,7,1,29,1,1,,,,,
,1.5,,,,,,,,,d,orange,5ea302aeb39fb424ac3b7e36,2021-09-27_14h31.13.211,forced_choiceRT_color,2021.2.3,MacIntel,60.0024001,,,,,,,,3,Slow,short,d,1,2.1358,7,2,30,0,1,,,,,
,0.81,,,,,,,,,f,blue,5ea302aeb39fb424ac3b7e36,2021-09-27_14h31.13.211,forced_choiceRT_color,2021.2.3,MacIntel,60.0024001,,,,,,,,3,Ontime,short,f,1,1.9513,7,3,31,1,1,,,,,
,1.59,,,,,,,,,d,orange,5ea302aeb39fb424ac3b7e36,2021-09-27_14h31.13.211,forced_choiceRT_color,2021.2.3,MacIntel,60.0024001,,,,,,,,3,Slow,short,d,1,2.111,8,0,32,0,1,,,,,
,1.24,,,,,,,,,f,blue,5ea302aeb39fb424ac3b7e36,2021-09-27_14h31.13.211,forced_choiceRT_color,2021.2.3,MacIntel,60.0024001,,,,,,,,3,Ontime,short,f,1,1.9647,8,1,33,1,1,,,,,
,1.49,,,,,,,,,k,purple,5ea302aeb39fb424ac3b7e36,2021-09-27_14h31.13.211,forced_choiceRT_color,2021.2.3,MacIntel,60.0024001,,,,,,,,3,Ontime,short,k,1,2.0455,8,2,34,3,1,,,,,
,0.75,,,,,,,,,j,red,5ea302aeb39fb424ac3b7e36,2021-09-27_14h31.13.211,forced_choiceRT_color,2021.2.3,MacIntel,60.0024001,,,,,,,,3,Ontime,short,j,1,2.0119,8,3,35,2,1,,,,,
,1.81,,,,,,,,,k,purple,5ea302aeb39fb424ac3b7e36,2021-09-27_14h31.13.211,forced_choiceRT_color,2021.2.3,MacIntel,60.0024001,,,,,,,,3,Slow,short,k,1,2.1794,9,0,36,3,1,,,,,
,0.32,,,,,,,,,k,purple,5ea302aeb39fb424ac3b7e36,2021-09-27_14h31.13.211,forced_choiceRT_color,2021.2.3,MacIntel,60.0024001,,,,,,,,3,Ontime,short,k,1,1.9944,9,1,37,3,1,,,,,
,1.26,,,,,,,,,d,orange,5ea302aeb39fb424ac3b7e36,2021-09-27_14h31.13.211,forced_choiceRT_color,2021.2.3,MacIntel,60.0024001,,,,,,,,3,Fast,short,d,1,1.8002,9,2,38,0,1,,,,,
,1.39,,,,,,,,,j,red,5ea302aeb39fb424ac3b7e36,2021-09-27_14h31.13.211,forced_choiceRT_color,2021.2.3,MacIntel,60.0024001,,,,,,,,3,Ontime,short,f,0,2.0312,9,3,39,2,1,,,,,
,,,,,,,,,,,,5ea302aeb39fb424ac3b7e36,2021-09-27_14h31.13.211,forced_choiceRT_color,2021.2.3,MacIntel,60.0024001,,,,,,,,,,,,,,,,,,,2,0,2,0,1
,1.09,,,,,,,,,d,orange,5ea302aeb39fb424ac3b7e36,2021-09-27_14h31.13.211,forced_choiceRT_color,2021.2.3,MacIntel,60.0024001,,,,,,,,4,Ontime,short,d,1,2.0743,0,0,0,0,1,,,,,
,1.35,,,,,,,,,k,purple,5ea302aeb39fb424ac3b7e36,2021-09-27_14h31.13.211,forced_choiceRT_color,2021.2.3,MacIntel,60.0024001,,,,,,,,4,Ontime,short,k,1,2.018,0,1,1,3,1,,,,,
,1.01,,,,,,,,,d,orange,5ea302aeb39fb424ac3b7e36,2021-09-27_14h31.13.211,forced_choiceRT_color,2021.2.3,MacIntel,60.0024001,,,,,,,,4,Slow,short,d,1,2.1518,0,2,2,0,1,,,,,
,0.03,,,,,,,,,f,blue,5ea302aeb39fb424ac3b7e36,2021-09-27_14h31.13.211,forced_choiceRT_color,2021.2.3,MacIntel,60.0024001,,,,,,,,4,Slow,short,f,1,2.1402,0,3,3,1,1,,,,,
,1.04,,,,,,,,,f,blue,5ea302aeb39fb424ac3b7e36,2021-09-27_14h31.13.211,forced_choiceRT_color,2021.2.3,MacIntel,60.0024001,,,,,,,,4,Ontime,short,f,1,2.0491,1,0,4,1,1,,,,,
,0.85,,,,,,,,,f,blue,5ea302aeb39fb424ac3b7e36,2021-09-27_14h31.13.211,forced_choiceRT_color,2021.2.3,MacIntel,60.0024001,,,,,,,,4,Slow,short,f,1,2.1876,1,1,5,1,1,,,,,
,1.02,,,,,,,,,f,blue,5ea302aeb39fb424ac3b7e36,2021-09-27_14h31.13.211,forced_choiceRT_color,2021.2.3,MacIntel,60.0024001,,,,,,,,4,Ontime,short,f,1,2.001,1,2,6,1,1,,,,,
,1.28,,,,,,,,,j,red,5ea302aeb39fb424ac3b7e36,2021-09-27_14h31.13.211,forced_choiceRT_color,2021.2.3,MacIntel,60.0024001,,,,,,,,4,Ontime,short,k,0,2.0401,1,3,7,2,1,,,,,
,1.44,,,,,,,,,d,orange,5ea302aeb39fb424ac3b7e36,2021-09-27_14h31.13.211,forced_choiceRT_color,2021.2.3,MacIntel,60.0024001,,,,,,,,4,Ontime,short,d,1,2.0436,2,0,8,0,1,,,,,
,0.69,,,,,,,,,j,red,5ea302aeb39fb424ac3b7e36,2021-09-27_14h31.13.211,forced_choiceRT_color,2021.2.3,MacIntel,60.0024001,,,,,,,,4,Ontime,short,j,1,2.0686,2,1,9,2,1,,,,,
,0.72,,,,,,,,,k,purple,5ea302aeb39fb424ac3b7e36,2021-09-27_14h31.13.211,forced_choiceRT_color,2021.2.3,MacIntel,60.0024001,,,,,,,,4,Ontime,short,k,1,2.025,2,2,10,3,1,,,,,
,1.73,,,,,,,,,d,orange,5ea302aeb39fb424ac3b7e36,2021-09-27_14h31.13.211,forced_choiceRT_color,2021.2.3,MacIntel,60.0024001,,,,,,,,4,Slow,short,f,0,2.1453,2,3,11,0,1,,,,,
,1.55,,,,,,,,,d,orange,5ea302aeb39fb424ac3b7e36,2021-09-27_14h31.13.211,forced_choiceRT_color,2021.2.3,MacIntel,60.0024001,,,,,,,,4,Ontime,short,d,1,2.0723,3,0,12,0,1,,,,,
,1.18,,,,,,,,,j,red,5ea302aeb39fb424ac3b7e36,2021-09-27_14h31.13.211,forced_choiceRT_color,2021.2.3,MacIntel,60.0024001,,,,,,,,4,Fast,short,j,1,1.8768,3,1,13,2,1,,,,,
,0.71,,,,,,,,,d,orange,5ea302aeb39fb424ac3b7e36,2021-09-27_14h31.13.211,forced_choiceRT_color,2021.2.3,MacIntel,60.0024001,,,,,,,,4,Ontime,short,d,1,2.0003,3,2,14,0,1,,,,,
,0.17,,,,,,,,,d,orange,5ea302aeb39fb424ac3b7e36,2021-09-27_14h31.13.211,forced_choiceRT_color,2021.2.3,MacIntel,60.0024001,,,,,,,,4,Ontime,short,d,1,2.0173,3,3,15,0,1,,,,,
,0.11,,,,,,,,,d,orange,5ea302aeb39fb424ac3b7e36,2021-09-27_14h31.13.211,forced_choiceRT_color,2021.2.3,MacIntel,60.0024001,,,,,,,,4,Ontime,short,d,1,2.0552,4,0,16,0,1,,,,,
,1.25,,,,,,,,,f,blue,5ea302aeb39fb424ac3b7e36,2021-09-27_14h31.13.211,forced_choiceRT_color,2021.2.3,MacIntel,60.0024001,,,,,,,,4,Ontime,short,f,1,1.934,4,1,17,1,1,,,,,
,0.4,,,,,,,,,k,purple,5ea302aeb39fb424ac3b7e36,2021-09-27_14h31.13.211,forced_choiceRT_color,2021.2.3,MacIntel,60.0024001,,,,,,,,4,Ontime,short,k,1,2.0212,4,2,18,3,1,,,,,
,0.76,,,,,,,,,k,purple,5ea302aeb39fb424ac3b7e36,2021-09-27_14h31.13.211,forced_choiceRT_color,2021.2.3,MacIntel,60.0024001,,,,,,,,4,Ontime,short,k,1,2.0347,4,3,19,3,1,,,,,
,0.83,,,,,,,,,f,blue,5ea302aeb39fb424ac3b7e36,2021-09-27_14h31.13.211,forced_choiceRT_color,2021.2.3,MacIntel,60.0024001,,,,,,,,4,Ontime,short,f,1,1.9596,5,0,20,1,1,,,,,
,1.84,,,,,,,,,f,blue,5ea302aeb39fb424ac3b7e36,2021-09-27_14h31.13.211,forced_choiceRT_color,2021.2.3,MacIntel,60.0024001,,,,,,,,4,Ontime,short,d,0,2.06,5,1,21,1,1,,,,,
,0.21,,,,,,,,,k,purple,5ea302aeb39fb424ac3b7e36,2021-09-27_14h31.13.211,forced_choiceRT_color,2021.2.3,MacIntel,60.0024001,,,,,,,,4,Ontime,short,k,1,1.9808,5,2,22,3,1,,,,,
,0.99,,,,,,,,,k,purple,5ea302aeb39fb424ac3b7e36,2021-09-27_14h31.13.211,forced_choiceRT_color,2021.2.3,MacIntel,60.0024001,,,,,,,,4,Ontime,short,k,1,2.0411,5,3,23,3,1,,,,,
,0.32,,,,,,,,,f,blue,5ea302aeb39fb424ac3b7e36,2021-09-27_14h31.13.211,forced_choiceRT_color,2021.2.3,MacIntel,60.0024001,,,,,,,,4,Ontime,short,f,1,1.9971,6,0,24,1,1,,,,,
,1.44,,,,,,,,,d,orange,5ea302aeb39fb424ac3b7e36,2021-09-27_14h31.13.211,forced_choiceRT_color,2021.2.3,MacIntel,60.0024001,,,,,,,,4,Ontime,short,d,1,1.9991,6,1,25,0,1,,,,,
,0.47,,,,,,,,,k,purple,5ea302aeb39fb424ac3b7e36,2021-09-27_14h31.13.211,forced_choiceRT_color,2021.2.3,MacIntel,60.0024001,,,,,,,,4,Ontime,short,k,1,1.9799,6,2,26,3,1,,,,,
,0.35,,,,,,,,,j,red,5ea302aeb39fb424ac3b7e36,2021-09-27_14h31.13.211,forced_choiceRT_color,2021.2.3,MacIntel,60.0024001,,,,,,,,4,Ontime,short,j,1,1.9717,6,3,27,2,1,,,,,
,1.76,,,,,,,,,k,purple,5ea302aeb39fb424ac3b7e36,2021-09-27_14h31.13.211,forced_choiceRT_color,2021.2.3,MacIntel,60.0024001,,,,,,,,4,Ontime,short,f,0,2.0239,7,0,28,3,1,,,,,
,0.77,,,,,,,,,d,orange,5ea302aeb39fb424ac3b7e36,2021-09-27_14h31.13.211,forced_choiceRT_color,2021.2.3,MacIntel,60.0024001,,,,,,,,4,Ontime,short,d,1,1.977,7,1,29,0,1,,,,,
,1.65,,,,,,,,,j,red,5ea302aeb39fb424ac3b7e36,2021-09-27_14h31.13.211,forced_choiceRT_color,2021.2.3,MacIntel,60.0024001,,,,,,,,4,Ontime,short,k,0,2.0776,7,2,30,2,1,,,,,
,0.45,,,,,,,,,j,red,5ea302aeb39fb424ac3b7e36,2021-09-27_14h31.13.211,forced_choiceRT_color,2021.2.3,MacIntel,60.0024001,,,,,,,,4,Ontime,short,j,1,1.9296,7,3,31,2,1,,,,,
,1.05,,,,,,,,,k,purple,5ea302aeb39fb424ac3b7e36,2021-09-27_14h31.13.211,forced_choiceRT_color,2021.2.3,MacIntel,60.0024001,,,,,,,,4,Ontime,short,k,1,2.0005,8,0,32,3,1,,,,,
,1.26,,,,,,,,,k,purple,5ea302aeb39fb424ac3b7e36,2021-09-27_14h31.13.211,forced_choiceRT_color,2021.2.3,MacIntel,60.0024001,,,,,,,,4,Ontime,short,k,1,1.9022,8,1,33,3,1,,,,,
,1,,,,,,,,,j,red,5ea302aeb39fb424ac3b7e36,2021-09-27_14h31.13.211,forced_choiceRT_color,2021.2.3,MacIntel,60.0024001,,,,,,,,4,Ontime,short,f,0,1.9428,8,2,34,2,1,,,,,
,1.61,,,,,,,,,j,red,5ea302aeb39fb424ac3b7e36,2021-09-27_14h31.13.211,forced_choiceRT_color,2021.2.3,MacIntel,60.0024001,,,,,,,,4,Slow,short,j,1,2.1585,8,3,35,2,1,,,,,
,1.5,,,,,,,,,j,red,5ea302aeb39fb424ac3b7e36,2021-09-27_14h31.13.211,forced_choiceRT_color,2021.2.3,MacIntel,60.0024001,,,,,,,,4,Ontime,short,j,1,2.006,9,0,36,2,1,,,,,
,1.37,,,,,,,,,j,red,5ea302aeb39fb424ac3b7e36,2021-09-27_14h31.13.211,forced_choiceRT_color,2021.2.3,MacIntel,60.0024001,,,,,,,,4,Ontime,short,j,1,1.9993,9,1,37,2,1,,,,,
,0.16,,,,,,,,,f,blue,5ea302aeb39fb424ac3b7e36,2021-09-27_14h31.13.211,forced_choiceRT_color,2021.2.3,MacIntel,60.0024001,,,,,,,,4,Ontime,short,f,1,1.953,9,2,38,1,1,,,,,
,0.26,,,,,,,,,f,blue,5ea302aeb39fb424ac3b7e36,2021-09-27_14h31.13.211,forced_choiceRT_color,2021.2.3,MacIntel,60.0024001,,,,,,,,4,Ontime,short,f,1,1.9675,9,3,39,1,1,,,,,
,,,,,,,,,,,,5ea302aeb39fb424ac3b7e36,2021-09-27_14h31.13.211,forced_choiceRT_color,2021.2.3,MacIntel,60.0024001,,,,,,,,,,,,,,,,,,,3,0,3,0,1
,1.97,,,,,,,,,k,purple,5ea302aeb39fb424ac3b7e36,2021-09-27_14h31.13.211,forced_choiceRT_color,2021.2.3,MacIntel,60.0024001,,,,,,,,5,Slow,short,k,1,2.5213,0,0,0,3,1,,,,,
,1.37,,,,,,,,,f,blue,5ea302aeb39fb424ac3b7e36,2021-09-27_14h31.13.211,forced_choiceRT_color,2021.2.3,MacIntel,60.0024001,,,,,,,,5,Ontime,short,j,0,1.9592,0,1,1,1,1,,,,,
,0.8,,,,,,,,,f,blue,5ea302aeb39fb424ac3b7e36,2021-09-27_14h31.13.211,forced_choiceRT_color,2021.2.3,MacIntel,60.0024001,,,,,,,,5,Fast,short,d,0,0.1169,0,2,2,1,1,,,,,
,0.88,,,,,,,,,j,red,5ea302aeb39fb424ac3b7e36,2021-09-27_14h31.13.211,forced_choiceRT_color,2021.2.3,MacIntel,60.0024001,,,,,,,,5,Fast,short,j,1,1.8959,0,3,3,2,1,,,,,
,1.94,,,,,,,,,j,red,5ea302aeb39fb424ac3b7e36,2021-09-27_14h31.13.211,forced_choiceRT_color,2021.2.3,MacIntel,60.0024001,,,,,,,,5,Slow,short,j,1,2.1014,1,0,4,2,1,,,,,
,1.85,,,,,,,,,j,red,5ea302aeb39fb424ac3b7e36,2021-09-27_14h31.13.211,forced_choiceRT_color,2021.2.3,MacIntel,60.0024001,,,,,,,,5,Slow,short,j,1,2.2355,1,1,5,2,1,,,,,
,1.23,,,,,,,,,f,blue,5ea302aeb39fb424ac3b7e36,2021-09-27_14h31.13.211,forced_choiceRT_color,2021.2.3,MacIntel,60.0024001,,,,,,,,5,Fast,short,f,1,1.8421,1,2,6,1,1,,,,,
,1.06,,,,,,,,,f,blue,5ea302aeb39fb424ac3b7e36,2021-09-27_14h31.13.211,forced_choiceRT_color,2021.2.3,MacIntel,60.0024001,,,,,,,,5,Fast,short,f,1,1.624,1,3,7,1,1,,,,,
,1.9,,,,,,,,,f,blue,5ea302aeb39fb424ac3b7e36,2021-09-27_14h31.13.211,forced_choiceRT_color,2021.2.3,MacIntel,60.0024001,,,,,,,,5,Ontime,short,f,1,2.0537,2,0,8,1,1,,,,,
,1.4,,,,,,,,,f,blue,5ea302aeb39fb424ac3b7e36,2021-09-27_14h31.13.211,forced_choiceRT_color,2021.2.3,MacIntel,60.0024001,,,,,,,,5,Ontime,short,f,1,2.0496,2,1,9,1,1,,,,,
,0.57,,,,,,,,,k,purple,5ea302aeb39fb424ac3b7e36,2021-09-27_14h31.13.211,forced_choiceRT_color,2021.2.3,MacIntel,60.0024001,,,,,,,,5,Ontime,short,k,1,1.9761,2,2,10,3,1,,,,,
,0.24,,,,,,,,,k,purple,5ea302aeb39fb424ac3b7e36,2021-09-27_14h31.13.211,forced_choiceRT_color,2021.2.3,MacIntel,60.0024001,,,,,,,,5,Ontime,short,k,1,1.9164,2,3,11,3,1,,,,,
,0.29,,,,,,,,,d,orange,5ea302aeb39fb424ac3b7e36,2021-09-27_14h31.13.211,forced_choiceRT_color,2021.2.3,MacIntel,60.0024001,,,,,,,,5,Fast,short,d,1,1.638,3,0,12,0,1,,,,,
,1.73,,,,,,,,,k,purple,5ea302aeb39fb424ac3b7e36,2021-09-27_14h31.13.211,forced_choiceRT_color,2021.2.3,MacIntel,60.0024001,,,,,,,,5,Slow,short,j,0,2.1162,3,1,13,3,1,,,,,
,0.92,,,,,,,,,d,orange,5ea302aeb39fb424ac3b7e36,2021-09-27_14h31.13.211,forced_choiceRT_color,2021.2.3,MacIntel,60.0024001,,,,,,,,5,Ontime,short,d,1,1.9208,3,2,14,0,1,,,,,
,1.72,,,,,,,,,f,blue,5ea302aeb39fb424ac3b7e36,2021-09-27_14h31.13.211,forced_choiceRT_color,2021.2.3,MacIntel,60.0024001,,,,,,,,5,Ontime,short,k,0,2.0479,3,3,15,1,1,,,,,
,1.53,,,,,,,,,k,purple,5ea302aeb39fb424ac3b7e36,2021-09-27_14h31.13.211,forced_choiceRT_color,2021.2.3,MacIntel,60.0024001,,,,,,,,5,Ontime,short,k,1,2.0875,4,0,16,3,1,,,,,
,1.21,,,,,,,,,d,orange,5ea302aeb39fb424ac3b7e36,2021-09-27_14h31.13.211,forced_choiceRT_color,2021.2.3,MacIntel,60.0024001,,,,,,,,5,Slow,short,d,1,2.1529,4,1,17,0,1,,,,,
,1.16,,,,,,,,,j,red,5ea302aeb39fb424ac3b7e36,2021-09-27_14h31.13.211,forced_choiceRT_color,2021.2.3,MacIntel,60.0024001,,,,,,,,5,Fast,short,j,1,1.7341,4,2,18,2,1,,,,,
,0.64,,,,,,,,,d,orange,5ea302aeb39fb424ac3b7e36,2021-09-27_14h31.13.211,forced_choiceRT_color,2021.2.3,MacIntel,60.0024001,,,,,,,,5,Ontime,short,d,1,1.9783,4,3,19,0,1,,,,,
,0.54,,,,,,,,,k,purple,5ea302aeb39fb424ac3b7e36,2021-09-27_14h31.13.211,forced_choiceRT_color,2021.2.3,MacIntel,60.0024001,,,,,,,,5,Ontime,short,k,1,1.9663,5,0,20,3,1,,,,,
,1.41,,,,,,,,,j,red,5ea302aeb39fb424ac3b7e36,2021-09-27_14h31.13.211,forced_choiceRT_color,2021.2.3,MacIntel,60.0024001,,,,,,,,5,Ontime,short,d,0,2.0507,5,1,21,2,1,,,,,
,1.47,,,,,,,,,d,orange,5ea302aeb39fb424ac3b7e36,2021-09-27_14h31.13.211,forced_choiceRT_color,2021.2.3,MacIntel,60.0024001,,,,,,,,5,Ontime,short,f,0,2.0959,5,2,22,0,1,,,,,
,1.7,,,,,,,,,d,orange,5ea302aeb39fb424ac3b7e36,2021-09-27_14h31.13.211,forced_choiceRT_color,2021.2.3,MacIntel,60.0024001,,,,,,,,5,Slow,short,d,1,2.1415,5,3,23,0,1,,,,,
,0.58,,,,,,,,,j,red,5ea302aeb39fb424ac3b7e36,2021-09-27_14h31.13.211,forced_choiceRT_color,2021.2.3,MacIntel,60.0024001,,,,,,,,5,Ontime,short,j,1,2.0332,6,0,24,2,1,,,,,
,1.08,,,,,,,,,k,purple,5ea302aeb39fb424ac3b7e36,2021-09-27_14h31.13.211,forced_choiceRT_color,2021.2.3,MacIntel,60.0024001,,,,,,,,5,Fast,short,k,1,1.8664,6,1,25,3,1,,,,,
,1.02,,,,,,,,,f,blue,5ea302aeb39fb424ac3b7e36,2021-09-27_14h31.13.211,forced_choiceRT_color,2021.2.3,MacIntel,60.0024001,,,,,,,,5,Fast,short,d,0,1.705,6,2,26,1,1,,,,,
,1.77,,,,,,,,,f,blue,5ea302aeb39fb424ac3b7e36,2021-09-27_14h31.13.211,forced_choiceRT_color,2021.2.3,MacIntel,60.0024001,,,,,,,,5,Slow,short,j,0,2.166,6,3,27,1,1,,,,,
,0.26,,,,,,,,,d,orange,5ea302aeb39fb424ac3b7e36,2021-09-27_14h31.13.211,forced_choiceRT_color,2021.2.3,MacIntel,60.0024001,,,,,,,,5,Fast,short,d,1,1.835,7,0,28,0,1,,,,,
,0.91,,,,,,,,,j,red,5ea302aeb39fb424ac3b7e36,2021-09-27_14h31.13.211,forced_choiceRT_color,2021.2.3,MacIntel,60.0024001,,,,,,,,5,Fast,short,k,0,1.7225,7,1,29,2,1,,,,,
,1.58,,,,,,,,,j,red,5ea302aeb39fb424ac3b7e36,2021-09-27_14h31.13.211,forced_choiceRT_color,2021.2.3,MacIntel,60.0024001,,,,,,,,5,Ontime,short,k,0,2.0529,7,2,30,2,1,,,,,
,0.48,,,,,,,,,j,red,5ea302aeb39fb424ac3b7e36,2021-09-27_14h31.13.211,forced_choiceRT_color,2021.2.3,MacIntel,60.0024001,,,,,,,,5,Ontime,short,j,1,1.9423,7,3,31,2,1,,,,,
,0.23,,,,,,,,,k,purple,5ea302aeb39fb424ac3b7e36,2021-09-27_14h31.13.211,forced_choiceRT_color,2021.2.3,MacIntel,60.0024001,,,,,,,,5,Ontime,short,k,1,1.9629,8,0,32,3,1,,,,,
,0.32,,,,,,,,,d,orange,5ea302aeb39fb424ac3b7e36,2021-09-27_14h31.13.211,forced_choiceRT_color,2021.2.3,MacIntel,60.0024001,,,,,,,,5,Ontime,short,d,1,1.9137,8,1,33,0,1,,,,,
,0.85,,,,,,,,,k,purple,5ea302aeb39fb424ac3b7e36,2021-09-27_14h31.13.211,forced_choiceRT_color,2021.2.3,MacIntel,60.0024001,,,,,,,,5,Ontime,short,k,1,1.9964,8,2,34,3,1,,,,,
,0.57,,,,,,,,,k,purple,5ea302aeb39fb424ac3b7e36,2021-09-27_14h31.13.211,forced_choiceRT_color,2021.2.3,MacIntel,60.0024001,,,,,,,,5,Ontime,short,k,1,1.9902,8,3,35,3,1,,,,,
,1.77,,,,,,,,,d,orange,5ea302aeb39fb424ac3b7e36,2021-09-27_14h31.13.211,forced_choiceRT_color,2021.2.3,MacIntel,60.0024001,,,,,,,,5,Fast,short,k,0,1.8836,9,0,36,0,1,,,,,
,1.94,,,,,,,,,f,blue,5ea302aeb39fb424ac3b7e36,2021-09-27_14h31.13.211,forced_choiceRT_color,2021.2.3,MacIntel,60.0024001,,,,,,,,5,Slow,short,k,0,2.2189,9,1,37,1,1,,,,,
,0.14,,,,,,,,,j,red,5ea302aeb39fb424ac3b7e36,2021-09-27_14h31.13.211,forced_choiceRT_color,2021.2.3,MacIntel,60.0024001,,,,,,,,5,Ontime,short,j,1,2.027,9,2,38,2,1,,,,,
,1.88,,,,,,,,,d,orange,5ea302aeb39fb424ac3b7e36,2021-09-27_14h31.13.211,forced_choiceRT_color,2021.2.3,MacIntel,60.0024001,,,,,,,,5,Ontime,short,j,0,2.066,9,3,39,0,1,,,,,
,,,,,,,,,,,,5ea302aeb39fb424ac3b7e36,2021-09-27_14h31.13.211,forced_choiceRT_color,2021.2.3,MacIntel,60.0024001,,,,,,,,,,,,,,,,,,,4,0,4,0,1
,0.37,,,,,,,,,j,red,5ea302aeb39fb424ac3b7e36,2021-09-27_14h31.13.211,forced_choiceRT_color,2021.2.3,MacIntel,60.0024001,,,,,,,,6,Fast,short,j,1,1.578,0,0,0,2,1,,,,,
,0.62,,,,,,,,,j,red,5ea302aeb39fb424ac3b7e36,2021-09-27_14h31.13.211,forced_choiceRT_color,2021.2.3,MacIntel,60.0024001,,,,,,,,6,Ontime,short,j,1,1.9865,0,1,1,2,1,,,,,
,1.13,,,,,,,,,f,blue,5ea302aeb39fb424ac3b7e36,2021-09-27_14h31.13.211,forced_choiceRT_color,2021.2.3,MacIntel,60.0024001,,,,,,,,6,Fast,short,d,0,1.8928,0,2,2,1,1,,,,,
,1.17,,,,,,,,,d,orange,5ea302aeb39fb424ac3b7e36,2021-09-27_14h31.13.211,forced_choiceRT_color,2021.2.3,MacIntel,60.0024001,,,,,,,,6,Fast,short,d,1,1.894,0,3,3,0,1,,,,,
,0.33,,,,,,,,,j,red,5ea302aeb39fb424ac3b7e36,2021-09-27_14h31.13.211,forced_choiceRT_color,2021.2.3,MacIntel,60.0024001,,,,,,,,6,Ontime,short,j,1,2.0625,1,0,4,2,1,,,,,
,0.99,,,,,,,,,f,blue,5ea302aeb39fb424ac3b7e36,2021-09-27_14h31.13.211,forced_choiceRT_color,2021.2.3,MacIntel,60.0024001,,,,,,,,6,Ontime,short,f,1,2.0263,1,1,5,1,1,,,,,
,1.71,,,,,,,,,f,blue,5ea302aeb39fb424ac3b7e36,2021-09-27_14h31.13.211,forced_choiceRT_color,2021.2.3,MacIntel,60.0024001,,,,,,,,6,Ontime,short,k,0,1.9819,1,2,6,1,1,,,,,
,1.44,,,,,,,,,j,red,5ea302aeb39fb424ac3b7e36,2021-09-27_14h31.13.211,forced_choiceRT_color,2021.2.3,MacIntel,60.0024001,,,,,,,,6,Ontime,short,f,0,2.052,1,3,7,2,1,,,,,
,1.28,,,,,,,,,d,orange,5ea302aeb39fb424ac3b7e36,2021-09-27_14h31.13.211,forced_choiceRT_color,2021.2.3,MacIntel,60.0024001,,,,,,,,6,Ontime,short,d,1,2.0019,2,0,8,0,1,,,,,
,1.17,,,,,,,,,d,orange,5ea302aeb39fb424ac3b7e36,2021-09-27_14h31.13.211,forced_choiceRT_color,2021.2.3,MacIntel,60.0024001,,,,,,,,6,Ontime,short,d,1,2.0826,2,1,9,0,1,,,,,
,0.22,,,,,,,,,j,red,5ea302aeb39fb424ac3b7e36,2021-09-27_14h31.13.211,forced_choiceRT_color,2021.2.3,MacIntel,60.0024001,,,,,,,,6,Ontime,short,j,1,1.9676,2,2,10,2,1,,,,,
,0.82,,,,,,,,,k,purple,5ea302aeb39fb424ac3b7e36,2021-09-27_14h31.13.211,forced_choiceRT_color,2021.2.3,MacIntel,60.0024001,,,,,,,,6,Ontime,short,k,1,1.9154,2,3,11,3,1,,,,,
,1.4,,,,,,,,,k,purple,5ea302aeb39fb424ac3b7e36,2021-09-27_14h31.13.211,forced_choiceRT_color,2021.2.3,MacIntel,60.0024001,,,,,,,,6,Ontime,short,k,1,1.9697,3,0,12,3,1,,,,,
,1.27,,,,,,,,,d,orange,5ea302aeb39fb424ac3b7e36,2021-09-27_14h31.13.211,forced_choiceRT_color,2021.2.3,MacIntel,60.0024001,,,,,,,,6,Ontime,short,d,1,1.9958,3,1,13,0,1,,,,,
,1.03,,,,,,,,,f,blue,5ea302aeb39fb424ac3b7e36,2021-09-27_14h31.13.211,forced_choiceRT_color,2021.2.3,MacIntel,60.0024001,,,,,,,,6,Ontime,short,f,1,1.9851,3,2,14,1,1,,,,,
,1.26,,,,,,,,,d,orange,5ea302aeb39fb424ac3b7e36,2021-09-27_14h31.13.211,forced_choiceRT_color,2021.2.3,MacIntel,60.0024001,,,,,,,,6,Ontime,short,d,1,2.0563,3,3,15,0,1,,,,,
,0.45,,,,,,,,,k,purple,5ea302aeb39fb424ac3b7e36,2021-09-27_14h31.13.211,forced_choiceRT_color,2021.2.3,MacIntel,60.0024001,,,,,,,,6,Ontime,short,k,1,1.9537,4,0,16,3,1,,,,,
,0.76,,,,,,,,,k,purple,5ea302aeb39fb424ac3b7e36,2021-09-27_14h31.13.211,forced_choiceRT_color,2021.2.3,MacIntel,60.0024001,,,,,,,,6,Ontime,short,k,1,1.9925,4,1,17,3,1,,,,,
,0.87,,,,,,,,,k,purple,5ea302aeb39fb424ac3b7e36,2021-09-27_14h31.13.211,forced_choiceRT_color,2021.2.3,MacIntel,60.0024001,,,,,,,,6,Ontime,short,k,1,1.9554,4,2,18,3,1,,,,,
,0.4,,,,,,,,,j,red,5ea302aeb39fb424ac3b7e36,2021-09-27_14h31.13.211,forced_choiceRT_color,2021.2.3,MacIntel,60.0024001,,,,,,,,6,Fast,short,j,1,1.8891,4,3,19,2,1,,,,,
,1.64,,,,,,,,,j,red,5ea302aeb39fb424ac3b7e36,2021-09-27_14h31.13.211,forced_choiceRT_color,2021.2.3,MacIntel,60.0024001,,,,,,,,6,Slow,short,j,1,2.1387,5,0,20,2,1,,,,,
,0.94,,,,,,,,,f,blue,5ea302aeb39fb424ac3b7e36,2021-09-27_14h31.13.211,forced_choiceRT_color,2021.2.3,MacIntel,60.0024001,,,,,,,,6,Ontime,short,d,0,2.0168,5,1,21,1,1,,,,,
,1.6,,,,,,,,,f,blue,5ea302aeb39fb424ac3b7e36,2021-09-27_14h31.13.211,forced_choiceRT_color,2021.2.3,MacIntel,60.0024001,,,,,,,,6,Ontime,short,d,0,2.0338,5,2,22,1,1,,,,,
,0.5,,,,,,,,,f,blue,5ea302aeb39fb424ac3b7e36,2021-09-27_14h31.13.211,forced_choiceRT_color,2021.2.3,MacIntel,60.0024001,,,,,,,,6,Ontime,short,f,1,1.9848,5,3,23,1,1,,,,,
,0.89,,,,,,,,,d,orange,5ea302aeb39fb424ac3b7e36,2021-09-27_14h31.13.211,forced_choiceRT_color,2021.2.3,MacIntel,60.0024001,,,,,,,,6,Ontime,short,d,1,2.0228,6,0,24,0,1,,,,,
,1.51,,,,,,,,,k,purple,5ea302aeb39fb424ac3b7e36,2021-09-27_14h31.13.211,forced_choiceRT_color,2021.2.3,MacIntel,60.0024001,,,,,,,,6,Ontime,short,k,1,2.0389,6,1,25,3,1,,,,,
,1.21,,,,,,,,,d,orange,5ea302aeb39fb424ac3b7e36,2021-09-27_14h31.13.211,forced_choiceRT_color,2021.2.3,MacIntel,60.0024001,,,,,,,,6,Ontime,short,d,1,1.9927,6,2,26,0,1,,,,,
,0.79,,,,,,,,,f,blue,5ea302aeb39fb424ac3b7e36,2021-09-27_14h31.13.211,forced_choiceRT_color,2021.2.3,MacIntel,60.0024001,,,,,,,,6,Ontime,short,f,1,1.961,6,3,27,1,1,,,,,
,1.82,,,,,,,,,k,purple,5ea302aeb39fb424ac3b7e36,2021-09-27_14h31.13.211,forced_choiceRT_color,2021.2.3,MacIntel,60.0024001,,,,,,,,6,Ontime,short,k,1,2.0745,7,0,28,3,1,,,,,
,0.49,,,,,,,,,k,purple,5ea302aeb39fb424ac3b7e36,2021-09-27_14h31.13.211,forced_choiceRT_color,2021.2.3,MacIntel,60.0024001,,,,,,,,6,Fast,short,k,1,1.8888,7,1,29,3,1,,,,,
,0.39,,,,,,,,,j,red,5ea302aeb39fb424ac3b7e36,2021-09-27_14h31.13.211,forced_choiceRT_color,2021.2.3,MacIntel,60.0024001,,,,,,,,6,Ontime,short,j,1,2.0088,7,2,30,2,1,,,,,
,1.06,,,,,,,,,d,orange,5ea302aeb39fb424ac3b7e36,2021-09-27_14h31.13.211,forced_choiceRT_color,2021.2.3,MacIntel,60.0024001,,,,,,,,6,Ontime,short,d,1,2.0507,7,3,31,0,1,,,,,
,1.83,,,,,,,,,f,blue,5ea302aeb39fb424ac3b7e36,2021-09-27_14h31.13.211,forced_choiceRT_color,2021.2.3,MacIntel,60.0024001,,,,,,,,6,Ontime,short,d,0,1.9744,8,0,32,1,1,,,,,
,1.49,,,,,,,,,j,red,5ea302aeb39fb424ac3b7e36,2021-09-27_14h31.13.211,forced_choiceRT_color,2021.2.3,MacIntel,60.0024001,,,,,,,,6,Slow,short,j,1,2.2353,8,1,33,2,1,,,,,
,1.91,,,,,,,,,j,red,5ea302aeb39fb424ac3b7e36,2021-09-27_14h31.13.211,forced_choiceRT_color,2021.2.3,MacIntel,60.0024001,,,,,,,,6,Slow,short,k,0,2.1061,8,2,34,2,1,,,,,
,1.7,,,,,,,,,k,purple,5ea302aeb39fb424ac3b7e36,2021-09-27_14h31.13.211,forced_choiceRT_color,2021.2.3,MacIntel,60.0024001,,,,,,,,6,Slow,short,k,1,2.1549,8,3,35,3,1,,,,,
,0.78,,,,,,,,,d,orange,5ea302aeb39fb424ac3b7e36,2021-09-27_14h31.13.211,forced_choiceRT_color,2021.2.3,MacIntel,60.0024001,,,,,,,,6,Fast,short,d,1,1.8851,9,0,36,0,1,,,,,
,1.45,,,,,,,,,d,orange,5ea302aeb39fb424ac3b7e36,2021-09-27_14h31.13.211,forced_choiceRT_color,2021.2.3,MacIntel,60.0024001,,,,,,,,6,Ontime,short,d,1,1.942,9,1,37,0,1,,,,,
,0.98,,,,,,,,,f,blue,5ea302aeb39fb424ac3b7e36,2021-09-27_14h31.13.211,forced_choiceRT_color,2021.2.3,MacIntel,60.0024001,,,,,,,,6,Ontime,short,f,1,1.9059,9,2,38,1,1,,,,,
,1.11,,,,,,,,,k,purple,5ea302aeb39fb424ac3b7e36,2021-09-27_14h31.13.211,forced_choiceRT_color,2021.2.3,MacIntel,60.0024001,,,,,,,,6,Fast,short,k,1,1.8912,9,3,39,3,1,,,,,
,,,,,,,,,,,,5ea302aeb39fb424ac3b7e36,2021-09-27_14h31.13.211,forced_choiceRT_color,2021.2.3,MacIntel,60.0024001,,,,,,,,,,,,,,,,,,,5,0,5,0,1
,0.7,,,,,,,,,k,purple,5ea302aeb39fb424ac3b7e36,2021-09-27_14h31.13.211,forced_choiceRT_color,2021.2.3,MacIntel,60.0024001,,,,,,,,7,Ontime,short,k,1,2.0332,0,0,0,3,1,,,,,
,0.32,,,,,,,,,f,blue,5ea302aeb39fb424ac3b7e36,2021-09-27_14h31.13.211,forced_choiceRT_color,2021.2.3,MacIntel,60.0024001,,,,,,,,7,Ontime,short,f,1,1.9597,0,1,1,1,1,,,,,
,1.71,,,,,,,,,d,orange,5ea302aeb39fb424ac3b7e36,2021-09-27_14h31.13.211,forced_choiceRT_color,2021.2.3,MacIntel,60.0024001,,,,,,,,7,Ontime,short,d,1,2.0457,0,2,2,0,1,,,,,
,1.57,,,,,,,,,d,orange,5ea302aeb39fb424ac3b7e36,2021-09-27_14h31.13.211,forced_choiceRT_color,2021.2.3,MacIntel,60.0024001,,,,,,,,7,Ontime,short,d,1,2.0633,0,3,3,0,1,,,,,
,1.24,,,,,,,,,j,red,5ea302aeb39fb424ac3b7e36,2021-09-27_14h31.13.211,forced_choiceRT_color,2021.2.3,MacIntel,60.0024001,,,,,,,,7,Ontime,short,j,1,1.9311,1,0,4,2,1,,,,,
,0.12,,,,,,,,,f,blue,5ea302aeb39fb424ac3b7e36,2021-09-27_14h31.13.211,forced_choiceRT_color,2021.2.3,MacIntel,60.0024001,,,,,,,,7,Ontime,short,f,1,1.9858,1,1,5,1,1,,,,,
,1.1,,,,,,,,,d,orange,5ea302aeb39fb424ac3b7e36,2021-09-27_14h31.13.211,forced_choiceRT_color,2021.2.3,MacIntel,60.0024001,,,,,,,,7,Ontime,short,d,1,1.9108,1,2,6,0,1,,,,,
,0.52,,,,,,,,,j,red,5ea302aeb39fb424ac3b7e36,2021-09-27_14h31.13.211,forced_choiceRT_color,2021.2.3,MacIntel,60.0024001,,,,,,,,7,Ontime,short,j,1,2.0119,1,3,7,2,1,,,,,
,0.76,,,,,,,,,f,blue,5ea302aeb39fb424ac3b7e36,2021-09-27_14h31.13.211,forced_choiceRT_color,2021.2.3,MacIntel,60.0024001,,,,,,,,7,Ontime,short,f,1,1.977,2,0,8,1,1,,,,,
,1.28,,,,,,,,,k,purple,5ea302aeb39fb424ac3b7e36,2021-09-27_14h31.13.211,forced_choiceRT_color,2021.2.3,MacIntel,60.0024001,,,,,,,,7,Ontime,short,k,1,1.9616,2,1,9,3,1,,,,,
,1.37,,,,,,,,,f,blue,5ea302aeb39fb424ac3b7e36,2021-09-27_14h31.13.211,forced_choiceRT_color,2021.2.3,MacIntel,60.0024001,,,,,,,,7,Ontime,short,j,0,2.0146,2,2,10,1,1,,,,,
,1.77,,,,,,,,,k,purple,5ea302aeb39fb424ac3b7e36,2021-09-27_14h31.13.211,forced_choiceRT_color,2021.2.3,MacIntel,60.0024001,,,,,,,,7,Slow,short,k,1,2.1894,2,3,11,3,1,,,,,
,1.43,,,,,,,,,f,blue,5ea302aeb39fb424ac3b7e36,2021-09-27_14h31.13.211,forced_choiceRT_color,2021.2.3,MacIntel,60.0024001,,,,,,,,7,Slow,short,f,1,2.1153,3,0,12,1,1,,,,,
,0.84,,,,,,,,,f,blue,5ea302aeb39fb424ac3b7e36,2021-09-27_14h31.13.211,forced_choiceRT_color,2021.2.3,MacIntel,60.0024001,,,,,,,,7,Ontime,short,f,1,1.9876,3,1,13,1,1,,,,,
,1.97,,,,,,,,,f,blue,5ea302aeb39fb424ac3b7e36,2021-09-27_14h31.13.211,forced_choiceRT_color,2021.2.3,MacIntel,60.0024001,,,,,,,,7,Slow,short,f,1,2.2478,3,2,14,1,1,,,,,
,1.34,,,,,,,,,f,blue,5ea302aeb39fb424ac3b7e36,2021-09-27_14h31.13.211,forced_choiceRT_color,2021.2.3,MacIntel,60.0024001,,,,,,,,7,Ontime,short,f,1,2.0674,3,3,15,1,1,,,,,
,0.42,,,,,,,,,k,purple,5ea302aeb39fb424ac3b7e36,2021-09-27_14h31.13.211,forced_choiceRT_color,2021.2.3,MacIntel,60.0024001,,,,,,,,7,Slow,short,k,1,2.1142,4,0,16,3,1,,,,,
,0.41,,,,,,,,,k,purple,5ea302aeb39fb424ac3b7e36,2021-09-27_14h31.13.211,forced_choiceRT_color,2021.2.3,MacIntel,60.0024001,,,,,,,,7,Fast,short,k,1,1.8873,4,1,17,3,1,,,,,
,0,,,,,,,,,j,red,5ea302aeb39fb424ac3b7e36,2021-09-27_14h31.13.211,forced_choiceRT_color,2021.2.3,MacIntel,60.0024001,,,,,,,,7,Ontime,short,j,1,1.9379,4,2,18,2,1,,,,,
,1.94,,,,,,,,,d,orange,5ea302aeb39fb424ac3b7e36,2021-09-27_14h31.13.211,forced_choiceRT_color,2021.2.3,MacIntel,60.0024001,,,,,,,,7,Ontime,short,k,0,2.081,4,3,19,0,1,,,,,
,1.01,,,,,,,,,j,red,5ea302aeb39fb424ac3b7e36,2021-09-27_14h31.13.211,forced_choiceRT_color,2021.2.3,MacIntel,60.0024001,,,,,,,,7,Ontime,short,j,1,1.9822,5,0,20,2,1,,,,,
,0.54,,,,,,,,,k,purple,5ea302aeb39fb424ac3b7e36,2021-09-27_14h31.13.211,forced_choiceRT_color,2021.2.3,MacIntel,60.0024001,,,,,,,,7,Ontime,short,k,1,1.9249,5,1,21,3,1,,,,,
,1.5,,,,,,,,,j,red,5ea302aeb39fb424ac3b7e36,2021-09-27_14h31.13.211,forced_choiceRT_color,2021.2.3,MacIntel,60.0024001,,,,,,,,7,Ontime,short,f,0,2.0458,5,2,22,2,1,,,,,
,1.16,,,,,,,,,d,orange,5ea302aeb39fb424ac3b7e36,2021-09-27_14h31.13.211,forced_choiceRT_color,2021.2.3,MacIntel,60.0024001,,,,,,,,7,Fast,short,d,1,1.8717,5,3,23,0,1,,,,,
,0.7,,,,,,,,,d,orange,5ea302aeb39fb424ac3b7e36,2021-09-27_14h31.13.211,forced_choiceRT_color,2021.2.3,MacIntel,60.0024001,,,,,,,,7,Fast,short,d,1,1.5694,6,0,24,0,1,,,,,
,0.42,,,,,,,,,j,red,5ea302aeb39fb424ac3b7e36,2021-09-27_14h31.13.211,forced_choiceRT_color,2021.2.3,MacIntel,60.0024001,,,,,,,,7,Ontime,short,j,1,2.0337,6,1,25,2,1,,,,,
,0.22,,,,,,,,,k,purple,5ea302aeb39fb424ac3b7e36,2021-09-27_14h31.13.211,forced_choiceRT_color,2021.2.3,MacIntel,60.0024001,,,,,,,,7,Ontime,short,k,1,1.9449,6,2,26,3,1,,,,,
,0.6,,,,,,,,,d,orange,5ea302aeb39fb424ac3b7e36,2021-09-27_14h31.13.211,forced_choiceRT_color,2021.2.3,MacIntel,60.0024001,,,,,,,,7,Ontime,short,d,1,1.9691,6,3,27,0,1,,,,,
,1.15,,,,,,,,,d,orange,5ea302aeb39fb424ac3b7e36,2021-09-27_14h31.13.211,forced_choiceRT_color,2021.2.3,MacIntel,60.0024001,,,,,,,,7,Ontime,short,d,1,1.9849,7,0,28,0,1,,,,,
,1.13,,,,,,,,,d,orange,5ea302aeb39fb424ac3b7e36,2021-09-27_14h31.13.211,forced_choiceRT_color,2021.2.3,MacIntel,60.0024001,,,,,,,,7,Ontime,short,d,1,1.9938,7,1,29,0,1,,,,,
,0.25,,,,,,,,,j,red,5ea302aeb39fb424ac3b7e36,2021-09-27_14h31.13.211,forced_choiceRT_color,2021.2.3,MacIntel,60.0024001,,,,,,,,7,Slow,short,j,1,2.1275,7,2,30,2,1,,,,,
,0.95,,,,,,,,,j,red,5ea302aeb39fb424ac3b7e36,2021-09-27_14h31.13.211,forced_choiceRT_color,2021.2.3,MacIntel,60.0024001,,,,,,,,7,Ontime,short,j,1,1.9536,7,3,31,2,1,,,,,
,1.87,,,,,,,,,d,orange,5ea302aeb39fb424ac3b7e36,2021-09-27_14h31.13.211,forced_choiceRT_color,2021.2.3,MacIntel,60.0024001,,,,,,,,7,Slow,short,j,0,2.132,8,0,32,0,1,,,,,
,1.68,,,,,,,,,j,red,5ea302aeb39fb424ac3b7e36,2021-09-27_14h31.13.211,forced_choiceRT_color,2021.2.3,MacIntel,60.0024001,,,,,,,,7,Slow,short,k,0,2.1019,8,1,33,2,1,,,,,
,0.94,,,,,,,,,f,blue,5ea302aeb39fb424ac3b7e36,2021-09-27_14h31.13.211,forced_choiceRT_color,2021.2.3,MacIntel,60.0024001,,,,,,,,7,Fast,short,f,1,1.8355,8,2,34,1,1,,,,,
,1.42,,,,,,,,,k,purple,5ea302aeb39fb424ac3b7e36,2021-09-27_14h31.13.211,forced_choiceRT_color,2021.2.3,MacIntel,60.0024001,,,,,,,,7,Ontime,short,k,1,1.9693,8,3,35,3,1,,,,,
,1.52,,,,,,,,,k,purple,5ea302aeb39fb424ac3b7e36,2021-09-27_14h31.13.211,forced_choiceRT_color,2021.2.3,MacIntel,60.0024001,,,,,,,,7,Ontime,short,k,1,2.0085,9,0,36,3,1,,,,,
,1.41,,,,,,,,,f,blue,5ea302aeb39fb424ac3b7e36,2021-09-27_14h31.13.211,forced_choiceRT_color,2021.2.3,MacIntel,60.0024001,,,,,,,,7,Ontime,short,f,1,2.0649,9,1,37,1,1,,,,,
,1.81,,,,,,,,,k,purple,5ea302aeb39fb424ac3b7e36,2021-09-27_14h31.13.211,forced_choiceRT_color,2021.2.3,MacIntel,60.0024001,,,,,,,,7,Slow,short,j,0,2.261,9,2,38,3,1,,,,,
,0.61,,,,,,,,,j,red,5ea302aeb39fb424ac3b7e36,2021-09-27_14h31.13.211,forced_choiceRT_color,2021.2.3,MacIntel,60.0024001,,,,,,,,7,Slow,short,j,1,2.2645,9,3,39,2,1,,,,,
,,,,,,,,,,,,5ea302aeb39fb424ac3b7e36,2021-09-27_14h31.13.211,forced_choiceRT_color,2021.2.3,MacIntel,60.0024001,,,,,,,,,,,,,,,,,,,6,0,6,0,1
,0.62,,,,,,,,,j,red,5ea302aeb39fb424ac3b7e36,2021-09-27_14h31.13.211,forced_choiceRT_color,2021.2.3,MacIntel,60.0024001,,,,,,,,8,Ontime,short,j,1,2.0264,0,0,0,2,1,,,,,
,1.9,,,,,,,,,d,orange,5ea302aeb39fb424ac3b7e36,2021-09-27_14h31.13.211,forced_choiceRT_color,2021.2.3,MacIntel,60.0024001,,,,,,,,8,Slow,short,j,0,2.1647,0,1,1,0,1,,,,,
,1.22,,,,,,,,,j,red,5ea302aeb39fb424ac3b7e36,2021-09-27_14h31.13.211,forced_choiceRT_color,2021.2.3,MacIntel,60.0024001,,,,,,,,8,Ontime,short,j,1,1.9514,0,2,2,2,1,,,,,
,0.32,,,,,,,,,j,red,5ea302aeb39fb424ac3b7e36,2021-09-27_14h31.13.211,forced_choiceRT_color,2021.2.3,MacIntel,60.0024001,,,,,,,,8,Ontime,short,j,1,2.0111,0,3,3,2,1,,,,,
,1.51,,,,,,,,,d,orange,5ea302aeb39fb424ac3b7e36,2021-09-27_14h31.13.211,forced_choiceRT_color,2021.2.3,MacIntel,60.0024001,,,,,,,,8,Slow,short,d,1,2.158,1,0,4,0,1,,,,,
,1.06,,,,,,,,,f,blue,5ea302aeb39fb424ac3b7e36,2021-09-27_14h31.13.211,forced_choiceRT_color,2021.2.3,MacIntel,60.0024001,,,,,,,,8,Ontime,short,f,1,1.9574,1,1,5,1,1,,,,,
,1.86,,,,,,,,,k,purple,5ea302aeb39fb424ac3b7e36,2021-09-27_14h31.13.211,forced_choiceRT_color,2021.2.3,MacIntel,60.0024001,,,,,,,,8,Ontime,short,k,1,2.0208,1,2,6,3,1,,,,,
,1.32,,,,,,,,,j,red,5ea302aeb39fb424ac3b7e36,2021-09-27_14h31.13.211,forced_choiceRT_color,2021.2.3,MacIntel,60.0024001,,,,,,,,8,Ontime,short,j,1,2.0518,1,3,7,2,1,,,,,
,0.75,,,,,,,,,f,blue,5ea302aeb39fb424ac3b7e36,2021-09-27_14h31.13.211,forced_choiceRT_color,2021.2.3,MacIntel,60.0024001,,,,,,,,8,Ontime,short,f,1,2.0084,2,0,8,1,1,,,,,
,0.04,,,,,,,,,f,blue,5ea302aeb39fb424ac3b7e36,2021-09-27_14h31.13.211,forced_choiceRT_color,2021.2.3,MacIntel,60.0024001,,,,,,,,8,Fast,short,f,1,1.858,2,1,9,1,1,,,,,
,1.39,,,,,,,,,j,red,5ea302aeb39fb424ac3b7e36,2021-09-27_14h31.13.211,forced_choiceRT_color,2021.2.3,MacIntel,60.0024001,,,,,,,,8,Fast,short,k,0,1.8653,2,2,10,2,1,,,,,
,1.3,,,,,,,,,d,orange,5ea302aeb39fb424ac3b7e36,2021-09-27_14h31.13.211,forced_choiceRT_color,2021.2.3,MacIntel,60.0024001,,,,,,,,8,Ontime,short,d,1,1.9865,2,3,11,0,1,,,,,
,0.24,,,,,,,,,f,blue,5ea302aeb39fb424ac3b7e36,2021-09-27_14h31.13.211,forced_choiceRT_color,2021.2.3,MacIntel,60.0024001,,,,,,,,8,Fast,short,f,1,1.8663,3,0,12,1,1,,,,,
,1.1,,,,,,,,,k,purple,5ea302aeb39fb424ac3b7e36,2021-09-27_14h31.13.211,forced_choiceRT_color,2021.2.3,MacIntel,60.0024001,,,,,,,,8,Ontime,short,k,1,2.0006,3,1,13,3,1,,,,,
,1.59,,,,,,,,,d,orange,5ea302aeb39fb424ac3b7e36,2021-09-27_14h31.13.211,forced_choiceRT_color,2021.2.3,MacIntel,60.0024001,,,,,,,,8,Ontime,short,k,0,1.9849,3,2,14,0,1,,,,,
,0.29,,,,,,,,,j,red,5ea302aeb39fb424ac3b7e36,2021-09-27_14h31.13.211,forced_choiceRT_color,2021.2.3,MacIntel,60.0024001,,,,,,,,8,Ontime,short,j,1,1.9882,3,3,15,2,1,,,,,
,1.69,,,,,,,,,f,blue,5ea302aeb39fb424ac3b7e36,2021-09-27_14h31.13.211,forced_choiceRT_color,2021.2.3,MacIntel,60.0024001,,,,,,,,8,Slow,short,f,1,2.1228,4,0,16,1,1,,,,,
,1.1,,,,,,,,,k,purple,5ea302aeb39fb424ac3b7e36,2021-09-27_14h31.13.211,forced_choiceRT_color,2021.2.3,MacIntel,60.0024001,,,,,,,,8,Ontime,short,k,1,1.9961,4,1,17,3,1,,,,,
,1.25,,,,,,,,,f,blue,5ea302aeb39fb424ac3b7e36,2021-09-27_14h31.13.211,forced_choiceRT_color,2021.2.3,MacIntel,60.0024001,,,,,,,,8,Ontime,short,f,1,2.0055,4,2,18,1,1,,,,,
,0.55,,,,,,,,,k,purple,5ea302aeb39fb424ac3b7e36,2021-09-27_14h31.13.211,forced_choiceRT_color,2021.2.3,MacIntel,60.0024001,,,,,,,,8,Fast,short,k,1,1.7911,4,3,19,3,1,,,,,
,0.75,,,,,,,,,k,purple,5ea302aeb39fb424ac3b7e36,2021-09-27_14h31.13.211,forced_choiceRT_color,2021.2.3,MacIntel,60.0024001,,,,,,,,8,Fast,short,k,1,1.8404,5,0,20,3,1,,,,,
,1.28,,,,,,,,,j,red,5ea302aeb39fb424ac3b7e36,2021-09-27_14h31.13.211,forced_choiceRT_color,2021.2.3,MacIntel,60.0024001,,,,,,,,8,Ontime,short,j,1,2.0426,5,1,21,2,1,,,,,
,1.79,,,,,,,,,d,orange,5ea302aeb39fb424ac3b7e36,2021-09-27_14h31.13.211,forced_choiceRT_color,2021.2.3,MacIntel,60.0024001,,,,,,,,8,Ontime,short,f,0,2.0099,5,2,22,0,1,,,,,
,1.02,,,,,,,,,k,purple,5ea302aeb39fb424ac3b7e36,2021-09-27_14h31.13.211,forced_choiceRT_color,2021.2.3,MacIntel,60.0024001,,,,,,,,8,Fast,short,k,1,1.8851,5,3,23,3,1,,,,,
,1.05,,,,,,,,,f,blue,5ea302aeb39fb424ac3b7e36,2021-09-27_14h31.13.211,forced_choiceRT_color,2021.2.3,MacIntel,60.0024001,,,,,,,,8,Ontime,short,f,1,2.0316,6,0,24,1,1,,,,,
,1.73,,,,,,,,,j,red,5ea302aeb39fb424ac3b7e36,2021-09-27_14h31.13.211,forced_choiceRT_color,2021.2.3,MacIntel,60.0024001,,,,,,,,8,Ontime,short,k,0,1.9844,6,1,25,2,1,,,,,
,0.86,,,,,,,,,d,orange,5ea302aeb39fb424ac3b7e36,2021-09-27_14h31.13.211,forced_choiceRT_color,2021.2.3,MacIntel,60.0024001,,,,,,,,8,Ontime,short,d,1,1.9674,6,2,26,0,1,,,,,
,1.89,,,,,,,,,f,blue,5ea302aeb39fb424ac3b7e36,2021-09-27_14h31.13.211,forced_choiceRT_color,2021.2.3,MacIntel,60.0024001,,,,,,,,8,Ontime,short,k,0,1.9917,6,3,27,1,1,,,,,
,0.1,,,,,,,,,d,orange,5ea302aeb39fb424ac3b7e36,2021-09-27_14h31.13.211,forced_choiceRT_color,2021.2.3,MacIntel,60.0024001,,,,,,,,8,Ontime,short,d,1,1.968,7,0,28,0,1,,,,,
,0.7,,,,,,,,,d,orange,5ea302aeb39fb424ac3b7e36,2021-09-27_14h31.13.211,forced_choiceRT_color,2021.2.3,MacIntel,60.0024001,,,,,,,,8,Ontime,short,d,1,1.9373,7,1,29,0,1,,,,,
,0.51,,,,,,,,,k,purple,5ea302aeb39fb424ac3b7e36,2021-09-27_14h31.13.211,forced_choiceRT_color,2021.2.3,MacIntel,60.0024001,,,,,,,,8,Fast,short,k,1,1.7941,7,2,30,3,1,,,,,
,0.38,,,,,,,,,d,orange,5ea302aeb39fb424ac3b7e36,2021-09-27_14h31.13.211,forced_choiceRT_color,2021.2.3,MacIntel,60.0024001,,,,,,,,8,Ontime,short,d,1,1.9011,7,3,31,0,1,,,,,
,0.91,,,,,,,,,j,red,5ea302aeb39fb424ac3b7e36,2021-09-27_14h31.13.211,forced_choiceRT_color,2021.2.3,MacIntel,60.0024001,,,,,,,,8,Ontime,short,j,1,1.941,8,0,32,2,1,,,,,
,0.06,,,,,,,,,k,purple,5ea302aeb39fb424ac3b7e36,2021-09-27_14h31.13.211,forced_choiceRT_color,2021.2.3,MacIntel,60.0024001,,,,,,,,8,Ontime,short,k,1,1.9521,8,1,33,3,1,,,,,
,1.86,,,,,,,,,d,orange,5ea302aeb39fb424ac3b7e36,2021-09-27_14h31.13.211,forced_choiceRT_color,2021.2.3,MacIntel,60.0024001,,,,,,,,8,Ontime,short,k,0,1.9178,8,2,34,0,1,,,,,
,0.67,,,,,,,,,f,blue,5ea302aeb39fb424ac3b7e36,2021-09-27_14h31.13.211,forced_choiceRT_color,2021.2.3,MacIntel,60.0024001,,,,,,,,8,Ontime,short,f,1,1.9655,8,3,35,1,1,,,,,
,1.86,,,,,,,,,j,red,5ea302aeb39fb424ac3b7e36,2021-09-27_14h31.13.211,forced_choiceRT_color,2021.2.3,MacIntel,60.0024001,,,,,,,,8,Ontime,short,f,0,1.9767,9,0,36,2,1,,,,,
,0.52,,,,,,,,,k,purple,5ea302aeb39fb424ac3b7e36,2021-09-27_14h31.13.211,forced_choiceRT_color,2021.2.3,MacIntel,60.0024001,,,,,,,,8,Ontime,short,k,1,1.9436,9,1,37,3,1,,,,,
,1.28,,,,,,,,,f,blue,5ea302aeb39fb424ac3b7e36,2021-09-27_14h31.13.211,forced_choiceRT_color,2021.2.3,MacIntel,60.0024001,,,,,,,,8,Ontime,short,j,0,1.9777,9,2,38,1,1,,,,,
,1.53,,,,,,,,,k,purple,5ea302aeb39fb424ac3b7e36,2021-09-27_14h31.13.211,forced_choiceRT_color,2021.2.3,MacIntel,60.0024001,,,,,,,,8,Ontime,short,k,1,2.0114,9,3,39,3,1,,,,,
,,,,,,,,,,,,5ea302aeb39fb424ac3b7e36,2021-09-27_14h31.13.211,forced_choiceRT_color,2021.2.3,MacIntel,60.0024001,,,,,,,,,,,,,,,,,,,7,0,7,0,1
,0.88,,,,,,,,,k,purple,5ea302aeb39fb424ac3b7e36,2021-09-27_14h31.13.211,forced_choiceRT_color,2021.2.3,MacIntel,60.0024001,,,,,,,,9,Ontime,short,k,1,1.9362,0,0,0,3,1,,,,,
,0.58,,,,,,,,,k,purple,5ea302aeb39fb424ac3b7e36,2021-09-27_14h31.13.211,forced_choiceRT_color,2021.2.3,MacIntel,60.0024001,,,,,,,,9,Ontime,short,k,1,1.9844,0,1,1,3,1,,,,,
,0.55,,,,,,,,,k,purple,5ea302aeb39fb424ac3b7e36,2021-09-27_14h31.13.211,forced_choiceRT_color,2021.2.3,MacIntel,60.0024001,,,,,,,,9,Fast,short,k,1,1.7848,0,2,2,3,1,,,,,
,1.28,,,,,,,,,f,blue,5ea302aeb39fb424ac3b7e36,2021-09-27_14h31.13.211,forced_choiceRT_color,2021.2.3,MacIntel,60.0024001,,,,,,,,9,Ontime,short,f,1,2.0841,0,3,3,1,1,,,,,
,1.16,,,,,,,,,j,red,5ea302aeb39fb424ac3b7e36,2021-09-27_14h31.13.211,forced_choiceRT_color,2021.2.3,MacIntel,60.0024001,,,,,,,,9,Ontime,short,j,1,1.9968,1,0,4,2,1,,,,,
,1.9,,,,,,,,,d,orange,5ea302aeb39fb424ac3b7e36,2021-09-27_14h31.13.211,forced_choiceRT_color,2021.2.3,MacIntel,60.0024001,,,,,,,,9,Ontime,short,k,0,1.958,1,1,5,0,1,,,,,
,0.76,,,,,,,,,f,blue,5ea302aeb39fb424ac3b7e36,2021-09-27_14h31.13.211,forced_choiceRT_color,2021.2.3,MacIntel,60.0024001,,,,,,,,9,Fast,short,f,1,1.8519,1,2,6,1,1,,,,,
,1.99,,,,,,,,,f,blue,5ea302aeb39fb424ac3b7e36,2021-09-27_14h31.13.211,forced_choiceRT_color,2021.2.3,MacIntel,60.0024001,,,,,,,,9,Slow,short,k,0,2.1212,1,3,7,1,1,,,,,
,1.4,,,,,,,,,f,blue,5ea302aeb39fb424ac3b7e36,2021-09-27_14h31.13.211,forced_choiceRT_color,2021.2.3,MacIntel,60.0024001,,,,,,,,9,Ontime,short,f,1,2.0383,2,0,8,1,1,,,,,
,1.3,,,,,,,,,f,blue,5ea302aeb39fb424ac3b7e36,2021-09-27_14h31.13.211,forced_choiceRT_color,2021.2.3,MacIntel,60.0024001,,,,,,,,9,Ontime,short,f,1,1.9225,2,1,9,1,1,,,,,
,0.08,,,,,,,,,d,orange,5ea302aeb39fb424ac3b7e36,2021-09-27_14h31.13.211,forced_choiceRT_color,2021.2.3,MacIntel,60.0024001,,,,,,,,9,Ontime,short,d,1,1.951,2,2,10,0,1,,,,,
,0.35,,,,,,,,,j,red,5ea302aeb39fb424ac3b7e36,2021-09-27_14h31.13.211,forced_choiceRT_color,2021.2.3,MacIntel,60.0024001,,,,,,,,9,Ontime,short,j,1,1.9338,2,3,11,2,1,,,,,
,0.3,,,,,,,,,d,orange,5ea302aeb39fb424ac3b7e36,2021-09-27_14h31.13.211,forced_choiceRT_color,2021.2.3,MacIntel,60.0024001,,,,,,,,9,Ontime,short,d,1,1.946,3,0,12,0,1,,,,,
,1.53,,,,,,,,,k,purple,5ea302aeb39fb424ac3b7e36,2021-09-27_14h31.13.211,forced_choiceRT_color,2021.2.3,MacIntel,60.0024001,,,,,,,,9,Ontime,short,k,1,1.9409,3,1,13,3,1,,,,,
,0.42,,,,,,,,,f,blue,5ea302aeb39fb424ac3b7e36,2021-09-27_14h31.13.211,forced_choiceRT_color,2021.2.3,MacIntel,60.0024001,,,,,,,,9,Ontime,short,f,1,2.0079,3,2,14,1,1,,,,,
,1.99,,,,,,,,,d,orange,5ea302aeb39fb424ac3b7e36,2021-09-27_14h31.13.211,forced_choiceRT_color,2021.2.3,MacIntel,60.0024001,,,,,,,,9,Ontime,short,k,0,2.0185,3,3,15,0,1,,,,,
,1.43,,,,,,,,,j,red,5ea302aeb39fb424ac3b7e36,2021-09-27_14h31.13.211,forced_choiceRT_color,2021.2.3,MacIntel,60.0024001,,,,,,,,9,Ontime,short,j,1,2.0528,4,0,16,2,1,,,,,
,0.24,,,,,,,,,d,orange,5ea302aeb39fb424ac3b7e36,2021-09-27_14h31.13.211,forced_choiceRT_color,2021.2.3,MacIntel,60.0024001,,,,,,,,9,Ontime,short,d,1,2.0133,4,1,17,0,1,,,,,
,0.62,,,,,,,,,f,blue,5ea302aeb39fb424ac3b7e36,2021-09-27_14h31.13.211,forced_choiceRT_color,2021.2.3,MacIntel,60.0024001,,,,,,,,9,Ontime,short,f,1,2.0112,4,2,18,1,1,,,,,
,0.9,,,,,,,,,f,blue,5ea302aeb39fb424ac3b7e36,2021-09-27_14h31.13.211,forced_choiceRT_color,2021.2.3,MacIntel,60.0024001,,,,,,,,9,Ontime,short,f,1,2.0597,4,3,19,1,1,,,,,
,1.55,,,,,,,,,f,blue,5ea302aeb39fb424ac3b7e36,2021-09-27_14h31.13.211,forced_choiceRT_color,2021.2.3,MacIntel,60.0024001,,,,,,,,9,Fast,short,f,1,1.8919,5,0,20,1,1,,,,,
,0.1,,,,,,,,,j,red,5ea302aeb39fb424ac3b7e36,2021-09-27_14h31.13.211,forced_choiceRT_color,2021.2.3,MacIntel,60.0024001,,,,,,,,9,Ontime,short,j,1,1.9883,5,1,21,2,1,,,,,
,0.82,,,,,,,,,d,orange,5ea302aeb39fb424ac3b7e36,2021-09-27_14h31.13.211,forced_choiceRT_color,2021.2.3,MacIntel,60.0024001,,,,,,,,9,Ontime,short,d,1,2.0061,5,2,22,0,1,,,,,
,1.21,,,,,,,,,d,orange,5ea302aeb39fb424ac3b7e36,2021-09-27_14h31.13.211,forced_choiceRT_color,2021.2.3,MacIntel,60.0024001,,,,,,,,9,Fast,short,d,1,1.8378,5,3,23,0,1,,,,,
,1.43,,,,,,,,,k,purple,5ea302aeb39fb424ac3b7e36,2021-09-27_14h31.13.211,forced_choiceRT_color,2021.2.3,MacIntel,60.0024001,,,,,,,,9,Ontime,short,k,1,2.006,6,0,24,3,1,,,,,
,1.77,,,,,,,,,k,purple,5ea302aeb39fb424ac3b7e36,2021-09-27_14h31.13.211,forced_choiceRT_color,2021.2.3,MacIntel,60.0024001,,,,,,,,9,Ontime,short,k,1,1.978,6,1,25,3,1,,,,,
,1.8,,,,,,,,,j,red,5ea302aeb39fb424ac3b7e36,2021-09-27_14h31.13.211,forced_choiceRT_color,2021.2.3,MacIntel,60.0024001,,,,,,,,9,Ontime,short,k,0,1.9577,6,2,26,2,1,,,,,
,0.21,,,,,,,,,j,red,5ea302aeb39fb424ac3b7e36,2021-09-27_14h31.13.211,forced_choiceRT_color,2021.2.3,MacIntel,60.0024001,,,,,,,,9,Ontime,short,j,1,1.9036,6,3,27,2,1,,,,,
,1.46,,,,,,,,,j,red,5ea302aeb39fb424ac3b7e36,2021-09-27_14h31.13.211,forced_choiceRT_color,2021.2.3,MacIntel,60.0024001,,,,,,,,9,Ontime,short,j,1,2.0218,7,0,28,2,1,,,,,
,0.84,,,,,,,,,k,purple,5ea302aeb39fb424ac3b7e36,2021-09-27_14h31.13.211,forced_choiceRT_color,2021.2.3,MacIntel,60.0024001,,,,,,,,9,Ontime,short,k,1,2.0352,7,1,29,3,1,,,,,
,0.11,,,,,,,,,d,orange,5ea302aeb39fb424ac3b7e36,2021-09-27_14h31.13.211,forced_choiceRT_color,2021.2.3,MacIntel,60.0024001,,,,,,,,9,Ontime,short,d,1,2.0523,7,2,30,0,1,,,,,
,0.22,,,,,,,,,k,purple,5ea302aeb39fb424ac3b7e36,2021-09-27_14h31.13.211,forced_choiceRT_color,2021.2.3,MacIntel,60.0024001,,,,,,,,9,Ontime,short,k,1,2.0359,7,3,31,3,1,,,,,
,1.99,,,,,,,,,k,purple,5ea302aeb39fb424ac3b7e36,2021-09-27_14h31.13.211,forced_choiceRT_color,2021.2.3,MacIntel,60.0024001,,,,,,,,9,Fast,short,k,1,1.7346,8,0,32,3,1,,,,,
,1.15,,,,,,,,,d,orange,5ea302aeb39fb424ac3b7e36,2021-09-27_14h31.13.211,forced_choiceRT_color,2021.2.3,MacIntel,60.0024001,,,,,,,,9,Ontime,short,d,1,1.9249,8,1,33,0,1,,,,,
,1.95,,,,,,,,,d,orange,5ea302aeb39fb424ac3b7e36,2021-09-27_14h31.13.211,forced_choiceRT_color,2021.2.3,MacIntel,60.0024001,,,,,,,,9,Slow,short,k,0,2.2628,8,2,34,0,1,,,,,
,1.52,,,,,,,,,f,blue,5ea302aeb39fb424ac3b7e36,2021-09-27_14h31.13.211,forced_choiceRT_color,2021.2.3,MacIntel,60.0024001,,,,,,,,9,Ontime,short,j,0,2.0513,8,3,35,1,1,,,,,
,0.81,,,,,,,,,k,purple,5ea302aeb39fb424ac3b7e36,2021-09-27_14h31.13.211,forced_choiceRT_color,2021.2.3,MacIntel,60.0024001,,,,,,,,9,Ontime,short,k,1,2.0501,9,0,36,3,1,,,,,
,0.05,,,,,,,,,j,red,5ea302aeb39fb424ac3b7e36,2021-09-27_14h31.13.211,forced_choiceRT_color,2021.2.3,MacIntel,60.0024001,,,,,,,,9,Ontime,short,j,1,1.9697,9,1,37,2,1,,,,,
,0.76,,,,,,,,,j,red,5ea302aeb39fb424ac3b7e36,2021-09-27_14h31.13.211,forced_choiceRT_color,2021.2.3,MacIntel,60.0024001,,,,,,,,9,Ontime,short,j,1,2.0112,9,2,38,2,1,,,,,
,1.32,,,,,,,,,j,red,5ea302aeb39fb424ac3b7e36,2021-09-27_14h31.13.211,forced_choiceRT_color,2021.2.3,MacIntel,60.0024001,,,,,,,,9,Ontime,short,j,1,1.9734,9,3,39,2,1,,,,,
,,,,,,,,,,,,5ea302aeb39fb424ac3b7e36,2021-09-27_14h31.13.211,forced_choiceRT_color,2021.2.3,MacIntel,60.0024001,,,,,,,,,,,,,,,,,,,8,0,8,0,1
,0.92,,,,,,,,,j,red,5ea302aeb39fb424ac3b7e36,2021-09-27_14h31.13.211,forced_choiceRT_color,2021.2.3,MacIntel,60.0024001,,,,,,,,10,Ontime,short,j,1,1.9546,0,0,0,2,1,,,,,
,1.78,,,,,,,,,j,red,5ea302aeb39fb424ac3b7e36,2021-09-27_14h31.13.211,forced_choiceRT_color,2021.2.3,MacIntel,60.0024001,,,,,,,,10,Slow,short,k,0,2.1226,0,1,1,2,1,,,,,
,0.32,,,,,,,,,d,orange,5ea302aeb39fb424ac3b7e36,2021-09-27_14h31.13.211,forced_choiceRT_color,2021.2.3,MacIntel,60.0024001,,,,,,,,10,Ontime,short,d,1,1.9829,0,2,2,0,1,,,,,
,1.24,,,,,,,,,j,red,5ea302aeb39fb424ac3b7e36,2021-09-27_14h31.13.211,forced_choiceRT_color,2021.2.3,MacIntel,60.0024001,,,,,,,,10,Ontime,short,j,1,1.9194,0,3,3,2,1,,,,,
,1.71,,,,,,,,,f,blue,5ea302aeb39fb424ac3b7e36,2021-09-27_14h31.13.211,forced_choiceRT_color,2021.2.3,MacIntel,60.0024001,,,,,,,,10,Ontime,short,j,0,2.0726,1,0,4,1,1,,,,,
,0.14,,,,,,,,,d,orange,5ea302aeb39fb424ac3b7e36,2021-09-27_14h31.13.211,forced_choiceRT_color,2021.2.3,MacIntel,60.0024001,,,,,,,,10,Ontime,short,d,1,2.075,1,1,5,0,1,,,,,
,1.01,,,,,,,,,d,orange,5ea302aeb39fb424ac3b7e36,2021-09-27_14h31.13.211,forced_choiceRT_color,2021.2.3,MacIntel,60.0024001,,,,,,,,10,Slow,short,d,1,2.1143,1,2,6,0,1,,,,,
,0.08,,,,,,,,,f,blue,5ea302aeb39fb424ac3b7e36,2021-09-27_14h31.13.211,forced_choiceRT_color,2021.2.3,MacIntel,60.0024001,,,,,,,,10,Fast,short,f,1,1.8845,1,3,7,1,1,,,,,
,1.94,,,,,,,,,j,red,5ea302aeb39fb424ac3b7e36,2021-09-27_14h31.13.211,forced_choiceRT_color,2021.2.3,MacIntel,60.0024001,,,,,,,,10,Ontime,short,k,0,2.005,2,0,8,2,1,,,,,
,1.12,,,,,,,,,k,purple,5ea302aeb39fb424ac3b7e36,2021-09-27_14h31.13.211,forced_choiceRT_color,2021.2.3,MacIntel,60.0024001,,,,,,,,10,Ontime,short,k,1,1.9993,2,1,9,3,1,,,,,
,1.24,,,,,,,,,d,orange,5ea302aeb39fb424ac3b7e36,2021-09-27_14h31.13.211,forced_choiceRT_color,2021.2.3,MacIntel,60.0024001,,,,,,,,10,Ontime,short,d,1,1.9466,2,2,10,0,1,,,,,
,1.18,,,,,,,,,f,blue,5ea302aeb39fb424ac3b7e36,2021-09-27_14h31.13.211,forced_choiceRT_color,2021.2.3,MacIntel,60.0024001,,,,,,,,10,Fast,short,f,1,1.8668,2,3,11,1,1,,,,,
,0.77,,,,,,,,,k,purple,5ea302aeb39fb424ac3b7e36,2021-09-27_14h31.13.211,forced_choiceRT_color,2021.2.3,MacIntel,60.0024001,,,,,,,,10,Ontime,short,k,1,1.9504,3,0,12,3,1,,,,,
,0.17,,,,,,,,,f,blue,5ea302aeb39fb424ac3b7e36,2021-09-27_14h31.13.211,forced_choiceRT_color,2021.2.3,MacIntel,60.0024001,,,,,,,,10,Fast,short,f,1,1.8562,3,1,13,1,1,,,,,
,1.56,,,,,,,,,j,red,5ea302aeb39fb424ac3b7e36,2021-09-27_14h31.13.211,forced_choiceRT_color,2021.2.3,MacIntel,60.0024001,,,,,,,,10,Slow,short,j,1,2.2457,3,2,14,2,1,,,,,
,1.19,,,,,,,,,f,blue,5ea302aeb39fb424ac3b7e36,2021-09-27_14h31.13.211,forced_choiceRT_color,2021.2.3,MacIntel,60.0024001,,,,,,,,10,Fast,short,f,1,1.8885,3,3,15,1,1,,,,,
,0.06,,,,,,,,,k,purple,5ea302aeb39fb424ac3b7e36,2021-09-27_14h31.13.211,forced_choiceRT_color,2021.2.3,MacIntel,60.0024001,,,,,,,,10,Fast,short,k,1,1.8564,4,0,16,3,1,,,,,
,0.34,,,,,,,,,d,orange,5ea302aeb39fb424ac3b7e36,2021-09-27_14h31.13.211,forced_choiceRT_color,2021.2.3,MacIntel,60.0024001,,,,,,,,10,Fast,short,d,1,1.8958,4,1,17,0,1,,,,,
,1.6,,,,,,,,,f,blue,5ea302aeb39fb424ac3b7e36,2021-09-27_14h31.13.211,forced_choiceRT_color,2021.2.3,MacIntel,60.0024001,,,,,,,,10,Fast,short,k,0,1.8747,4,2,18,1,1,,,,,
,0.3,,,,,,,,,j,red,5ea302aeb39fb424ac3b7e36,2021-09-27_14h31.13.211,forced_choiceRT_color,2021.2.3,MacIntel,60.0024001,,,,,,,,10,Ontime,short,j,1,1.9747,4,3,19,2,1,,,,,
,0.15,,,,,,,,,d,orange,5ea302aeb39fb424ac3b7e36,2021-09-27_14h31.13.211,forced_choiceRT_color,2021.2.3,MacIntel,60.0024001,,,,,,,,10,Fast,short,d,1,1.4615,5,0,20,0,1,,,,,
,1.93,,,,,,,,,j,red,5ea302aeb39fb424ac3b7e36,2021-09-27_14h31.13.211,forced_choiceRT_color,2021.2.3,MacIntel,60.0024001,,,,,,,,10,Slow,short,j,1,2.2186,5,1,21,2,1,,,,,
,1.95,,,,,,,,,k,purple,5ea302aeb39fb424ac3b7e36,2021-09-27_14h31.13.211,forced_choiceRT_color,2021.2.3,MacIntel,60.0024001,,,,,,,,10,Ontime,short,k,1,2.0808,5,2,22,3,1,,,,,
,1.35,,,,,,,,,k,purple,5ea302aeb39fb424ac3b7e36,2021-09-27_14h31.13.211,forced_choiceRT_color,2021.2.3,MacIntel,60.0024001,,,,,,,,10,Ontime,short,k,1,2.0196,5,3,23,3,1,,,,,
,1.18,,,,,,,,,j,red,5ea302aeb39fb424ac3b7e36,2021-09-27_14h31.13.211,forced_choiceRT_color,2021.2.3,MacIntel,60.0024001,,,,,,,,10,Ontime,short,j,1,1.9494,6,0,24,2,1,,,,,
,0.17,,,,,,,,,k,purple,5ea302aeb39fb424ac3b7e36,2021-09-27_14h31.13.211,forced_choiceRT_color,2021.2.3,MacIntel,60.0024001,,,,,,,,10,Fast,short,k,1,1.8982,6,1,25,3,1,,,,,
,0.28,,,,,,,,,k,purple,5ea302aeb39fb424ac3b7e36,2021-09-27_14h31.13.211,forced_choiceRT_color,2021.2.3,MacIntel,60.0024001,,,,,,,,10,Ontime,short,k,1,1.9329,6,2,26,3,1,,,,,
,1.64,,,,,,,,,k,purple,5ea302aeb39fb424ac3b7e36,2021-09-27_14h31.13.211,forced_choiceRT_color,2021.2.3,MacIntel,60.0024001,,,,,,,,10,Ontime,short,k,1,2.0051,6,3,27,3,1,,,,,
,1.01,,,,,,,,,j,red,5ea302aeb39fb424ac3b7e36,2021-09-27_14h31.13.211,forced_choiceRT_color,2021.2.3,MacIntel,60.0024001,,,,,,,,10,Ontime,short,j,1,1.9828,7,0,28,2,1,,,,,
,0.25,,,,,,,,,k,purple,5ea302aeb39fb424ac3b7e36,2021-09-27_14h31.13.211,forced_choiceRT_color,2021.2.3,MacIntel,60.0024001,,,,,,,,10,Ontime,short,k,1,1.9657,7,1,29,3,1,,,,,
,1.94,,,,,,,,,f,blue,5ea302aeb39fb424ac3b7e36,2021-09-27_14h31.13.211,forced_choiceRT_color,2021.2.3,MacIntel,60.0024001,,,,,,,,10,Ontime,short,k,0,1.9781,7,2,30,1,1,,,,,
,1.55,,,,,,,,,f,blue,5ea302aeb39fb424ac3b7e36,2021-09-27_14h31.13.211,forced_choiceRT_color,2021.2.3,MacIntel,60.0024001,,,,,,,,10,Ontime,short,k,0,2.0283,7,3,31,1,1,,,,,
,0.85,,,,,,,,,d,orange,5ea302aeb39fb424ac3b7e36,2021-09-27_14h31.13.211,forced_choiceRT_color,2021.2.3,MacIntel,60.0024001,,,,,,,,10,Ontime,short,d,1,2.0177,8,0,32,0,1,,,,,
,0.22,,,,,,,,,j,red,5ea302aeb39fb424ac3b7e36,2021-09-27_14h31.13.211,forced_choiceRT_color,2021.2.3,MacIntel,60.0024001,,,,,,,,10,Ontime,short,j,1,1.9275,8,1,33,2,1,,,,,
,1.36,,,,,,,,,d,orange,5ea302aeb39fb424ac3b7e36,2021-09-27_14h31.13.211,forced_choiceRT_color,2021.2.3,MacIntel,60.0024001,,,,,,,,10,Ontime,short,d,1,2.0656,8,2,34,0,1,,,,,
,0.69,,,,,,,,,d,orange,5ea302aeb39fb424ac3b7e36,2021-09-27_14h31.13.211,forced_choiceRT_color,2021.2.3,MacIntel,60.0024001,,,,,,,,10,Ontime,short,d,1,2.0024,8,3,35,0,1,,,,,
,0.72,,,,,,,,,f,blue,5ea302aeb39fb424ac3b7e36,2021-09-27_14h31.13.211,forced_choiceRT_color,2021.2.3,MacIntel,60.0024001,,,,,,,,10,Fast,short,f,1,1.8514,9,0,36,1,1,,,,,
,0.5,,,,,,,,,d,orange,5ea302aeb39fb424ac3b7e36,2021-09-27_14h31.13.211,forced_choiceRT_color,2021.2.3,MacIntel,60.0024001,,,,,,,,10,Ontime,short,d,1,1.9336,9,1,37,0,1,,,,,
,0.07,,,,,,,,,f,blue,5ea302aeb39fb424ac3b7e36,2021-09-27_14h31.13.211,forced_choiceRT_color,2021.2.3,MacIntel,60.0024001,,,,,,,,10,Ontime,short,f,1,1.9927,9,2,38,1,1,,,,,
,1.02,,,,,,,,,k,purple,5ea302aeb39fb424ac3b7e36,2021-09-27_14h31.13.211,forced_choiceRT_color,2021.2.3,MacIntel,60.0024001,,,,,,,,10,Ontime,short,k,1,2.0232,9,3,39,3,1,,,,,
,,,,,,,,,,,,5ea302aeb39fb424ac3b7e36,2021-09-27_14h31.13.211,forced_choiceRT_color,2021.2.3,MacIntel,60.0024001,,,,,,,,,,,,,,,,,,,9,0,9,0,1
