target_onset,trial_resp_sp.keys,trial_resp_sp.corr,trial_resp_sp.rt,trials_train_loop.thisRepN,trials_train_loop.thisTrialN,trials_train_loop.thisN,trials_train_loop.thisIndex,trials_train_loop.ran,correct_key,color,participant,date,expName,psychopyVersion,OS,frameRate,trial_resp_timing.keys,trial_resp_timing.rt,trials_train_timing.thisRepN,trials_train_timing.thisTrialN,trials_train_timing.thisN,trials_train_timing.thisIndex,trials_train_timing.ran,block_id,ontime,feedback_cond,forcedRT_resp.keys,forcedRT_resp.corr,forcedRT_resp.rt,trials.thisRepN,trials.thisTrialN,trials.thisN,trials.thisIndex,trials.ran,blocks.thisRepN,blocks.thisTrialN,blocks.thisN,blocks.thisIndex,blocks.ran
0,j,1,0.6413,0,0,0,2,1,j,red,5eba75d1758c7a1cffb62685,2021-09-28_09h41.43.532,forced_choiceRT_color,2021.2.3,Win32,94.87666034,,,,,,,,,,,,,,,,,,,,,,,
0,k,1,0.5804,0,1,1,3,1,k,purple,5eba75d1758c7a1cffb62685,2021-09-28_09h41.43.532,forced_choiceRT_color,2021.2.3,Win32,94.87666034,,,,,,,,,,,,,,,,,,,,,,,
0,k,1,0.4253,0,2,2,3,1,k,purple,5eba75d1758c7a1cffb62685,2021-09-28_09h41.43.532,forced_choiceRT_color,2021.2.3,Win32,94.87666034,,,,,,,,,,,,,,,,,,,,,,,
0,j,1,0.5157,0,3,3,2,1,j,red,5eba75d1758c7a1cffb62685,2021-09-28_09h41.43.532,forced_choiceRT_color,2021.2.3,Win32,94.87666034,,,,,,,,,,,,,,,,,,,,,,,
0,d,1,0.7399,1,0,4,0,1,d,orange,5eba75d1758c7a1cffb62685,2021-09-28_09h41.43.532,forced_choiceRT_color,2021.2.3,Win32,94.87666034,,,,,,,,,,,,,,,,,,,,,,,
0,d,1,0.3956,1,1,5,0,1,d,orange,5eba75d1758c7a1cffb62685,2021-09-28_09h41.43.532,forced_choiceRT_color,2021.2.3,Win32,94.87666034,,,,,,,,,,,,,,,,,,,,,,,
0,f,1,0.4597,1,2,6,1,1,f,blue,5eba75d1758c7a1cffb62685,2021-09-28_09h41.43.532,forced_choiceRT_color,2021.2.3,Win32,94.87666034,,,,,,,,,,,,,,,,,,,,,,,
0,j,1,0.4114,1,3,7,2,1,j,red,5eba75d1758c7a1cffb62685,2021-09-28_09h41.43.532,forced_choiceRT_color,2021.2.3,Win32,94.87666034,,,,,,,,,,,,,,,,,,,,,,,
0,f,1,0.5584,2,0,8,1,1,f,blue,5eba75d1758c7a1cffb62685,2021-09-28_09h41.43.532,forced_choiceRT_color,2021.2.3,Win32,94.87666034,,,,,,,,,,,,,,,,,,,,,,,
0,f,1,0.4351,2,1,9,1,1,f,blue,5eba75d1758c7a1cffb62685,2021-09-28_09h41.43.532,forced_choiceRT_color,2021.2.3,Win32,94.87666034,,,,,,,,,,,,,,,,,,,,,,,
0,f,1,0.3702,2,2,10,1,1,f,blue,5eba75d1758c7a1cffb62685,2021-09-28_09h41.43.532,forced_choiceRT_color,2021.2.3,Win32,94.87666034,,,,,,,,,,,,,,,,,,,,,,,
0,d,1,0.3431,2,3,11,0,1,d,orange,5eba75d1758c7a1cffb62685,2021-09-28_09h41.43.532,forced_choiceRT_color,2021.2.3,Win32,94.87666034,,,,,,,,,,,,,,,,,,,,,,,
0,j,1,0.3563,3,0,12,2,1,j,red,5eba75d1758c7a1cffb62685,2021-09-28_09h41.43.532,forced_choiceRT_color,2021.2.3,Win32,94.87666034,,,,,,,,,,,,,,,,,,,,,,,
0,d,1,0.4754,3,1,13,0,1,d,orange,5eba75d1758c7a1cffb62685,2021-09-28_09h41.43.532,forced_choiceRT_color,2021.2.3,Win32,94.87666034,,,,,,,,,,,,,,,,,,,,,,,
0,f,1,0.4101,3,2,14,1,1,f,blue,5eba75d1758c7a1cffb62685,2021-09-28_09h41.43.532,forced_choiceRT_color,2021.2.3,Win32,94.87666034,,,,,,,,,,,,,,,,,,,,,,,
0,d,1,0.4473,3,3,15,0,1,d,orange,5eba75d1758c7a1cffb62685,2021-09-28_09h41.43.532,forced_choiceRT_color,2021.2.3,Win32,94.87666034,,,,,,,,,,,,,,,,,,,,,,,
0,f,1,0.387,4,0,16,1,1,f,blue,5eba75d1758c7a1cffb62685,2021-09-28_09h41.43.532,forced_choiceRT_color,2021.2.3,Win32,94.87666034,,,,,,,,,,,,,,,,,,,,,,,
0,j,1,0.4835,4,1,17,2,1,j,red,5eba75d1758c7a1cffb62685,2021-09-28_09h41.43.532,forced_choiceRT_color,2021.2.3,Win32,94.87666034,,,,,,,,,,,,,,,,,,,,,,,
0,j,1,0.3899,4,2,18,2,1,j,red,5eba75d1758c7a1cffb62685,2021-09-28_09h41.43.532,forced_choiceRT_color,2021.2.3,Win32,94.87666034,,,,,,,,,,,,,,,,,,,,,,,
0,j,1,0.3521,4,3,19,2,1,j,red,5eba75d1758c7a1cffb62685,2021-09-28_09h41.43.532,forced_choiceRT_color,2021.2.3,Win32,94.87666034,,,,,,,,,,,,,,,,,,,,,,,
0,f,1,0.4505,5,0,20,1,1,f,blue,5eba75d1758c7a1cffb62685,2021-09-28_09h41.43.532,forced_choiceRT_color,2021.2.3,Win32,94.87666034,,,,,,,,,,,,,,,,,,,,,,,
0,j,1,0.4218,5,1,21,2,1,j,red,5eba75d1758c7a1cffb62685,2021-09-28_09h41.43.532,forced_choiceRT_color,2021.2.3,Win32,94.87666034,,,,,,,,,,,,,,,,,,,,,,,
0,d,1,0.4525,5,2,22,0,1,d,orange,5eba75d1758c7a1cffb62685,2021-09-28_09h41.43.532,forced_choiceRT_color,2021.2.3,Win32,94.87666034,,,,,,,,,,,,,,,,,,,,,,,
0,f,1,0.5675,5,3,23,1,1,f,blue,5eba75d1758c7a1cffb62685,2021-09-28_09h41.43.532,forced_choiceRT_color,2021.2.3,Win32,94.87666034,,,,,,,,,,,,,,,,,,,,,,,
0,j,1,0.3908,6,0,24,2,1,j,red,5eba75d1758c7a1cffb62685,2021-09-28_09h41.43.532,forced_choiceRT_color,2021.2.3,Win32,94.87666034,,,,,,,,,,,,,,,,,,,,,,,
0,f,1,0.4721,6,1,25,1,1,f,blue,5eba75d1758c7a1cffb62685,2021-09-28_09h41.43.532,forced_choiceRT_color,2021.2.3,Win32,94.87666034,,,,,,,,,,,,,,,,,,,,,,,
0,k,1,0.6126,6,2,26,3,1,k,purple,5eba75d1758c7a1cffb62685,2021-09-28_09h41.43.532,forced_choiceRT_color,2021.2.3,Win32,94.87666034,,,,,,,,,,,,,,,,,,,,,,,
0,k,1,0.4009,6,3,27,3,1,k,purple,5eba75d1758c7a1cffb62685,2021-09-28_09h41.43.532,forced_choiceRT_color,2021.2.3,Win32,94.87666034,,,,,,,,,,,,,,,,,,,,,,,
0,d,1,0.4469,7,0,28,0,1,d,orange,5eba75d1758c7a1cffb62685,2021-09-28_09h41.43.532,forced_choiceRT_color,2021.2.3,Win32,94.87666034,,,,,,,,,,,,,,,,,,,,,,,
0,k,1,0.4913,7,1,29,3,1,k,purple,5eba75d1758c7a1cffb62685,2021-09-28_09h41.43.532,forced_choiceRT_color,2021.2.3,Win32,94.87666034,,,,,,,,,,,,,,,,,,,,,,,
0,j,1,0.4135,7,2,30,2,1,j,red,5eba75d1758c7a1cffb62685,2021-09-28_09h41.43.532,forced_choiceRT_color,2021.2.3,Win32,94.87666034,,,,,,,,,,,,,,,,,,,,,,,
0,j,1,0.362,7,3,31,2,1,j,red,5eba75d1758c7a1cffb62685,2021-09-28_09h41.43.532,forced_choiceRT_color,2021.2.3,Win32,94.87666034,,,,,,,,,,,,,,,,,,,,,,,
0,d,1,0.4517,8,0,32,0,1,d,orange,5eba75d1758c7a1cffb62685,2021-09-28_09h41.43.532,forced_choiceRT_color,2021.2.3,Win32,94.87666034,,,,,,,,,,,,,,,,,,,,,,,
0,k,1,0.5482,8,1,33,3,1,k,purple,5eba75d1758c7a1cffb62685,2021-09-28_09h41.43.532,forced_choiceRT_color,2021.2.3,Win32,94.87666034,,,,,,,,,,,,,,,,,,,,,,,
0,k,1,0.4475,8,2,34,3,1,k,purple,5eba75d1758c7a1cffb62685,2021-09-28_09h41.43.532,forced_choiceRT_color,2021.2.3,Win32,94.87666034,,,,,,,,,,,,,,,,,,,,,,,
0,d,1,0.4997,8,3,35,0,1,d,orange,5eba75d1758c7a1cffb62685,2021-09-28_09h41.43.532,forced_choiceRT_color,2021.2.3,Win32,94.87666034,,,,,,,,,,,,,,,,,,,,,,,
0,k,1,0.4436,9,0,36,3,1,k,purple,5eba75d1758c7a1cffb62685,2021-09-28_09h41.43.532,forced_choiceRT_color,2021.2.3,Win32,94.87666034,,,,,,,,,,,,,,,,,,,,,,,
0,k,1,0.3685,9,1,37,3,1,k,purple,5eba75d1758c7a1cffb62685,2021-09-28_09h41.43.532,forced_choiceRT_color,2021.2.3,Win32,94.87666034,,,,,,,,,,,,,,,,,,,,,,,
0,d,1,0.4393,9,2,38,0,1,d,orange,5eba75d1758c7a1cffb62685,2021-09-28_09h41.43.532,forced_choiceRT_color,2021.2.3,Win32,94.87666034,,,,,,,,,,,,,,,,,,,,,,,
0,d,1,0.3332,9,3,39,0,1,d,orange,5eba75d1758c7a1cffb62685,2021-09-28_09h41.43.532,forced_choiceRT_color,2021.2.3,Win32,94.87666034,,,,,,,,,,,,,,,,,,,,,,,
0,f,1,0.5496,10,0,40,1,1,f,blue,5eba75d1758c7a1cffb62685,2021-09-28_09h41.43.532,forced_choiceRT_color,2021.2.3,Win32,94.87666034,,,,,,,,,,,,,,,,,,,,,,,
0,d,1,0.4641,10,1,41,0,1,d,orange,5eba75d1758c7a1cffb62685,2021-09-28_09h41.43.532,forced_choiceRT_color,2021.2.3,Win32,94.87666034,,,,,,,,,,,,,,,,,,,,,,,
0,f,1,0.4868,10,2,42,1,1,f,blue,5eba75d1758c7a1cffb62685,2021-09-28_09h41.43.532,forced_choiceRT_color,2021.2.3,Win32,94.87666034,,,,,,,,,,,,,,,,,,,,,,,
0,f,1,0.3386,10,3,43,1,1,f,blue,5eba75d1758c7a1cffb62685,2021-09-28_09h41.43.532,forced_choiceRT_color,2021.2.3,Win32,94.87666034,,,,,,,,,,,,,,,,,,,,,,,
0,f,1,0.3112,11,0,44,1,1,f,blue,5eba75d1758c7a1cffb62685,2021-09-28_09h41.43.532,forced_choiceRT_color,2021.2.3,Win32,94.87666034,,,,,,,,,,,,,,,,,,,,,,,
0,j,1,0.4205,11,1,45,2,1,j,red,5eba75d1758c7a1cffb62685,2021-09-28_09h41.43.532,forced_choiceRT_color,2021.2.3,Win32,94.87666034,,,,,,,,,,,,,,,,,,,,,,,
0,f,1,0.4547,11,2,46,1,1,f,blue,5eba75d1758c7a1cffb62685,2021-09-28_09h41.43.532,forced_choiceRT_color,2021.2.3,Win32,94.87666034,,,,,,,,,,,,,,,,,,,,,,,
0,k,1,0.5928,11,3,47,3,1,k,purple,5eba75d1758c7a1cffb62685,2021-09-28_09h41.43.532,forced_choiceRT_color,2021.2.3,Win32,94.87666034,,,,,,,,,,,,,,,,,,,,,,,
0,k,1,0.4094,12,0,48,3,1,k,purple,5eba75d1758c7a1cffb62685,2021-09-28_09h41.43.532,forced_choiceRT_color,2021.2.3,Win32,94.87666034,,,,,,,,,,,,,,,,,,,,,,,
0,k,1,0.3175,12,1,49,3,1,k,purple,5eba75d1758c7a1cffb62685,2021-09-28_09h41.43.532,forced_choiceRT_color,2021.2.3,Win32,94.87666034,,,,,,,,,,,,,,,,,,,,,,,
0,k,1,0.3282,12,2,50,3,1,k,purple,5eba75d1758c7a1cffb62685,2021-09-28_09h41.43.532,forced_choiceRT_color,2021.2.3,Win32,94.87666034,,,,,,,,,,,,,,,,,,,,,,,
0,d,1,0.473,12,3,51,0,1,d,orange,5eba75d1758c7a1cffb62685,2021-09-28_09h41.43.532,forced_choiceRT_color,2021.2.3,Win32,94.87666034,,,,,,,,,,,,,,,,,,,,,,,
0,j,1,0.4931,13,0,52,2,1,j,red,5eba75d1758c7a1cffb62685,2021-09-28_09h41.43.532,forced_choiceRT_color,2021.2.3,Win32,94.87666034,,,,,,,,,,,,,,,,,,,,,,,
0,f,0,0.5174,13,1,53,0,1,d,orange,5eba75d1758c7a1cffb62685,2021-09-28_09h41.43.532,forced_choiceRT_color,2021.2.3,Win32,94.87666034,,,,,,,,,,,,,,,,,,,,,,,
0,k,1,0.5689,13,2,54,3,1,k,purple,5eba75d1758c7a1cffb62685,2021-09-28_09h41.43.532,forced_choiceRT_color,2021.2.3,Win32,94.87666034,,,,,,,,,,,,,,,,,,,,,,,
0,j,1,0.5024,13,3,55,2,1,j,red,5eba75d1758c7a1cffb62685,2021-09-28_09h41.43.532,forced_choiceRT_color,2021.2.3,Win32,94.87666034,,,,,,,,,,,,,,,,,,,,,,,
0,k,1,0.5021,14,0,56,3,1,k,purple,5eba75d1758c7a1cffb62685,2021-09-28_09h41.43.532,forced_choiceRT_color,2021.2.3,Win32,94.87666034,,,,,,,,,,,,,,,,,,,,,,,
0,d,1,0.4457,14,1,57,0,1,d,orange,5eba75d1758c7a1cffb62685,2021-09-28_09h41.43.532,forced_choiceRT_color,2021.2.3,Win32,94.87666034,,,,,,,,,,,,,,,,,,,,,,,
0,j,1,0.4261,14,2,58,2,1,j,red,5eba75d1758c7a1cffb62685,2021-09-28_09h41.43.532,forced_choiceRT_color,2021.2.3,Win32,94.87666034,,,,,,,,,,,,,,,,,,,,,,,
0,f,1,0.484,14,3,59,1,1,f,blue,5eba75d1758c7a1cffb62685,2021-09-28_09h41.43.532,forced_choiceRT_color,2021.2.3,Win32,94.87666034,,,,,,,,,,,,,,,,,,,,,,,
,,,,,,,,,,,5eba75d1758c7a1cffb62685,2021-09-28_09h41.43.532,forced_choiceRT_color,2021.2.3,Win32,94.87666034,j,2.2676,0,0,0,0,1,,,,,,,,,,,,,,,,
,,,,,,,,,,,5eba75d1758c7a1cffb62685,2021-09-28_09h41.43.532,forced_choiceRT_color,2021.2.3,Win32,94.87666034,j,1.9307,1,0,1,0,1,,,,,,,,,,,,,,,,
,,,,,,,,,,,5eba75d1758c7a1cffb62685,2021-09-28_09h41.43.532,forced_choiceRT_color,2021.2.3,Win32,94.87666034,j,1.9708,2,0,2,0,1,,,,,,,,,,,,,,,,
,,,,,,,,,,,5eba75d1758c7a1cffb62685,2021-09-28_09h41.43.532,forced_choiceRT_color,2021.2.3,Win32,94.87666034,j,1.9691,3,0,3,0,1,,,,,,,,,,,,,,,,
,,,,,,,,,,,5eba75d1758c7a1cffb62685,2021-09-28_09h41.43.532,forced_choiceRT_color,2021.2.3,Win32,94.87666034,j,1.9679,4,0,4,0,1,,,,,,,,,,,,,,,,
,,,,,,,,,,,5eba75d1758c7a1cffb62685,2021-09-28_09h41.43.532,forced_choiceRT_color,2021.2.3,Win32,94.87666034,f,1.924,5,0,5,0,1,,,,,,,,,,,,,,,,
,,,,,,,,,,,5eba75d1758c7a1cffb62685,2021-09-28_09h41.43.532,forced_choiceRT_color,2021.2.3,Win32,94.87666034,k,1.9345,6,0,6,0,1,,,,,,,,,,,,,,,,
,,,,,,,,,,,5eba75d1758c7a1cffb62685,2021-09-28_09h41.43.532,forced_choiceRT_color,2021.2.3,Win32,94.87666034,d,1.911,7,0,7,0,1,,,,,,,,,,,,,,,,
,,,,,,,,,,,5eba75d1758c7a1cffb62685,2021-09-28_09h41.43.532,forced_choiceRT_color,2021.2.3,Win32,94.87666034,k,1.9317,8,0,8,0,1,,,,,,,,,,,,,,,,
,,,,,,,,,,,5eba75d1758c7a1cffb62685,2021-09-28_09h41.43.532,forced_choiceRT_color,2021.2.3,Win32,94.87666034,d,1.9486,9,0,9,0,1,,,,,,,,,,,,,,,,
,,,,,,,,,,,5eba75d1758c7a1cffb62685,2021-09-28_09h41.43.532,forced_choiceRT_color,2021.2.3,Win32,94.87666034,f,1.8697,10,0,10,0,1,,,,,,,,,,,,,,,,
,,,,,,,,,,,5eba75d1758c7a1cffb62685,2021-09-28_09h41.43.532,forced_choiceRT_color,2021.2.3,Win32,94.87666034,j,1.9404,11,0,11,0,1,,,,,,,,,,,,,,,,
,,,,,,,,,,,5eba75d1758c7a1cffb62685,2021-09-28_09h41.43.532,forced_choiceRT_color,2021.2.3,Win32,94.87666034,f,1.979,12,0,12,0,1,,,,,,,,,,,,,,,,
,,,,,,,,,,,5eba75d1758c7a1cffb62685,2021-09-28_09h41.43.532,forced_choiceRT_color,2021.2.3,Win32,94.87666034,j,1.9353,13,0,13,0,1,,,,,,,,,,,,,,,,
,,,,,,,,,,,5eba75d1758c7a1cffb62685,2021-09-28_09h41.43.532,forced_choiceRT_color,2021.2.3,Win32,94.87666034,f,1.9791,14,0,14,0,1,,,,,,,,,,,,,,,,
,,,,,,,,,,,5eba75d1758c7a1cffb62685,2021-09-28_09h41.43.532,forced_choiceRT_color,2021.2.3,Win32,94.87666034,j,1.9828,15,0,15,0,1,,,,,,,,,,,,,,,,
,,,,,,,,,,,5eba75d1758c7a1cffb62685,2021-09-28_09h41.43.532,forced_choiceRT_color,2021.2.3,Win32,94.87666034,f,2.002,16,0,16,0,1,,,,,,,,,,,,,,,,
,,,,,,,,,,,5eba75d1758c7a1cffb62685,2021-09-28_09h41.43.532,forced_choiceRT_color,2021.2.3,Win32,94.87666034,k,1.928,17,0,17,0,1,,,,,,,,,,,,,,,,
,,,,,,,,,,,5eba75d1758c7a1cffb62685,2021-09-28_09h41.43.532,forced_choiceRT_color,2021.2.3,Win32,94.87666034,d,2.0085,18,0,18,0,1,,,,,,,,,,,,,,,,
,,,,,,,,,,,5eba75d1758c7a1cffb62685,2021-09-28_09h41.43.532,forced_choiceRT_color,2021.2.3,Win32,94.87666034,k,2.0205,19,0,19,0,1,,,,,,,,,,,,,,,,
1.6,,,,,,,,,k,purple,5eba75d1758c7a1cffb62685,2021-09-28_09h41.43.532,forced_choiceRT_color,2021.2.3,Win32,94.87666034,,,,,,,,1,Ontime,long,k,1,1.9848,0,0,0,3,1,,,,,
1.91,,,,,,,,,j,red,5eba75d1758c7a1cffb62685,2021-09-28_09h41.43.532,forced_choiceRT_color,2021.2.3,Win32,94.87666034,,,,,,,,1,Ontime,long,j,1,2.0455,0,1,1,2,1,,,,,
1.68,,,,,,,,,d,orange,5eba75d1758c7a1cffb62685,2021-09-28_09h41.43.532,forced_choiceRT_color,2021.2.3,Win32,94.87666034,,,,,,,,1,Slow,long,d,1,2.1815,0,2,2,0,1,,,,,
1.73,,,,,,,,,d,orange,5eba75d1758c7a1cffb62685,2021-09-28_09h41.43.532,forced_choiceRT_color,2021.2.3,Win32,94.87666034,,,,,,,,1,Ontime,long,f,0,1.9808,0,3,3,0,1,,,,,
0.18,,,,,,,,,d,orange,5eba75d1758c7a1cffb62685,2021-09-28_09h41.43.532,forced_choiceRT_color,2021.2.3,Win32,94.87666034,,,,,,,,1,Ontime,long,d,1,2.0026,1,0,4,0,1,,,,,
0.65,,,,,,,,,f,blue,5eba75d1758c7a1cffb62685,2021-09-28_09h41.43.532,forced_choiceRT_color,2021.2.3,Win32,94.87666034,,,,,,,,1,Ontime,long,f,1,1.9426,1,1,5,1,1,,,,,
1.41,,,,,,,,,j,red,5eba75d1758c7a1cffb62685,2021-09-28_09h41.43.532,forced_choiceRT_color,2021.2.3,Win32,94.87666034,,,,,,,,1,Ontime,long,j,1,1.9835,1,2,6,2,1,,,,,
0.21,,,,,,,,,f,blue,5eba75d1758c7a1cffb62685,2021-09-28_09h41.43.532,forced_choiceRT_color,2021.2.3,Win32,94.87666034,,,,,,,,1,Ontime,long,f,1,1.9905,1,3,7,1,1,,,,,
0.05,,,,,,,,,f,blue,5eba75d1758c7a1cffb62685,2021-09-28_09h41.43.532,forced_choiceRT_color,2021.2.3,Win32,94.87666034,,,,,,,,1,Ontime,long,f,1,1.9743,2,0,8,1,1,,,,,
1.36,,,,,,,,,f,blue,5eba75d1758c7a1cffb62685,2021-09-28_09h41.43.532,forced_choiceRT_color,2021.2.3,Win32,94.87666034,,,,,,,,1,Ontime,long,f,1,1.9434,2,1,9,1,1,,,,,
0.59,,,,,,,,,f,blue,5eba75d1758c7a1cffb62685,2021-09-28_09h41.43.532,forced_choiceRT_color,2021.2.3,Win32,94.87666034,,,,,,,,1,Ontime,long,f,1,1.9449,2,2,10,1,1,,,,,
0.33,,,,,,,,,k,purple,5eba75d1758c7a1cffb62685,2021-09-28_09h41.43.532,forced_choiceRT_color,2021.2.3,Win32,94.87666034,,,,,,,,1,Ontime,long,k,1,1.9626,2,3,11,3,1,,,,,
0.93,,,,,,,,,k,purple,5eba75d1758c7a1cffb62685,2021-09-28_09h41.43.532,forced_choiceRT_color,2021.2.3,Win32,94.87666034,,,,,,,,1,Ontime,long,k,1,1.9342,3,0,12,3,1,,,,,
0.68,,,,,,,,,d,orange,5eba75d1758c7a1cffb62685,2021-09-28_09h41.43.532,forced_choiceRT_color,2021.2.3,Win32,94.87666034,,,,,,,,1,Ontime,long,d,1,1.938,3,1,13,0,1,,,,,
1.16,,,,,,,,,d,orange,5eba75d1758c7a1cffb62685,2021-09-28_09h41.43.532,forced_choiceRT_color,2021.2.3,Win32,94.87666034,,,,,,,,1,Ontime,long,d,1,1.9104,3,2,14,0,1,,,,,
1.94,,,,,,,,,k,purple,5eba75d1758c7a1cffb62685,2021-09-28_09h41.43.532,forced_choiceRT_color,2021.2.3,Win32,94.87666034,,,,,,,,1,Ontime,long,d,0,1.9108,3,3,15,3,1,,,,,
1.65,,,,,,,,,d,orange,5eba75d1758c7a1cffb62685,2021-09-28_09h41.43.532,forced_choiceRT_color,2021.2.3,Win32,94.87666034,,,,,,,,1,Ontime,long,d,1,1.9434,4,0,16,0,1,,,,,
1.05,,,,,,,,,k,purple,5eba75d1758c7a1cffb62685,2021-09-28_09h41.43.532,forced_choiceRT_color,2021.2.3,Win32,94.87666034,,,,,,,,1,Fast,long,k,1,1.8734,4,1,17,3,1,,,,,
1.29,,,,,,,,,f,blue,5eba75d1758c7a1cffb62685,2021-09-28_09h41.43.532,forced_choiceRT_color,2021.2.3,Win32,94.87666034,,,,,,,,1,Ontime,long,f,1,1.9327,4,2,18,1,1,,,,,
1.44,,,,,,,,,d,orange,5eba75d1758c7a1cffb62685,2021-09-28_09h41.43.532,forced_choiceRT_color,2021.2.3,Win32,94.87666034,,,,,,,,1,Ontime,long,d,1,1.9046,4,3,19,0,1,,,,,
0.07,,,,,,,,,j,red,5eba75d1758c7a1cffb62685,2021-09-28_09h41.43.532,forced_choiceRT_color,2021.2.3,Win32,94.87666034,,,,,,,,1,Ontime,long,j,1,1.9566,5,0,20,2,1,,,,,
1.86,,,,,,,,,f,blue,5eba75d1758c7a1cffb62685,2021-09-28_09h41.43.532,forced_choiceRT_color,2021.2.3,Win32,94.87666034,,,,,,,,1,Ontime,long,j,0,1.9627,5,1,21,1,1,,,,,
1.33,,,,,,,,,j,red,5eba75d1758c7a1cffb62685,2021-09-28_09h41.43.532,forced_choiceRT_color,2021.2.3,Win32,94.87666034,,,,,,,,1,Ontime,long,j,1,1.9582,5,2,22,2,1,,,,,
1.45,,,,,,,,,j,red,5eba75d1758c7a1cffb62685,2021-09-28_09h41.43.532,forced_choiceRT_color,2021.2.3,Win32,94.87666034,,,,,,,,1,Ontime,long,j,1,1.9503,5,3,23,2,1,,,,,
1.73,,,,,,,,,k,purple,5eba75d1758c7a1cffb62685,2021-09-28_09h41.43.532,forced_choiceRT_color,2021.2.3,Win32,94.87666034,,,,,,,,1,Ontime,long,j,0,1.956,6,0,24,3,1,,,,,
1.7,,,,,,,,,j,red,5eba75d1758c7a1cffb62685,2021-09-28_09h41.43.532,forced_choiceRT_color,2021.2.3,Win32,94.87666034,,,,,,,,1,Ontime,long,j,1,2.0659,6,1,25,2,1,,,,,
1.83,,,,,,,,,j,red,5eba75d1758c7a1cffb62685,2021-09-28_09h41.43.532,forced_choiceRT_color,2021.2.3,Win32,94.87666034,,,,,,,,1,Ontime,long,j,1,1.9981,6,2,26,2,1,,,,,
1.03,,,,,,,,,j,red,5eba75d1758c7a1cffb62685,2021-09-28_09h41.43.532,forced_choiceRT_color,2021.2.3,Win32,94.87666034,,,,,,,,1,Ontime,long,j,1,2.027,6,3,27,2,1,,,,,
1.84,,,,,,,,,d,orange,5eba75d1758c7a1cffb62685,2021-09-28_09h41.43.532,forced_choiceRT_color,2021.2.3,Win32,94.87666034,,,,,,,,1,Ontime,long,j,0,2.0077,7,0,28,0,1,,,,,
1.74,,,,,,,,,f,blue,5eba75d1758c7a1cffb62685,2021-09-28_09h41.43.532,forced_choiceRT_color,2021.2.3,Win32,94.87666034,,,,,,,,1,Ontime,long,d,0,1.9958,7,1,29,1,1,,,,,
0.33,,,,,,,,,j,red,5eba75d1758c7a1cffb62685,2021-09-28_09h41.43.532,forced_choiceRT_color,2021.2.3,Win32,94.87666034,,,,,,,,1,Ontime,long,j,1,1.9408,7,2,30,2,1,,,,,
0.97,,,,,,,,,k,purple,5eba75d1758c7a1cffb62685,2021-09-28_09h41.43.532,forced_choiceRT_color,2021.2.3,Win32,94.87666034,,,,,,,,1,Ontime,long,k,1,1.9192,7,3,31,3,1,,,,,
1.13,,,,,,,,,k,purple,5eba75d1758c7a1cffb62685,2021-09-28_09h41.43.532,forced_choiceRT_color,2021.2.3,Win32,94.87666034,,,,,,,,1,Ontime,long,k,1,2.0148,8,0,32,3,1,,,,,
0.08,,,,,,,,,f,blue,5eba75d1758c7a1cffb62685,2021-09-28_09h41.43.532,forced_choiceRT_color,2021.2.3,Win32,94.87666034,,,,,,,,1,Ontime,long,f,1,1.9895,8,1,33,1,1,,,,,
0.93,,,,,,,,,f,blue,5eba75d1758c7a1cffb62685,2021-09-28_09h41.43.532,forced_choiceRT_color,2021.2.3,Win32,94.87666034,,,,,,,,1,Ontime,long,f,1,2.0532,8,2,34,1,1,,,,,
1.54,,,,,,,,,d,orange,5eba75d1758c7a1cffb62685,2021-09-28_09h41.43.532,forced_choiceRT_color,2021.2.3,Win32,94.87666034,,,,,,,,1,Ontime,long,d,1,2.0533,8,3,35,0,1,,,,,
1.12,,,,,,,,,j,red,5eba75d1758c7a1cffb62685,2021-09-28_09h41.43.532,forced_choiceRT_color,2021.2.3,Win32,94.87666034,,,,,,,,1,Ontime,long,j,1,2.0141,9,0,36,2,1,,,,,
0.6,,,,,,,,,k,purple,5eba75d1758c7a1cffb62685,2021-09-28_09h41.43.532,forced_choiceRT_color,2021.2.3,Win32,94.87666034,,,,,,,,1,Ontime,long,k,1,2.0353,9,1,37,3,1,,,,,
1.03,,,,,,,,,d,orange,5eba75d1758c7a1cffb62685,2021-09-28_09h41.43.532,forced_choiceRT_color,2021.2.3,Win32,94.87666034,,,,,,,,1,Ontime,long,d,1,2.0071,9,2,38,0,1,,,,,
1.92,,,,,,,,,k,purple,5eba75d1758c7a1cffb62685,2021-09-28_09h41.43.532,forced_choiceRT_color,2021.2.3,Win32,94.87666034,,,,,,,,1,Ontime,long,j,0,2.0162,9,3,39,3,1,,,,,
,,,,,,,,,,,5eba75d1758c7a1cffb62685,2021-09-28_09h41.43.532,forced_choiceRT_color,2021.2.3,Win32,94.87666034,,,,,,,,,,,,,,,,,,,0,0,0,0,1
1.2,,,,,,,,,d,orange,5eba75d1758c7a1cffb62685,2021-09-28_09h41.43.532,forced_choiceRT_color,2021.2.3,Win32,94.87666034,,,,,,,,2,Ontime,long,d,1,1.9598,0,0,0,0,1,,,,,
0.43,,,,,,,,,d,orange,5eba75d1758c7a1cffb62685,2021-09-28_09h41.43.532,forced_choiceRT_color,2021.2.3,Win32,94.87666034,,,,,,,,2,Ontime,long,d,1,1.9576,0,1,1,0,1,,,,,
0.71,,,,,,,,,j,red,5eba75d1758c7a1cffb62685,2021-09-28_09h41.43.532,forced_choiceRT_color,2021.2.3,Win32,94.87666034,,,,,,,,2,Ontime,long,j,1,1.9882,0,2,2,2,1,,,,,
0.68,,,,,,,,,f,blue,5eba75d1758c7a1cffb62685,2021-09-28_09h41.43.532,forced_choiceRT_color,2021.2.3,Win32,94.87666034,,,,,,,,2,Ontime,long,f,1,1.9803,0,3,3,1,1,,,,,
0.45,,,,,,,,,f,blue,5eba75d1758c7a1cffb62685,2021-09-28_09h41.43.532,forced_choiceRT_color,2021.2.3,Win32,94.87666034,,,,,,,,2,Ontime,long,f,1,1.973,1,0,4,1,1,,,,,
1.92,,,,,,,,,f,blue,5eba75d1758c7a1cffb62685,2021-09-28_09h41.43.532,forced_choiceRT_color,2021.2.3,Win32,94.87666034,,,,,,,,2,Ontime,long,d,0,1.9511,1,1,5,1,1,,,,,
1.47,,,,,,,,,k,purple,5eba75d1758c7a1cffb62685,2021-09-28_09h41.43.532,forced_choiceRT_color,2021.2.3,Win32,94.87666034,,,,,,,,2,Ontime,long,k,1,2.0147,1,2,6,3,1,,,,,
0.42,,,,,,,,,k,purple,5eba75d1758c7a1cffb62685,2021-09-28_09h41.43.532,forced_choiceRT_color,2021.2.3,Win32,94.87666034,,,,,,,,2,Ontime,long,k,1,2.0365,1,3,7,3,1,,,,,
1.06,,,,,,,,,k,purple,5eba75d1758c7a1cffb62685,2021-09-28_09h41.43.532,forced_choiceRT_color,2021.2.3,Win32,94.87666034,,,,,,,,2,Slow,long,k,1,2.1195,2,0,8,3,1,,,,,
0.28,,,,,,,,,j,red,5eba75d1758c7a1cffb62685,2021-09-28_09h41.43.532,forced_choiceRT_color,2021.2.3,Win32,94.87666034,,,,,,,,2,Ontime,long,j,1,1.9758,2,1,9,2,1,,,,,
1.14,,,,,,,,,k,purple,5eba75d1758c7a1cffb62685,2021-09-28_09h41.43.532,forced_choiceRT_color,2021.2.3,Win32,94.87666034,,,,,,,,2,Ontime,long,k,1,2.0172,2,2,10,3,1,,,,,
0.78,,,,,,,,,j,red,5eba75d1758c7a1cffb62685,2021-09-28_09h41.43.532,forced_choiceRT_color,2021.2.3,Win32,94.87666034,,,,,,,,2,Ontime,long,j,1,1.9841,2,3,11,2,1,,,,,
0.97,,,,,,,,,k,purple,5eba75d1758c7a1cffb62685,2021-09-28_09h41.43.532,forced_choiceRT_color,2021.2.3,Win32,94.87666034,,,,,,,,2,Ontime,long,k,1,2.0077,3,0,12,3,1,,,,,
0.79,,,,,,,,,d,orange,5eba75d1758c7a1cffb62685,2021-09-28_09h41.43.532,forced_choiceRT_color,2021.2.3,Win32,94.87666034,,,,,,,,2,Ontime,long,d,1,2.0344,3,1,13,0,1,,,,,
0.2,,,,,,,,,d,orange,5eba75d1758c7a1cffb62685,2021-09-28_09h41.43.532,forced_choiceRT_color,2021.2.3,Win32,94.87666034,,,,,,,,2,Ontime,long,d,1,2.0356,3,2,14,0,1,,,,,
1.75,,,,,,,,,k,purple,5eba75d1758c7a1cffb62685,2021-09-28_09h41.43.532,forced_choiceRT_color,2021.2.3,Win32,94.87666034,,,,,,,,2,Ontime,long,d,0,1.9102,3,3,15,3,1,,,,,
1.44,,,,,,,,,j,red,5eba75d1758c7a1cffb62685,2021-09-28_09h41.43.532,forced_choiceRT_color,2021.2.3,Win32,94.87666034,,,,,,,,2,Ontime,long,j,1,1.9989,4,0,16,2,1,,,,,
0.36,,,,,,,,,d,orange,5eba75d1758c7a1cffb62685,2021-09-28_09h41.43.532,forced_choiceRT_color,2021.2.3,Win32,94.87666034,,,,,,,,2,Ontime,long,d,1,2.0361,4,1,17,0,1,,,,,
0.57,,,,,,,,,j,red,5eba75d1758c7a1cffb62685,2021-09-28_09h41.43.532,forced_choiceRT_color,2021.2.3,Win32,94.87666034,,,,,,,,2,Ontime,long,j,1,1.9986,4,2,18,2,1,,,,,
0.01,,,,,,,,,k,purple,5eba75d1758c7a1cffb62685,2021-09-28_09h41.43.532,forced_choiceRT_color,2021.2.3,Win32,94.87666034,,,,,,,,2,Ontime,long,k,1,2.0271,4,3,19,3,1,,,,,
1.31,,,,,,,,,f,blue,5eba75d1758c7a1cffb62685,2021-09-28_09h41.43.532,forced_choiceRT_color,2021.2.3,Win32,94.87666034,,,,,,,,2,Ontime,long,f,1,2.0323,5,0,20,1,1,,,,,
0.5,,,,,,,,,d,orange,5eba75d1758c7a1cffb62685,2021-09-28_09h41.43.532,forced_choiceRT_color,2021.2.3,Win32,94.87666034,,,,,,,,2,Ontime,long,d,1,2.0051,5,1,21,0,1,,,,,
0.11,,,,,,,,,d,orange,5eba75d1758c7a1cffb62685,2021-09-28_09h41.43.532,forced_choiceRT_color,2021.2.3,Win32,94.87666034,,,,,,,,2,Ontime,long,d,1,2.0245,5,2,22,0,1,,,,,
0.9,,,,,,,,,d,orange,5eba75d1758c7a1cffb62685,2021-09-28_09h41.43.532,forced_choiceRT_color,2021.2.3,Win32,94.87666034,,,,,,,,2,Ontime,long,d,1,2.0199,5,3,23,0,1,,,,,
0.34,,,,,,,,,f,blue,5eba75d1758c7a1cffb62685,2021-09-28_09h41.43.532,forced_choiceRT_color,2021.2.3,Win32,94.87666034,,,,,,,,2,Ontime,long,f,1,2.0448,6,0,24,1,1,,,,,
0.2,,,,,,,,,f,blue,5eba75d1758c7a1cffb62685,2021-09-28_09h41.43.532,forced_choiceRT_color,2021.2.3,Win32,94.87666034,,,,,,,,2,Ontime,long,f,1,2.0198,6,1,25,1,1,,,,,
1.01,,,,,,,,,f,blue,5eba75d1758c7a1cffb62685,2021-09-28_09h41.43.532,forced_choiceRT_color,2021.2.3,Win32,94.87666034,,,,,,,,2,Ontime,long,f,1,2.076,6,2,26,1,1,,,,,
1.24,,,,,,,,,j,red,5eba75d1758c7a1cffb62685,2021-09-28_09h41.43.532,forced_choiceRT_color,2021.2.3,Win32,94.87666034,,,,,,,,2,Ontime,long,j,1,1.9722,6,3,27,2,1,,,,,
1.25,,,,,,,,,f,blue,5eba75d1758c7a1cffb62685,2021-09-28_09h41.43.532,forced_choiceRT_color,2021.2.3,Win32,94.87666034,,,,,,,,2,Ontime,long,f,1,1.9823,7,0,28,1,1,,,,,
1.5,,,,,,,,,k,purple,5eba75d1758c7a1cffb62685,2021-09-28_09h41.43.532,forced_choiceRT_color,2021.2.3,Win32,94.87666034,,,,,,,,2,Ontime,long,k,1,2.0364,7,1,29,3,1,,,,,
1.12,,,,,,,,,j,red,5eba75d1758c7a1cffb62685,2021-09-28_09h41.43.532,forced_choiceRT_color,2021.2.3,Win32,94.87666034,,,,,,,,2,Ontime,long,j,1,1.992,7,2,30,2,1,,,,,
0.99,,,,,,,,,j,red,5eba75d1758c7a1cffb62685,2021-09-28_09h41.43.532,forced_choiceRT_color,2021.2.3,Win32,94.87666034,,,,,,,,2,Ontime,long,j,1,2.0114,7,3,31,2,1,,,,,
1.19,,,,,,,,,k,purple,5eba75d1758c7a1cffb62685,2021-09-28_09h41.43.532,forced_choiceRT_color,2021.2.3,Win32,94.87666034,,,,,,,,2,Ontime,long,k,1,2.094,8,0,32,3,1,,,,,
0.54,,,,,,,,,f,blue,5eba75d1758c7a1cffb62685,2021-09-28_09h41.43.532,forced_choiceRT_color,2021.2.3,Win32,94.87666034,,,,,,,,2,Ontime,long,f,1,2.0104,8,1,33,1,1,,,,,
1.98,,,,,,,,,f,blue,5eba75d1758c7a1cffb62685,2021-09-28_09h41.43.532,forced_choiceRT_color,2021.2.3,Win32,94.87666034,,,,,,,,2,Ontime,long,k,0,2.021,8,2,34,1,1,,,,,
1.42,,,,,,,,,j,red,5eba75d1758c7a1cffb62685,2021-09-28_09h41.43.532,forced_choiceRT_color,2021.2.3,Win32,94.87666034,,,,,,,,2,Ontime,long,j,1,1.983,8,3,35,2,1,,,,,
0.73,,,,,,,,,d,orange,5eba75d1758c7a1cffb62685,2021-09-28_09h41.43.532,forced_choiceRT_color,2021.2.3,Win32,94.87666034,,,,,,,,2,Ontime,long,d,1,1.9729,9,0,36,0,1,,,,,
1.41,,,,,,,,,k,purple,5eba75d1758c7a1cffb62685,2021-09-28_09h41.43.532,forced_choiceRT_color,2021.2.3,Win32,94.87666034,,,,,,,,2,Ontime,long,k,1,2.0138,9,1,37,3,1,,,,,
0.38,,,,,,,,,j,red,5eba75d1758c7a1cffb62685,2021-09-28_09h41.43.532,forced_choiceRT_color,2021.2.3,Win32,94.87666034,,,,,,,,2,Ontime,long,j,1,1.9976,9,2,38,2,1,,,,,
1.41,,,,,,,,,d,orange,5eba75d1758c7a1cffb62685,2021-09-28_09h41.43.532,forced_choiceRT_color,2021.2.3,Win32,94.87666034,,,,,,,,2,Ontime,long,f,0,1.9868,9,3,39,0,1,,,,,
,,,,,,,,,,,5eba75d1758c7a1cffb62685,2021-09-28_09h41.43.532,forced_choiceRT_color,2021.2.3,Win32,94.87666034,,,,,,,,,,,,,,,,,,,1,0,1,0,1
1.86,,,,,,,,,j,red,5eba75d1758c7a1cffb62685,2021-09-28_09h41.43.532,forced_choiceRT_color,2021.2.3,Win32,94.87666034,,,,,,,,3,Ontime,long,k,0,1.9968,0,0,0,2,1,,,,,
1.64,,,,,,,,,d,orange,5eba75d1758c7a1cffb62685,2021-09-28_09h41.43.532,forced_choiceRT_color,2021.2.3,Win32,94.87666034,,,,,,,,3,Ontime,long,d,1,2.0542,0,1,1,0,1,,,,,
1.63,,,,,,,,,j,red,5eba75d1758c7a1cffb62685,2021-09-28_09h41.43.532,forced_choiceRT_color,2021.2.3,Win32,94.87666034,,,,,,,,3,Ontime,long,f,0,2.079,0,2,2,2,1,,,,,
0.42,,,,,,,,,f,blue,5eba75d1758c7a1cffb62685,2021-09-28_09h41.43.532,forced_choiceRT_color,2021.2.3,Win32,94.87666034,,,,,,,,3,Ontime,long,f,1,2.0384,0,3,3,1,1,,,,,
0.82,,,,,,,,,k,purple,5eba75d1758c7a1cffb62685,2021-09-28_09h41.43.532,forced_choiceRT_color,2021.2.3,Win32,94.87666034,,,,,,,,3,Ontime,long,k,1,2.0008,1,0,4,3,1,,,,,
0.52,,,,,,,,,d,orange,5eba75d1758c7a1cffb62685,2021-09-28_09h41.43.532,forced_choiceRT_color,2021.2.3,Win32,94.87666034,,,,,,,,3,Ontime,long,d,1,1.9021,1,1,5,0,1,,,,,
0.16,,,,,,,,,f,blue,5eba75d1758c7a1cffb62685,2021-09-28_09h41.43.532,forced_choiceRT_color,2021.2.3,Win32,94.87666034,,,,,,,,3,Ontime,long,f,1,2.017,1,2,6,1,1,,,,,
0.8,,,,,,,,,f,blue,5eba75d1758c7a1cffb62685,2021-09-28_09h41.43.532,forced_choiceRT_color,2021.2.3,Win32,94.87666034,,,,,,,,3,Ontime,long,f,1,2.017,1,3,7,1,1,,,,,
0.81,,,,,,,,,d,orange,5eba75d1758c7a1cffb62685,2021-09-28_09h41.43.532,forced_choiceRT_color,2021.2.3,Win32,94.87666034,,,,,,,,3,Ontime,long,d,1,1.9776,2,0,8,0,1,,,,,
0.16,,,,,,,,,k,purple,5eba75d1758c7a1cffb62685,2021-09-28_09h41.43.532,forced_choiceRT_color,2021.2.3,Win32,94.87666034,,,,,,,,3,Ontime,long,k,1,2.0172,2,1,9,3,1,,,,,
0.9,,,,,,,,,k,purple,5eba75d1758c7a1cffb62685,2021-09-28_09h41.43.532,forced_choiceRT_color,2021.2.3,Win32,94.87666034,,,,,,,,3,Ontime,long,k,1,2.0488,2,2,10,3,1,,,,,
0.77,,,,,,,,,k,purple,5eba75d1758c7a1cffb62685,2021-09-28_09h41.43.532,forced_choiceRT_color,2021.2.3,Win32,94.87666034,,,,,,,,3,Ontime,long,k,1,2.0577,2,3,11,3,1,,,,,
0.78,,,,,,,,,k,purple,5eba75d1758c7a1cffb62685,2021-09-28_09h41.43.532,forced_choiceRT_color,2021.2.3,Win32,94.87666034,,,,,,,,3,Ontime,long,k,1,2.0236,3,0,12,3,1,,,,,
0.1,,,,,,,,,k,purple,5eba75d1758c7a1cffb62685,2021-09-28_09h41.43.532,forced_choiceRT_color,2021.2.3,Win32,94.87666034,,,,,,,,3,Ontime,long,k,1,1.9954,3,1,13,3,1,,,,,
0.61,,,,,,,,,j,red,5eba75d1758c7a1cffb62685,2021-09-28_09h41.43.532,forced_choiceRT_color,2021.2.3,Win32,94.87666034,,,,,,,,3,Ontime,long,j,1,2.0247,3,2,14,2,1,,,,,
1.26,,,,,,,,,f,blue,5eba75d1758c7a1cffb62685,2021-09-28_09h41.43.532,forced_choiceRT_color,2021.2.3,Win32,94.87666034,,,,,,,,3,Ontime,long,f,1,2.0534,3,3,15,1,1,,,,,
1.2,,,,,,,,,f,blue,5eba75d1758c7a1cffb62685,2021-09-28_09h41.43.532,forced_choiceRT_color,2021.2.3,Win32,94.87666034,,,,,,,,3,Ontime,long,f,1,2.0133,4,0,16,1,1,,,,,
1.83,,,,,,,,,d,orange,5eba75d1758c7a1cffb62685,2021-09-28_09h41.43.532,forced_choiceRT_color,2021.2.3,Win32,94.87666034,,,,,,,,3,Ontime,long,k,0,2.0213,4,1,17,0,1,,,,,
1.48,,,,,,,,,j,red,5eba75d1758c7a1cffb62685,2021-09-28_09h41.43.532,forced_choiceRT_color,2021.2.3,Win32,94.87666034,,,,,,,,3,Ontime,long,j,1,1.9958,4,2,18,2,1,,,,,
0.1,,,,,,,,,j,red,5eba75d1758c7a1cffb62685,2021-09-28_09h41.43.532,forced_choiceRT_color,2021.2.3,Win32,94.87666034,,,,,,,,3,Ontime,long,j,1,1.9989,4,3,19,2,1,,,,,
1.36,,,,,,,,,k,purple,5eba75d1758c7a1cffb62685,2021-09-28_09h41.43.532,forced_choiceRT_color,2021.2.3,Win32,94.87666034,,,,,,,,3,Ontime,long,k,1,2.0061,5,0,20,3,1,,,,,
0.21,,,,,,,,,f,blue,5eba75d1758c7a1cffb62685,2021-09-28_09h41.43.532,forced_choiceRT_color,2021.2.3,Win32,94.87666034,,,,,,,,3,Ontime,long,f,1,2.0145,5,1,21,1,1,,,,,
1.86,,,,,,,,,j,red,5eba75d1758c7a1cffb62685,2021-09-28_09h41.43.532,forced_choiceRT_color,2021.2.3,Win32,94.87666034,,,,,,,,3,Ontime,long,j,1,2.0155,5,2,22,2,1,,,,,
1.54,,,,,,,,,d,orange,5eba75d1758c7a1cffb62685,2021-09-28_09h41.43.532,forced_choiceRT_color,2021.2.3,Win32,94.87666034,,,,,,,,3,Ontime,long,d,1,2.066,5,3,23,0,1,,,,,
0.66,,,,,,,,,k,purple,5eba75d1758c7a1cffb62685,2021-09-28_09h41.43.532,forced_choiceRT_color,2021.2.3,Win32,94.87666034,,,,,,,,3,Ontime,long,k,1,1.9822,6,0,24,3,1,,,,,
1.41,,,,,,,,,j,red,5eba75d1758c7a1cffb62685,2021-09-28_09h41.43.532,forced_choiceRT_color,2021.2.3,Win32,94.87666034,,,,,,,,3,Ontime,long,j,1,2.0505,6,1,25,2,1,,,,,
0.53,,,,,,,,,d,orange,5eba75d1758c7a1cffb62685,2021-09-28_09h41.43.532,forced_choiceRT_color,2021.2.3,Win32,94.87666034,,,,,,,,3,Ontime,long,d,1,2.045,6,2,26,0,1,,,,,
1.94,,,,,,,,,k,purple,5eba75d1758c7a1cffb62685,2021-09-28_09h41.43.532,forced_choiceRT_color,2021.2.3,Win32,94.87666034,,,,,,,,3,Ontime,long,j,0,2.0507,6,3,27,3,1,,,,,
1.21,,,,,,,,,d,orange,5eba75d1758c7a1cffb62685,2021-09-28_09h41.43.532,forced_choiceRT_color,2021.2.3,Win32,94.87666034,,,,,,,,3,Ontime,long,d,1,2.0677,7,0,28,0,1,,,,,
1.63,,,,,,,,,f,blue,5eba75d1758c7a1cffb62685,2021-09-28_09h41.43.532,forced_choiceRT_color,2021.2.3,Win32,94.87666034,,,,,,,,3,Ontime,long,f,1,2.0873,7,1,29,1,1,,,,,
1.1,,,,,,,,,d,orange,5eba75d1758c7a1cffb62685,2021-09-28_09h41.43.532,forced_choiceRT_color,2021.2.3,Win32,94.87666034,,,,,,,,3,Ontime,long,d,1,2.0366,7,2,30,0,1,,,,,
0.3,,,,,,,,,d,orange,5eba75d1758c7a1cffb62685,2021-09-28_09h41.43.532,forced_choiceRT_color,2021.2.3,Win32,94.87666034,,,,,,,,3,Ontime,long,d,1,1.9827,7,3,31,0,1,,,,,
1.43,,,,,,,,,d,orange,5eba75d1758c7a1cffb62685,2021-09-28_09h41.43.532,forced_choiceRT_color,2021.2.3,Win32,94.87666034,,,,,,,,3,Ontime,long,d,1,2.0467,8,0,32,0,1,,,,,
0.74,,,,,,,,,k,purple,5eba75d1758c7a1cffb62685,2021-09-28_09h41.43.532,forced_choiceRT_color,2021.2.3,Win32,94.87666034,,,,,,,,3,Ontime,long,k,1,2.0778,8,1,33,3,1,,,,,
1.26,,,,,,,,,j,red,5eba75d1758c7a1cffb62685,2021-09-28_09h41.43.532,forced_choiceRT_color,2021.2.3,Win32,94.87666034,,,,,,,,3,Ontime,long,j,1,2.0543,8,2,34,2,1,,,,,
1.96,,,,,,,,,j,red,5eba75d1758c7a1cffb62685,2021-09-28_09h41.43.532,forced_choiceRT_color,2021.2.3,Win32,94.87666034,,,,,,,,3,Slow,long,d,0,2.1509,8,3,35,2,1,,,,,
0.61,,,,,,,,,f,blue,5eba75d1758c7a1cffb62685,2021-09-28_09h41.43.532,forced_choiceRT_color,2021.2.3,Win32,94.87666034,,,,,,,,3,Ontime,long,f,1,1.9659,9,0,36,1,1,,,,,
1.24,,,,,,,,,f,blue,5eba75d1758c7a1cffb62685,2021-09-28_09h41.43.532,forced_choiceRT_color,2021.2.3,Win32,94.87666034,,,,,,,,3,Ontime,long,f,1,2.0501,9,1,37,1,1,,,,,
0.23,,,,,,,,,j,red,5eba75d1758c7a1cffb62685,2021-09-28_09h41.43.532,forced_choiceRT_color,2021.2.3,Win32,94.87666034,,,,,,,,3,Ontime,long,j,1,1.9779,9,2,38,2,1,,,,,
0.45,,,,,,,,,f,blue,5eba75d1758c7a1cffb62685,2021-09-28_09h41.43.532,forced_choiceRT_color,2021.2.3,Win32,94.87666034,,,,,,,,3,Ontime,long,f,1,2.0029,9,3,39,1,1,,,,,
,,,,,,,,,,,5eba75d1758c7a1cffb62685,2021-09-28_09h41.43.532,forced_choiceRT_color,2021.2.3,Win32,94.87666034,,,,,,,,,,,,,,,,,,,2,0,2,0,1
0.09,,,,,,,,,j,red,5eba75d1758c7a1cffb62685,2021-09-28_09h41.43.532,forced_choiceRT_color,2021.2.3,Win32,94.87666034,,,,,,,,4,Ontime,long,j,1,1.978,0,0,0,2,1,,,,,
0.23,,,,,,,,,k,purple,5eba75d1758c7a1cffb62685,2021-09-28_09h41.43.532,forced_choiceRT_color,2021.2.3,Win32,94.87666034,,,,,,,,4,Ontime,long,k,1,1.9803,0,1,1,3,1,,,,,
0.95,,,,,,,,,d,orange,5eba75d1758c7a1cffb62685,2021-09-28_09h41.43.532,forced_choiceRT_color,2021.2.3,Win32,94.87666034,,,,,,,,4,Ontime,long,d,1,2.0118,0,2,2,0,1,,,,,
0.78,,,,,,,,,f,blue,5eba75d1758c7a1cffb62685,2021-09-28_09h41.43.532,forced_choiceRT_color,2021.2.3,Win32,94.87666034,,,,,,,,4,Ontime,long,f,1,2.0057,0,3,3,1,1,,,,,
1.94,,,,,,,,,f,blue,5eba75d1758c7a1cffb62685,2021-09-28_09h41.43.532,forced_choiceRT_color,2021.2.3,Win32,94.87666034,,,,,,,,4,Ontime,long,d,0,2.0088,1,0,4,1,1,,,,,
0.17,,,,,,,,,f,blue,5eba75d1758c7a1cffb62685,2021-09-28_09h41.43.532,forced_choiceRT_color,2021.2.3,Win32,94.87666034,,,,,,,,4,Ontime,long,f,1,1.9849,1,1,5,1,1,,,,,
0.52,,,,,,,,,j,red,5eba75d1758c7a1cffb62685,2021-09-28_09h41.43.532,forced_choiceRT_color,2021.2.3,Win32,94.87666034,,,,,,,,4,Ontime,long,j,1,2.0012,1,2,6,2,1,,,,,
1.23,,,,,,,,,k,purple,5eba75d1758c7a1cffb62685,2021-09-28_09h41.43.532,forced_choiceRT_color,2021.2.3,Win32,94.87666034,,,,,,,,4,Ontime,long,k,1,2.0557,1,3,7,3,1,,,,,
0.88,,,,,,,,,k,purple,5eba75d1758c7a1cffb62685,2021-09-28_09h41.43.532,forced_choiceRT_color,2021.2.3,Win32,94.87666034,,,,,,,,4,Ontime,long,k,1,2.0115,2,0,8,3,1,,,,,
0.37,,,,,,,,,k,purple,5eba75d1758c7a1cffb62685,2021-09-28_09h41.43.532,forced_choiceRT_color,2021.2.3,Win32,94.87666034,,,,,,,,4,Ontime,long,k,1,2.0065,2,1,9,3,1,,,,,
1.9,,,,,,,,,f,blue,5eba75d1758c7a1cffb62685,2021-09-28_09h41.43.532,forced_choiceRT_color,2021.2.3,Win32,94.87666034,,,,,,,,4,Ontime,long,d,0,2.0559,2,2,10,1,1,,,,,
0.44,,,,,,,,,j,red,5eba75d1758c7a1cffb62685,2021-09-28_09h41.43.532,forced_choiceRT_color,2021.2.3,Win32,94.87666034,,,,,,,,4,Ontime,long,j,1,2.0284,2,3,11,2,1,,,,,
1.79,,,,,,,,,k,purple,5eba75d1758c7a1cffb62685,2021-09-28_09h41.43.532,forced_choiceRT_color,2021.2.3,Win32,94.87666034,,,,,,,,4,Slow,long,j,0,2.1307,3,0,12,3,1,,,,,
1.02,,,,,,,,,d,orange,5eba75d1758c7a1cffb62685,2021-09-28_09h41.43.532,forced_choiceRT_color,2021.2.3,Win32,94.87666034,,,,,,,,4,Ontime,long,d,1,2.0556,3,1,13,0,1,,,,,
0.96,,,,,,,,,f,blue,5eba75d1758c7a1cffb62685,2021-09-28_09h41.43.532,forced_choiceRT_color,2021.2.3,Win32,94.87666034,,,,,,,,4,Ontime,long,f,1,2.0526,3,2,14,1,1,,,,,
1,,,,,,,,,d,orange,5eba75d1758c7a1cffb62685,2021-09-28_09h41.43.532,forced_choiceRT_color,2021.2.3,Win32,94.87666034,,,,,,,,4,Ontime,long,k,0,2.0131,3,3,15,0,1,,,,,
0.84,,,,,,,,,k,purple,5eba75d1758c7a1cffb62685,2021-09-28_09h41.43.532,forced_choiceRT_color,2021.2.3,Win32,94.87666034,,,,,,,,4,Ontime,long,k,1,2.02,4,0,16,3,1,,,,,
0.73,,,,,,,,,k,purple,5eba75d1758c7a1cffb62685,2021-09-28_09h41.43.532,forced_choiceRT_color,2021.2.3,Win32,94.87666034,,,,,,,,4,Ontime,long,k,1,2.0039,4,1,17,3,1,,,,,
1.97,,,,,,,,,k,purple,5eba75d1758c7a1cffb62685,2021-09-28_09h41.43.532,forced_choiceRT_color,2021.2.3,Win32,94.87666034,,,,,,,,4,Ontime,long,d,0,2.0861,4,2,18,3,1,,,,,
0.73,,,,,,,,,k,purple,5eba75d1758c7a1cffb62685,2021-09-28_09h41.43.532,forced_choiceRT_color,2021.2.3,Win32,94.87666034,,,,,,,,4,Ontime,long,k,1,2.0224,4,3,19,3,1,,,,,
1.15,,,,,,,,,j,red,5eba75d1758c7a1cffb62685,2021-09-28_09h41.43.532,forced_choiceRT_color,2021.2.3,Win32,94.87666034,,,,,,,,4,Slow,long,j,1,2.101,5,0,20,2,1,,,,,
1.64,,,,,,,,,j,red,5eba75d1758c7a1cffb62685,2021-09-28_09h41.43.532,forced_choiceRT_color,2021.2.3,Win32,94.87666034,,,,,,,,4,Ontime,long,j,1,2.0818,5,1,21,2,1,,,,,
1.71,,,,,,,,,j,red,5eba75d1758c7a1cffb62685,2021-09-28_09h41.43.532,forced_choiceRT_color,2021.2.3,Win32,94.87666034,,,,,,,,4,Ontime,long,k,0,2.0429,5,2,22,2,1,,,,,
1.35,,,,,,,,,d,orange,5eba75d1758c7a1cffb62685,2021-09-28_09h41.43.532,forced_choiceRT_color,2021.2.3,Win32,94.87666034,,,,,,,,4,Ontime,long,d,1,2.0039,5,3,23,0,1,,,,,
0.42,,,,,,,,,d,orange,5eba75d1758c7a1cffb62685,2021-09-28_09h41.43.532,forced_choiceRT_color,2021.2.3,Win32,94.87666034,,,,,,,,4,Ontime,long,d,1,2.0156,6,0,24,0,1,,,,,
0.98,,,,,,,,,j,red,5eba75d1758c7a1cffb62685,2021-09-28_09h41.43.532,forced_choiceRT_color,2021.2.3,Win32,94.87666034,,,,,,,,4,Ontime,long,j,1,2.007,6,1,25,2,1,,,,,
1.93,,,,,,,,,d,orange,5eba75d1758c7a1cffb62685,2021-09-28_09h41.43.532,forced_choiceRT_color,2021.2.3,Win32,94.87666034,,,,,,,,4,Ontime,long,j,0,2.0566,6,2,26,0,1,,,,,
0.52,,,,,,,,,f,blue,5eba75d1758c7a1cffb62685,2021-09-28_09h41.43.532,forced_choiceRT_color,2021.2.3,Win32,94.87666034,,,,,,,,4,Ontime,long,f,1,2.0298,6,3,27,1,1,,,,,
1.52,,,,,,,,,d,orange,5eba75d1758c7a1cffb62685,2021-09-28_09h41.43.532,forced_choiceRT_color,2021.2.3,Win32,94.87666034,,,,,,,,4,Ontime,long,d,1,2.051,7,0,28,0,1,,,,,
1.43,,,,,,,,,d,orange,5eba75d1758c7a1cffb62685,2021-09-28_09h41.43.532,forced_choiceRT_color,2021.2.3,Win32,94.87666034,,,,,,,,4,Ontime,long,d,1,2.0676,7,1,29,0,1,,,,,
1.68,,,,,,,,,k,purple,5eba75d1758c7a1cffb62685,2021-09-28_09h41.43.532,forced_choiceRT_color,2021.2.3,Win32,94.87666034,,,,,,,,4,Ontime,long,j,0,2.0458,7,2,30,3,1,,,,,
1.15,,,,,,,,,f,blue,5eba75d1758c7a1cffb62685,2021-09-28_09h41.43.532,forced_choiceRT_color,2021.2.3,Win32,94.87666034,,,,,,,,4,Ontime,long,f,1,2.0062,7,3,31,1,1,,,,,
1.38,,,,,,,,,d,orange,5eba75d1758c7a1cffb62685,2021-09-28_09h41.43.532,forced_choiceRT_color,2021.2.3,Win32,94.87666034,,,,,,,,4,Ontime,long,d,1,1.9921,8,0,32,0,1,,,,,
1.59,,,,,,,,,f,blue,5eba75d1758c7a1cffb62685,2021-09-28_09h41.43.532,forced_choiceRT_color,2021.2.3,Win32,94.87666034,,,,,,,,4,Slow,long,j,0,2.1085,8,1,33,1,1,,,,,
0.94,,,,,,,,,j,red,5eba75d1758c7a1cffb62685,2021-09-28_09h41.43.532,forced_choiceRT_color,2021.2.3,Win32,94.87666034,,,,,,,,4,Ontime,long,j,1,2.0387,8,2,34,2,1,,,,,
0.11,,,,,,,,,f,blue,5eba75d1758c7a1cffb62685,2021-09-28_09h41.43.532,forced_choiceRT_color,2021.2.3,Win32,94.87666034,,,,,,,,4,Ontime,long,f,1,2.0251,8,3,35,1,1,,,,,
1.63,,,,,,,,,d,orange,5eba75d1758c7a1cffb62685,2021-09-28_09h41.43.532,forced_choiceRT_color,2021.2.3,Win32,94.87666034,,,,,,,,4,Ontime,long,d,1,2.0624,9,0,36,0,1,,,,,
0.97,,,,,,,,,j,red,5eba75d1758c7a1cffb62685,2021-09-28_09h41.43.532,forced_choiceRT_color,2021.2.3,Win32,94.87666034,,,,,,,,4,Ontime,long,j,1,1.9725,9,1,37,2,1,,,,,
1.3,,,,,,,,,f,blue,5eba75d1758c7a1cffb62685,2021-09-28_09h41.43.532,forced_choiceRT_color,2021.2.3,Win32,94.87666034,,,,,,,,4,Ontime,long,f,1,2.0451,9,2,38,1,1,,,,,
0.74,,,,,,,,,j,red,5eba75d1758c7a1cffb62685,2021-09-28_09h41.43.532,forced_choiceRT_color,2021.2.3,Win32,94.87666034,,,,,,,,4,Ontime,long,j,1,2.0054,9,3,39,2,1,,,,,
,,,,,,,,,,,5eba75d1758c7a1cffb62685,2021-09-28_09h41.43.532,forced_choiceRT_color,2021.2.3,Win32,94.87666034,,,,,,,,,,,,,,,,,,,3,0,3,0,1
0.42,,,,,,,,,f,blue,5eba75d1758c7a1cffb62685,2021-09-28_09h41.43.532,forced_choiceRT_color,2021.2.3,Win32,94.87666034,,,,,,,,5,Ontime,long,f,1,1.9482,0,0,0,1,1,,,,,
0.03,,,,,,,,,d,orange,5eba75d1758c7a1cffb62685,2021-09-28_09h41.43.532,forced_choiceRT_color,2021.2.3,Win32,94.87666034,,,,,,,,5,Ontime,long,d,1,1.9689,0,1,1,0,1,,,,,
0.38,,,,,,,,,f,blue,5eba75d1758c7a1cffb62685,2021-09-28_09h41.43.532,forced_choiceRT_color,2021.2.3,Win32,94.87666034,,,,,,,,5,Ontime,long,f,1,1.9576,0,2,2,1,1,,,,,
1.62,,,,,,,,,f,blue,5eba75d1758c7a1cffb62685,2021-09-28_09h41.43.532,forced_choiceRT_color,2021.2.3,Win32,94.87666034,,,,,,,,5,Ontime,long,f,1,2.0138,0,3,3,1,1,,,,,
0.59,,,,,,,,,k,purple,5eba75d1758c7a1cffb62685,2021-09-28_09h41.43.532,forced_choiceRT_color,2021.2.3,Win32,94.87666034,,,,,,,,5,Ontime,long,k,1,1.9717,1,0,4,3,1,,,,,
1.41,,,,,,,,,d,orange,5eba75d1758c7a1cffb62685,2021-09-28_09h41.43.532,forced_choiceRT_color,2021.2.3,Win32,94.87666034,,,,,,,,5,Ontime,long,d,1,2.0929,1,1,5,0,1,,,,,
0.71,,,,,,,,,d,orange,5eba75d1758c7a1cffb62685,2021-09-28_09h41.43.532,forced_choiceRT_color,2021.2.3,Win32,94.87666034,,,,,,,,5,Ontime,long,d,1,2.0358,1,2,6,0,1,,,,,
0.57,,,,,,,,,d,orange,5eba75d1758c7a1cffb62685,2021-09-28_09h41.43.532,forced_choiceRT_color,2021.2.3,Win32,94.87666034,,,,,,,,5,Ontime,long,d,1,2.0289,1,3,7,0,1,,,,,
0.36,,,,,,,,,d,orange,5eba75d1758c7a1cffb62685,2021-09-28_09h41.43.532,forced_choiceRT_color,2021.2.3,Win32,94.87666034,,,,,,,,5,Ontime,long,d,1,2.0192,2,0,8,0,1,,,,,
0.26,,,,,,,,,j,red,5eba75d1758c7a1cffb62685,2021-09-28_09h41.43.532,forced_choiceRT_color,2021.2.3,Win32,94.87666034,,,,,,,,5,Ontime,long,j,1,2.0039,2,1,9,2,1,,,,,
1.52,,,,,,,,,k,purple,5eba75d1758c7a1cffb62685,2021-09-28_09h41.43.532,forced_choiceRT_color,2021.2.3,Win32,94.87666034,,,,,,,,5,Ontime,long,k,1,2.0132,2,2,10,3,1,,,,,
1.21,,,,,,,,,j,red,5eba75d1758c7a1cffb62685,2021-09-28_09h41.43.532,forced_choiceRT_color,2021.2.3,Win32,94.87666034,,,,,,,,5,Ontime,long,j,1,2.0916,2,3,11,2,1,,,,,
0.13,,,,,,,,,d,orange,5eba75d1758c7a1cffb62685,2021-09-28_09h41.43.532,forced_choiceRT_color,2021.2.3,Win32,94.87666034,,,,,,,,5,Ontime,long,d,1,2.0106,3,0,12,0,1,,,,,
0.41,,,,,,,,,k,purple,5eba75d1758c7a1cffb62685,2021-09-28_09h41.43.532,forced_choiceRT_color,2021.2.3,Win32,94.87666034,,,,,,,,5,Ontime,long,k,1,1.9563,3,1,13,3,1,,,,,
0.62,,,,,,,,,k,purple,5eba75d1758c7a1cffb62685,2021-09-28_09h41.43.532,forced_choiceRT_color,2021.2.3,Win32,94.87666034,,,,,,,,5,Ontime,long,k,1,1.9789,3,2,14,3,1,,,,,
1.19,,,,,,,,,f,blue,5eba75d1758c7a1cffb62685,2021-09-28_09h41.43.532,forced_choiceRT_color,2021.2.3,Win32,94.87666034,,,,,,,,5,Ontime,long,f,1,2.0367,3,3,15,1,1,,,,,
1.63,,,,,,,,,k,purple,5eba75d1758c7a1cffb62685,2021-09-28_09h41.43.532,forced_choiceRT_color,2021.2.3,Win32,94.87666034,,,,,,,,5,Ontime,long,k,1,2.0787,4,0,16,3,1,,,,,
1.12,,,,,,,,,k,purple,5eba75d1758c7a1cffb62685,2021-09-28_09h41.43.532,forced_choiceRT_color,2021.2.3,Win32,94.87666034,,,,,,,,5,Ontime,long,k,1,2.0637,4,1,17,3,1,,,,,
1.21,,,,,,,,,d,orange,5eba75d1758c7a1cffb62685,2021-09-28_09h41.43.532,forced_choiceRT_color,2021.2.3,Win32,94.87666034,,,,,,,,5,Ontime,long,d,1,2.0451,4,2,18,0,1,,,,,
0.57,,,,,,,,,f,blue,5eba75d1758c7a1cffb62685,2021-09-28_09h41.43.532,forced_choiceRT_color,2021.2.3,Win32,94.87666034,,,,,,,,5,Ontime,long,f,1,2.0289,4,3,19,1,1,,,,,
0.49,,,,,,,,,d,orange,5eba75d1758c7a1cffb62685,2021-09-28_09h41.43.532,forced_choiceRT_color,2021.2.3,Win32,94.87666034,,,,,,,,5,Ontime,long,d,1,1.9942,5,0,20,0,1,,,,,
1.05,,,,,,,,,j,red,5eba75d1758c7a1cffb62685,2021-09-28_09h41.43.532,forced_choiceRT_color,2021.2.3,Win32,94.87666034,,,,,,,,5,Ontime,long,j,1,2.078,5,1,21,2,1,,,,,
0.75,,,,,,,,,j,red,5eba75d1758c7a1cffb62685,2021-09-28_09h41.43.532,forced_choiceRT_color,2021.2.3,Win32,94.87666034,,,,,,,,5,Ontime,long,j,1,2.0467,5,2,22,2,1,,,,,
1.92,,,,,,,,,j,red,5eba75d1758c7a1cffb62685,2021-09-28_09h41.43.532,forced_choiceRT_color,2021.2.3,Win32,94.87666034,,,,,,,,5,Ontime,long,j,1,2.0867,5,3,23,2,1,,,,,
0.09,,,,,,,,,f,blue,5eba75d1758c7a1cffb62685,2021-09-28_09h41.43.532,forced_choiceRT_color,2021.2.3,Win32,94.87666034,,,,,,,,5,Ontime,long,f,1,2.0053,6,0,24,1,1,,,,,
0.06,,,,,,,,,j,red,5eba75d1758c7a1cffb62685,2021-09-28_09h41.43.532,forced_choiceRT_color,2021.2.3,Win32,94.87666034,,,,,,,,5,Ontime,long,j,1,1.9911,6,1,25,2,1,,,,,
0.07,,,,,,,,,f,blue,5eba75d1758c7a1cffb62685,2021-09-28_09h41.43.532,forced_choiceRT_color,2021.2.3,Win32,94.87666034,,,,,,,,5,Ontime,long,f,1,2.0299,6,2,26,1,1,,,,,
0.2,,,,,,,,,d,orange,5eba75d1758c7a1cffb62685,2021-09-28_09h41.43.532,forced_choiceRT_color,2021.2.3,Win32,94.87666034,,,,,,,,5,Ontime,long,d,1,2.0035,6,3,27,0,1,,,,,
0.93,,,,,,,,,f,blue,5eba75d1758c7a1cffb62685,2021-09-28_09h41.43.532,forced_choiceRT_color,2021.2.3,Win32,94.87666034,,,,,,,,5,Ontime,long,f,1,2.0689,7,0,28,1,1,,,,,
0.44,,,,,,,,,f,blue,5eba75d1758c7a1cffb62685,2021-09-28_09h41.43.532,forced_choiceRT_color,2021.2.3,Win32,94.87666034,,,,,,,,5,Ontime,long,f,1,2.008,7,1,29,1,1,,,,,
0.08,,,,,,,,,d,orange,5eba75d1758c7a1cffb62685,2021-09-28_09h41.43.532,forced_choiceRT_color,2021.2.3,Win32,94.87666034,,,,,,,,5,Ontime,long,d,1,1.9946,7,2,30,0,1,,,,,
0.66,,,,,,,,,k,purple,5eba75d1758c7a1cffb62685,2021-09-28_09h41.43.532,forced_choiceRT_color,2021.2.3,Win32,94.87666034,,,,,,,,5,Ontime,long,k,1,1.9584,7,3,31,3,1,,,,,
1.25,,,,,,,,,j,red,5eba75d1758c7a1cffb62685,2021-09-28_09h41.43.532,forced_choiceRT_color,2021.2.3,Win32,94.87666034,,,,,,,,5,Ontime,long,j,1,2.0531,8,0,32,2,1,,,,,
0.84,,,,,,,,,f,blue,5eba75d1758c7a1cffb62685,2021-09-28_09h41.43.532,forced_choiceRT_color,2021.2.3,Win32,94.87666034,,,,,,,,5,Ontime,long,f,1,1.9902,8,1,33,1,1,,,,,
0.62,,,,,,,,,k,purple,5eba75d1758c7a1cffb62685,2021-09-28_09h41.43.532,forced_choiceRT_color,2021.2.3,Win32,94.87666034,,,,,,,,5,Ontime,long,k,1,1.973,8,2,34,3,1,,,,,
1.32,,,,,,,,,j,red,5eba75d1758c7a1cffb62685,2021-09-28_09h41.43.532,forced_choiceRT_color,2021.2.3,Win32,94.87666034,,,,,,,,5,Ontime,long,j,1,2.006,8,3,35,2,1,,,,,
0.13,,,,,,,,,j,red,5eba75d1758c7a1cffb62685,2021-09-28_09h41.43.532,forced_choiceRT_color,2021.2.3,Win32,94.87666034,,,,,,,,5,Ontime,long,j,1,1.9617,9,0,36,2,1,,,,,
0.38,,,,,,,,,j,red,5eba75d1758c7a1cffb62685,2021-09-28_09h41.43.532,forced_choiceRT_color,2021.2.3,Win32,94.87666034,,,,,,,,5,Ontime,long,j,1,1.9468,9,1,37,2,1,,,,,
0.53,,,,,,,,,k,purple,5eba75d1758c7a1cffb62685,2021-09-28_09h41.43.532,forced_choiceRT_color,2021.2.3,Win32,94.87666034,,,,,,,,5,Ontime,long,k,1,2.0694,9,2,38,3,1,,,,,
0.78,,,,,,,,,k,purple,5eba75d1758c7a1cffb62685,2021-09-28_09h41.43.532,forced_choiceRT_color,2021.2.3,Win32,94.87666034,,,,,,,,5,Ontime,long,k,1,2.001,9,3,39,3,1,,,,,
,,,,,,,,,,,5eba75d1758c7a1cffb62685,2021-09-28_09h41.43.532,forced_choiceRT_color,2021.2.3,Win32,94.87666034,,,,,,,,,,,,,,,,,,,4,0,4,0,1
1.96,,,,,,,,,d,orange,5eba75d1758c7a1cffb62685,2021-09-28_09h41.43.532,forced_choiceRT_color,2021.2.3,Win32,94.87666034,,,,,,,,6,Slow,long,k,0,2.1546,0,0,0,0,1,,,,,
1.5,,,,,,,,,d,orange,5eba75d1758c7a1cffb62685,2021-09-28_09h41.43.532,forced_choiceRT_color,2021.2.3,Win32,94.87666034,,,,,,,,6,Ontime,long,d,1,2.0056,0,1,1,0,1,,,,,
0.96,,,,,,,,,k,purple,5eba75d1758c7a1cffb62685,2021-09-28_09h41.43.532,forced_choiceRT_color,2021.2.3,Win32,94.87666034,,,,,,,,6,Ontime,long,k,1,2.0007,0,2,2,3,1,,,,,
1.86,,,,,,,,,f,blue,5eba75d1758c7a1cffb62685,2021-09-28_09h41.43.532,forced_choiceRT_color,2021.2.3,Win32,94.87666034,,,,,,,,6,Ontime,long,k,0,2.0289,0,3,3,1,1,,,,,
0.69,,,,,,,,,d,orange,5eba75d1758c7a1cffb62685,2021-09-28_09h41.43.532,forced_choiceRT_color,2021.2.3,Win32,94.87666034,,,,,,,,6,Ontime,long,d,1,1.9856,1,0,4,0,1,,,,,
0.76,,,,,,,,,f,blue,5eba75d1758c7a1cffb62685,2021-09-28_09h41.43.532,forced_choiceRT_color,2021.2.3,Win32,94.87666034,,,,,,,,6,Ontime,long,f,1,1.9696,1,1,5,1,1,,,,,
1.78,,,,,,,,,f,blue,5eba75d1758c7a1cffb62685,2021-09-28_09h41.43.532,forced_choiceRT_color,2021.2.3,Win32,94.87666034,,,,,,,,6,Ontime,long,f,1,1.9813,1,2,6,1,1,,,,,
1.9,,,,,,,,,k,purple,5eba75d1758c7a1cffb62685,2021-09-28_09h41.43.532,forced_choiceRT_color,2021.2.3,Win32,94.87666034,,,,,,,,6,Ontime,long,f,0,1.9719,1,3,7,3,1,,,,,
1.8,,,,,,,,,f,blue,5eba75d1758c7a1cffb62685,2021-09-28_09h41.43.532,forced_choiceRT_color,2021.2.3,Win32,94.87666034,,,,,,,,6,Ontime,long,k,0,1.9745,2,0,8,1,1,,,,,
0.81,,,,,,,,,d,orange,5eba75d1758c7a1cffb62685,2021-09-28_09h41.43.532,forced_choiceRT_color,2021.2.3,Win32,94.87666034,,,,,,,,6,Ontime,long,d,1,1.943,2,1,9,0,1,,,,,
1.32,,,,,,,,,k,purple,5eba75d1758c7a1cffb62685,2021-09-28_09h41.43.532,forced_choiceRT_color,2021.2.3,Win32,94.87666034,,,,,,,,6,Ontime,long,k,1,1.9852,2,2,10,3,1,,,,,
0.35,,,,,,,,,j,red,5eba75d1758c7a1cffb62685,2021-09-28_09h41.43.532,forced_choiceRT_color,2021.2.3,Win32,94.87666034,,,,,,,,6,Ontime,long,j,1,2.0086,2,3,11,2,1,,,,,
0.04,,,,,,,,,j,red,5eba75d1758c7a1cffb62685,2021-09-28_09h41.43.532,forced_choiceRT_color,2021.2.3,Win32,94.87666034,,,,,,,,6,Ontime,long,j,1,1.9716,3,0,12,2,1,,,,,
0.09,,,,,,,,,k,purple,5eba75d1758c7a1cffb62685,2021-09-28_09h41.43.532,forced_choiceRT_color,2021.2.3,Win32,94.87666034,,,,,,,,6,Ontime,long,k,1,1.9799,3,1,13,3,1,,,,,
0.13,,,,,,,,,f,blue,5eba75d1758c7a1cffb62685,2021-09-28_09h41.43.532,forced_choiceRT_color,2021.2.3,Win32,94.87666034,,,,,,,,6,Ontime,long,f,1,1.9989,3,2,14,1,1,,,,,
1.12,,,,,,,,,k,purple,5eba75d1758c7a1cffb62685,2021-09-28_09h41.43.532,forced_choiceRT_color,2021.2.3,Win32,94.87666034,,,,,,,,6,Ontime,long,k,1,2.0099,3,3,15,3,1,,,,,
0.23,,,,,,,,,k,purple,5eba75d1758c7a1cffb62685,2021-09-28_09h41.43.532,forced_choiceRT_color,2021.2.3,Win32,94.87666034,,,,,,,,6,Ontime,long,k,1,1.9804,4,0,16,3,1,,,,,
0.22,,,,,,,,,j,red,5eba75d1758c7a1cffb62685,2021-09-28_09h41.43.532,forced_choiceRT_color,2021.2.3,Win32,94.87666034,,,,,,,,6,Ontime,long,j,1,1.974,4,1,17,2,1,,,,,
1.01,,,,,,,,,j,red,5eba75d1758c7a1cffb62685,2021-09-28_09h41.43.532,forced_choiceRT_color,2021.2.3,Win32,94.87666034,,,,,,,,6,Ontime,long,j,1,2.0075,4,2,18,2,1,,,,,
1.1,,,,,,,,,j,red,5eba75d1758c7a1cffb62685,2021-09-28_09h41.43.532,forced_choiceRT_color,2021.2.3,Win32,94.87666034,,,,,,,,6,Ontime,long,j,1,2.0157,4,3,19,2,1,,,,,
1.5,,,,,,,,,j,red,5eba75d1758c7a1cffb62685,2021-09-28_09h41.43.532,forced_choiceRT_color,2021.2.3,Win32,94.87666034,,,,,,,,6,Ontime,long,j,1,1.9764,5,0,20,2,1,,,,,
0.18,,,,,,,,,j,red,5eba75d1758c7a1cffb62685,2021-09-28_09h41.43.532,forced_choiceRT_color,2021.2.3,Win32,94.87666034,,,,,,,,6,Ontime,long,j,1,1.9619,5,1,21,2,1,,,,,
1.86,,,,,,,,,k,purple,5eba75d1758c7a1cffb62685,2021-09-28_09h41.43.532,forced_choiceRT_color,2021.2.3,Win32,94.87666034,,,,,,,,6,Ontime,long,j,0,2.0072,5,2,22,3,1,,,,,
1.38,,,,,,,,,k,purple,5eba75d1758c7a1cffb62685,2021-09-28_09h41.43.532,forced_choiceRT_color,2021.2.3,Win32,94.87666034,,,,,,,,6,Ontime,long,k,1,2.0091,5,3,23,3,1,,,,,
1.33,,,,,,,,,d,orange,5eba75d1758c7a1cffb62685,2021-09-28_09h41.43.532,forced_choiceRT_color,2021.2.3,Win32,94.87666034,,,,,,,,6,Ontime,long,d,1,2.0105,6,0,24,0,1,,,,,
1.27,,,,,,,,,f,blue,5eba75d1758c7a1cffb62685,2021-09-28_09h41.43.532,forced_choiceRT_color,2021.2.3,Win32,94.87666034,,,,,,,,6,Ontime,long,f,1,2.0456,6,1,25,1,1,,,,,
0.5,,,,,,,,,j,red,5eba75d1758c7a1cffb62685,2021-09-28_09h41.43.532,forced_choiceRT_color,2021.2.3,Win32,94.87666034,,,,,,,,6,Ontime,long,j,1,1.9407,6,2,26,2,1,,,,,
0.82,,,,,,,,,j,red,5eba75d1758c7a1cffb62685,2021-09-28_09h41.43.532,forced_choiceRT_color,2021.2.3,Win32,94.87666034,,,,,,,,6,Ontime,long,j,1,1.9811,6,3,27,2,1,,,,,
0.14,,,,,,,,,f,blue,5eba75d1758c7a1cffb62685,2021-09-28_09h41.43.532,forced_choiceRT_color,2021.2.3,Win32,94.87666034,,,,,,,,6,Ontime,long,f,1,1.9412,7,0,28,1,1,,,,,
1.57,,,,,,,,,d,orange,5eba75d1758c7a1cffb62685,2021-09-28_09h41.43.532,forced_choiceRT_color,2021.2.3,Win32,94.87666034,,,,,,,,6,Ontime,long,d,1,2.0316,7,1,29,0,1,,,,,
1.52,,,,,,,,,f,blue,5eba75d1758c7a1cffb62685,2021-09-28_09h41.43.532,forced_choiceRT_color,2021.2.3,Win32,94.87666034,,,,,,,,6,Ontime,long,f,1,2.0194,7,2,30,1,1,,,,,
0.79,,,,,,,,,k,purple,5eba75d1758c7a1cffb62685,2021-09-28_09h41.43.532,forced_choiceRT_color,2021.2.3,Win32,94.87666034,,,,,,,,6,Ontime,long,k,1,1.9464,7,3,31,3,1,,,,,
1.18,,,,,,,,,d,orange,5eba75d1758c7a1cffb62685,2021-09-28_09h41.43.532,forced_choiceRT_color,2021.2.3,Win32,94.87666034,,,,,,,,6,Ontime,long,d,1,2.0213,8,0,32,0,1,,,,,
0.04,,,,,,,,,d,orange,5eba75d1758c7a1cffb62685,2021-09-28_09h41.43.532,forced_choiceRT_color,2021.2.3,Win32,94.87666034,,,,,,,,6,Ontime,long,d,1,2.0044,8,1,33,0,1,,,,,
1.92,,,,,,,,,f,blue,5eba75d1758c7a1cffb62685,2021-09-28_09h41.43.532,forced_choiceRT_color,2021.2.3,Win32,94.87666034,,,,,,,,6,Ontime,long,d,0,2.0382,8,2,34,1,1,,,,,
1.91,,,,,,,,,d,orange,5eba75d1758c7a1cffb62685,2021-09-28_09h41.43.532,forced_choiceRT_color,2021.2.3,Win32,94.87666034,,,,,,,,6,Ontime,long,f,0,2.034,8,3,35,0,1,,,,,
0.6,,,,,,,,,f,blue,5eba75d1758c7a1cffb62685,2021-09-28_09h41.43.532,forced_choiceRT_color,2021.2.3,Win32,94.87666034,,,,,,,,6,Ontime,long,f,1,1.9874,9,0,36,1,1,,,,,
1.41,,,,,,,,,j,red,5eba75d1758c7a1cffb62685,2021-09-28_09h41.43.532,forced_choiceRT_color,2021.2.3,Win32,94.87666034,,,,,,,,6,Ontime,long,j,1,2.0588,9,1,37,2,1,,,,,
1.45,,,,,,,,,k,purple,5eba75d1758c7a1cffb62685,2021-09-28_09h41.43.532,forced_choiceRT_color,2021.2.3,Win32,94.87666034,,,,,,,,6,Ontime,long,k,1,2.0165,9,2,38,3,1,,,,,
1.26,,,,,,,,,d,orange,5eba75d1758c7a1cffb62685,2021-09-28_09h41.43.532,forced_choiceRT_color,2021.2.3,Win32,94.87666034,,,,,,,,6,Ontime,long,d,1,2.0155,9,3,39,0,1,,,,,
,,,,,,,,,,,5eba75d1758c7a1cffb62685,2021-09-28_09h41.43.532,forced_choiceRT_color,2021.2.3,Win32,94.87666034,,,,,,,,,,,,,,,,,,,5,0,5,0,1
1.97,,,,,,,,,j,red,5eba75d1758c7a1cffb62685,2021-09-28_09h41.43.532,forced_choiceRT_color,2021.2.3,Win32,94.87666034,,,,,,,,7,Slow,long,k,0,2.2691,0,0,0,2,1,,,,,
0.61,,,,,,,,,j,red,5eba75d1758c7a1cffb62685,2021-09-28_09h41.43.532,forced_choiceRT_color,2021.2.3,Win32,94.87666034,,,,,,,,7,Ontime,long,j,1,1.9839,0,1,1,2,1,,,,,
0.35,,,,,,,,,f,blue,5eba75d1758c7a1cffb62685,2021-09-28_09h41.43.532,forced_choiceRT_color,2021.2.3,Win32,94.87666034,,,,,,,,7,Ontime,long,f,1,1.974,0,2,2,1,1,,,,,
0.65,,,,,,,,,d,orange,5eba75d1758c7a1cffb62685,2021-09-28_09h41.43.532,forced_choiceRT_color,2021.2.3,Win32,94.87666034,,,,,,,,7,Ontime,long,d,1,1.9799,0,3,3,0,1,,,,,
0.3,,,,,,,,,k,purple,5eba75d1758c7a1cffb62685,2021-09-28_09h41.43.532,forced_choiceRT_color,2021.2.3,Win32,94.87666034,,,,,,,,7,Ontime,long,k,1,1.9347,1,0,4,3,1,,,,,
0.93,,,,,,,,,j,red,5eba75d1758c7a1cffb62685,2021-09-28_09h41.43.532,forced_choiceRT_color,2021.2.3,Win32,94.87666034,,,,,,,,7,Ontime,long,j,1,2.0106,1,1,5,2,1,,,,,
1.67,,,,,,,,,k,purple,5eba75d1758c7a1cffb62685,2021-09-28_09h41.43.532,forced_choiceRT_color,2021.2.3,Win32,94.87666034,,,,,,,,7,Ontime,long,k,1,2.0041,1,2,6,3,1,,,,,
0.56,,,,,,,,,f,blue,5eba75d1758c7a1cffb62685,2021-09-28_09h41.43.532,forced_choiceRT_color,2021.2.3,Win32,94.87666034,,,,,,,,7,Ontime,long,f,1,1.9577,1,3,7,1,1,,,,,
1.29,,,,,,,,,k,purple,5eba75d1758c7a1cffb62685,2021-09-28_09h41.43.532,forced_choiceRT_color,2021.2.3,Win32,94.87666034,,,,,,,,7,Ontime,long,k,1,1.9724,2,0,8,3,1,,,,,
1.46,,,,,,,,,f,blue,5eba75d1758c7a1cffb62685,2021-09-28_09h41.43.532,forced_choiceRT_color,2021.2.3,Win32,94.87666034,,,,,,,,7,Ontime,long,f,1,1.9579,2,1,9,1,1,,,,,
0.41,,,,,,,,,d,orange,5eba75d1758c7a1cffb62685,2021-09-28_09h41.43.532,forced_choiceRT_color,2021.2.3,Win32,94.87666034,,,,,,,,7,Ontime,long,d,1,1.9318,2,2,10,0,1,,,,,
0.5,,,,,,,,,k,purple,5eba75d1758c7a1cffb62685,2021-09-28_09h41.43.532,forced_choiceRT_color,2021.2.3,Win32,94.87666034,,,,,,,,7,Ontime,long,k,1,1.9533,2,3,11,3,1,,,,,
0.1,,,,,,,,,k,purple,5eba75d1758c7a1cffb62685,2021-09-28_09h41.43.532,forced_choiceRT_color,2021.2.3,Win32,94.87666034,,,,,,,,7,Ontime,long,k,1,1.9121,3,0,12,3,1,,,,,
0.89,,,,,,,,,d,orange,5eba75d1758c7a1cffb62685,2021-09-28_09h41.43.532,forced_choiceRT_color,2021.2.3,Win32,94.87666034,,,,,,,,7,Ontime,long,d,1,1.9762,3,1,13,0,1,,,,,
1.52,,,,,,,,,f,blue,5eba75d1758c7a1cffb62685,2021-09-28_09h41.43.532,forced_choiceRT_color,2021.2.3,Win32,94.87666034,,,,,,,,7,Ontime,long,f,1,1.9933,3,2,14,1,1,,,,,
1.9,,,,,,,,,d,orange,5eba75d1758c7a1cffb62685,2021-09-28_09h41.43.532,forced_choiceRT_color,2021.2.3,Win32,94.87666034,,,,,,,,7,Slow,long,d,1,2.1826,3,3,15,0,1,,,,,
0.65,,,,,,,,,j,red,5eba75d1758c7a1cffb62685,2021-09-28_09h41.43.532,forced_choiceRT_color,2021.2.3,Win32,94.87666034,,,,,,,,7,Ontime,long,j,1,1.9432,4,0,16,2,1,,,,,
1.71,,,,,,,,,j,red,5eba75d1758c7a1cffb62685,2021-09-28_09h41.43.532,forced_choiceRT_color,2021.2.3,Win32,94.87666034,,,,,,,,7,Ontime,long,j,1,1.9619,4,1,17,2,1,,,,,
0.6,,,,,,,,,k,purple,5eba75d1758c7a1cffb62685,2021-09-28_09h41.43.532,forced_choiceRT_color,2021.2.3,Win32,94.87666034,,,,,,,,7,Ontime,long,k,1,1.9827,4,2,18,3,1,,,,,
1.98,,,,,,,,,k,purple,5eba75d1758c7a1cffb62685,2021-09-28_09h41.43.532,forced_choiceRT_color,2021.2.3,Win32,94.87666034,,,,,,,,7,Ontime,long,k,1,1.9876,4,3,19,3,1,,,,,
1.02,,,,,,,,,f,blue,5eba75d1758c7a1cffb62685,2021-09-28_09h41.43.532,forced_choiceRT_color,2021.2.3,Win32,94.87666034,,,,,,,,7,Ontime,long,f,1,1.9842,5,0,20,1,1,,,,,
0.21,,,,,,,,,f,blue,5eba75d1758c7a1cffb62685,2021-09-28_09h41.43.532,forced_choiceRT_color,2021.2.3,Win32,94.87666034,,,,,,,,7,Ontime,long,f,1,1.9223,5,1,21,1,1,,,,,
1.37,,,,,,,,,d,orange,5eba75d1758c7a1cffb62685,2021-09-28_09h41.43.532,forced_choiceRT_color,2021.2.3,Win32,94.87666034,,,,,,,,7,Ontime,long,d,1,1.9763,5,2,22,0,1,,,,,
0.69,,,,,,,,,k,purple,5eba75d1758c7a1cffb62685,2021-09-28_09h41.43.532,forced_choiceRT_color,2021.2.3,Win32,94.87666034,,,,,,,,7,Ontime,long,k,1,2.0423,5,3,23,3,1,,,,,
1.84,,,,,,,,,f,blue,5eba75d1758c7a1cffb62685,2021-09-28_09h41.43.532,forced_choiceRT_color,2021.2.3,Win32,94.87666034,,,,,,,,7,Ontime,long,k,0,2.0524,6,0,24,1,1,,,,,
1.77,,,,,,,,,j,red,5eba75d1758c7a1cffb62685,2021-09-28_09h41.43.532,forced_choiceRT_color,2021.2.3,Win32,94.87666034,,,,,,,,7,Ontime,long,f,0,2.0775,6,1,25,2,1,,,,,
1.63,,,,,,,,,k,purple,5eba75d1758c7a1cffb62685,2021-09-28_09h41.43.532,forced_choiceRT_color,2021.2.3,Win32,94.87666034,,,,,,,,7,Ontime,long,k,1,2.0858,6,2,26,3,1,,,,,
0.59,,,,,,,,,d,orange,5eba75d1758c7a1cffb62685,2021-09-28_09h41.43.532,forced_choiceRT_color,2021.2.3,Win32,94.87666034,,,,,,,,7,Ontime,long,d,1,2.0051,6,3,27,0,1,,,,,
0.66,,,,,,,,,f,blue,5eba75d1758c7a1cffb62685,2021-09-28_09h41.43.532,forced_choiceRT_color,2021.2.3,Win32,94.87666034,,,,,,,,7,Ontime,long,f,1,1.9932,7,0,28,1,1,,,,,
1.63,,,,,,,,,f,blue,5eba75d1758c7a1cffb62685,2021-09-28_09h41.43.532,forced_choiceRT_color,2021.2.3,Win32,94.87666034,,,,,,,,7,Ontime,long,f,1,2.0204,7,1,29,1,1,,,,,
1.73,,,,,,,,,d,orange,5eba75d1758c7a1cffb62685,2021-09-28_09h41.43.532,forced_choiceRT_color,2021.2.3,Win32,94.87666034,,,,,,,,7,Slow,long,d,1,2.3405,7,2,30,0,1,,,,,
0.4,,,,,,,,,j,red,5eba75d1758c7a1cffb62685,2021-09-28_09h41.43.532,forced_choiceRT_color,2021.2.3,Win32,94.87666034,,,,,,,,7,Ontime,long,j,1,1.9959,7,3,31,2,1,,,,,
0.56,,,,,,,,,d,orange,5eba75d1758c7a1cffb62685,2021-09-28_09h41.43.532,forced_choiceRT_color,2021.2.3,Win32,94.87666034,,,,,,,,7,Ontime,long,d,1,2.0111,8,0,32,0,1,,,,,
1.83,,,,,,,,,d,orange,5eba75d1758c7a1cffb62685,2021-09-28_09h41.43.532,forced_choiceRT_color,2021.2.3,Win32,94.87666034,,,,,,,,7,Ontime,long,d,1,2.0136,8,1,33,0,1,,,,,
1.72,,,,,,,,,d,orange,5eba75d1758c7a1cffb62685,2021-09-28_09h41.43.532,forced_choiceRT_color,2021.2.3,Win32,94.87666034,,,,,,,,7,Ontime,long,d,1,2.0372,8,2,34,0,1,,,,,
1.25,,,,,,,,,j,red,5eba75d1758c7a1cffb62685,2021-09-28_09h41.43.532,forced_choiceRT_color,2021.2.3,Win32,94.87666034,,,,,,,,7,Ontime,long,j,1,2.0383,8,3,35,2,1,,,,,
0.24,,,,,,,,,j,red,5eba75d1758c7a1cffb62685,2021-09-28_09h41.43.532,forced_choiceRT_color,2021.2.3,Win32,94.87666034,,,,,,,,7,Ontime,long,j,1,2.0252,9,0,36,2,1,,,,,
1.57,,,,,,,,,j,red,5eba75d1758c7a1cffb62685,2021-09-28_09h41.43.532,forced_choiceRT_color,2021.2.3,Win32,94.87666034,,,,,,,,7,Ontime,long,j,1,2.0615,9,1,37,2,1,,,,,
1.86,,,,,,,,,f,blue,5eba75d1758c7a1cffb62685,2021-09-28_09h41.43.532,forced_choiceRT_color,2021.2.3,Win32,94.87666034,,,,,,,,7,Ontime,long,j,0,2.0766,9,2,38,1,1,,,,,
1.63,,,,,,,,,k,purple,5eba75d1758c7a1cffb62685,2021-09-28_09h41.43.532,forced_choiceRT_color,2021.2.3,Win32,94.87666034,,,,,,,,7,Ontime,long,f,0,2.0453,9,3,39,3,1,,,,,
,,,,,,,,,,,5eba75d1758c7a1cffb62685,2021-09-28_09h41.43.532,forced_choiceRT_color,2021.2.3,Win32,94.87666034,,,,,,,,,,,,,,,,,,,6,0,6,0,1
1.71,,,,,,,,,k,purple,5eba75d1758c7a1cffb62685,2021-09-28_09h41.43.532,forced_choiceRT_color,2021.2.3,Win32,94.87666034,,,,,,,,8,Ontime,long,k,1,2.0445,0,0,0,3,1,,,,,
0.9,,,,,,,,,f,blue,5eba75d1758c7a1cffb62685,2021-09-28_09h41.43.532,forced_choiceRT_color,2021.2.3,Win32,94.87666034,,,,,,,,8,Ontime,long,f,1,2.0039,0,1,1,1,1,,,,,
1.11,,,,,,,,,j,red,5eba75d1758c7a1cffb62685,2021-09-28_09h41.43.532,forced_choiceRT_color,2021.2.3,Win32,94.87666034,,,,,,,,8,Ontime,long,j,1,2.0064,0,2,2,2,1,,,,,
1.19,,,,,,,,,d,orange,5eba75d1758c7a1cffb62685,2021-09-28_09h41.43.532,forced_choiceRT_color,2021.2.3,Win32,94.87666034,,,,,,,,8,Ontime,long,d,1,2.064,0,3,3,0,1,,,,,
1.61,,,,,,,,,j,red,5eba75d1758c7a1cffb62685,2021-09-28_09h41.43.532,forced_choiceRT_color,2021.2.3,Win32,94.87666034,,,,,,,,8,Ontime,long,j,1,2.0722,1,0,4,2,1,,,,,
0.17,,,,,,,,,f,blue,5eba75d1758c7a1cffb62685,2021-09-28_09h41.43.532,forced_choiceRT_color,2021.2.3,Win32,94.87666034,,,,,,,,8,Ontime,long,f,1,1.9781,1,1,5,1,1,,,,,
0.52,,,,,,,,,k,purple,5eba75d1758c7a1cffb62685,2021-09-28_09h41.43.532,forced_choiceRT_color,2021.2.3,Win32,94.87666034,,,,,,,,8,Ontime,long,k,1,2.0041,1,2,6,3,1,,,,,
1.13,,,,,,,,,j,red,5eba75d1758c7a1cffb62685,2021-09-28_09h41.43.532,forced_choiceRT_color,2021.2.3,Win32,94.87666034,,,,,,,,8,Ontime,long,j,1,2.0231,1,3,7,2,1,,,,,
1.74,,,,,,,,,d,orange,5eba75d1758c7a1cffb62685,2021-09-28_09h41.43.532,forced_choiceRT_color,2021.2.3,Win32,94.87666034,,,,,,,,8,Ontime,long,d,1,2.0765,2,0,8,0,1,,,,,
1.3,,,,,,,,,k,purple,5eba75d1758c7a1cffb62685,2021-09-28_09h41.43.532,forced_choiceRT_color,2021.2.3,Win32,94.87666034,,,,,,,,8,Ontime,long,k,1,1.987,2,1,9,3,1,,,,,
0.93,,,,,,,,,f,blue,5eba75d1758c7a1cffb62685,2021-09-28_09h41.43.532,forced_choiceRT_color,2021.2.3,Win32,94.87666034,,,,,,,,8,Ontime,long,f,1,1.9395,2,2,10,1,1,,,,,
1.5,,,,,,,,,f,blue,5eba75d1758c7a1cffb62685,2021-09-28_09h41.43.532,forced_choiceRT_color,2021.2.3,Win32,94.87666034,,,,,,,,8,Ontime,long,f,1,2.0608,2,3,11,1,1,,,,,
0.22,,,,,,,,,d,orange,5eba75d1758c7a1cffb62685,2021-09-28_09h41.43.532,forced_choiceRT_color,2021.2.3,Win32,94.87666034,,,,,,,,8,Ontime,long,d,1,1.9858,3,0,12,0,1,,,,,
0.78,,,,,,,,,d,orange,5eba75d1758c7a1cffb62685,2021-09-28_09h41.43.532,forced_choiceRT_color,2021.2.3,Win32,94.87666034,,,,,,,,8,Ontime,long,d,1,1.9609,3,1,13,0,1,,,,,
0.53,,,,,,,,,d,orange,5eba75d1758c7a1cffb62685,2021-09-28_09h41.43.532,forced_choiceRT_color,2021.2.3,Win32,94.87666034,,,,,,,,8,Ontime,long,d,1,1.9732,3,2,14,0,1,,,,,
1.65,,,,,,,,,j,red,5eba75d1758c7a1cffb62685,2021-09-28_09h41.43.532,forced_choiceRT_color,2021.2.3,Win32,94.87666034,,,,,,,,8,Ontime,long,d,0,2.0389,3,3,15,2,1,,,,,
0.82,,,,,,,,,j,red,5eba75d1758c7a1cffb62685,2021-09-28_09h41.43.532,forced_choiceRT_color,2021.2.3,Win32,94.87666034,,,,,,,,8,Ontime,long,j,1,1.9532,4,0,16,2,1,,,,,
1.53,,,,,,,,,k,purple,5eba75d1758c7a1cffb62685,2021-09-28_09h41.43.532,forced_choiceRT_color,2021.2.3,Win32,94.87666034,,,,,,,,8,Ontime,long,d,0,2.0408,4,1,17,3,1,,,,,
1.4,,,,,,,,,j,red,5eba75d1758c7a1cffb62685,2021-09-28_09h41.43.532,forced_choiceRT_color,2021.2.3,Win32,94.87666034,,,,,,,,8,Ontime,long,j,1,1.9301,4,2,18,2,1,,,,,
1.78,,,,,,,,,j,red,5eba75d1758c7a1cffb62685,2021-09-28_09h41.43.532,forced_choiceRT_color,2021.2.3,Win32,94.87666034,,,,,,,,8,Ontime,long,k,0,2.0379,4,3,19,2,1,,,,,
1.34,,,,,,,,,k,purple,5eba75d1758c7a1cffb62685,2021-09-28_09h41.43.532,forced_choiceRT_color,2021.2.3,Win32,94.87666034,,,,,,,,8,Ontime,long,k,1,2.0656,5,0,20,3,1,,,,,
1.14,,,,,,,,,d,orange,5eba75d1758c7a1cffb62685,2021-09-28_09h41.43.532,forced_choiceRT_color,2021.2.3,Win32,94.87666034,,,,,,,,8,Ontime,long,d,1,1.9717,5,1,21,0,1,,,,,
0.45,,,,,,,,,d,orange,5eba75d1758c7a1cffb62685,2021-09-28_09h41.43.532,forced_choiceRT_color,2021.2.3,Win32,94.87666034,,,,,,,,8,Ontime,long,d,1,1.9895,5,2,22,0,1,,,,,
1.11,,,,,,,,,d,orange,5eba75d1758c7a1cffb62685,2021-09-28_09h41.43.532,forced_choiceRT_color,2021.2.3,Win32,94.87666034,,,,,,,,8,Slow,long,d,1,2.1169,5,3,23,0,1,,,,,
1.63,,,,,,,,,f,blue,5eba75d1758c7a1cffb62685,2021-09-28_09h41.43.532,forced_choiceRT_color,2021.2.3,Win32,94.87666034,,,,,,,,8,Ontime,long,f,1,2.0387,6,0,24,1,1,,,,,
1.74,,,,,,,,,k,purple,5eba75d1758c7a1cffb62685,2021-09-28_09h41.43.532,forced_choiceRT_color,2021.2.3,Win32,94.87666034,,,,,,,,8,Ontime,long,d,0,1.9612,6,1,25,3,1,,,,,
0.65,,,,,,,,,f,blue,5eba75d1758c7a1cffb62685,2021-09-28_09h41.43.532,forced_choiceRT_color,2021.2.3,Win32,94.87666034,,,,,,,,8,Ontime,long,f,1,1.9497,6,2,26,1,1,,,,,
1.74,,,,,,,,,k,purple,5eba75d1758c7a1cffb62685,2021-09-28_09h41.43.532,forced_choiceRT_color,2021.2.3,Win32,94.87666034,,,,,,,,8,Ontime,long,d,0,2.0037,6,3,27,3,1,,,,,
0.25,,,,,,,,,d,orange,5eba75d1758c7a1cffb62685,2021-09-28_09h41.43.532,forced_choiceRT_color,2021.2.3,Win32,94.87666034,,,,,,,,8,Ontime,long,d,1,1.9583,7,0,28,0,1,,,,,
0.56,,,,,,,,,j,red,5eba75d1758c7a1cffb62685,2021-09-28_09h41.43.532,forced_choiceRT_color,2021.2.3,Win32,94.87666034,,,,,,,,8,Ontime,long,j,1,1.95,7,1,29,2,1,,,,,
1.75,,,,,,,,,j,red,5eba75d1758c7a1cffb62685,2021-09-28_09h41.43.532,forced_choiceRT_color,2021.2.3,Win32,94.87666034,,,,,,,,8,Ontime,long,j,1,2.036,7,2,30,2,1,,,,,
1.44,,,,,,,,,j,red,5eba75d1758c7a1cffb62685,2021-09-28_09h41.43.532,forced_choiceRT_color,2021.2.3,Win32,94.87666034,,,,,,,,8,Ontime,long,j,1,1.9577,7,3,31,2,1,,,,,
0.79,,,,,,,,,d,orange,5eba75d1758c7a1cffb62685,2021-09-28_09h41.43.532,forced_choiceRT_color,2021.2.3,Win32,94.87666034,,,,,,,,8,Ontime,long,d,1,1.9497,8,0,32,0,1,,,,,
1.8,,,,,,,,,f,blue,5eba75d1758c7a1cffb62685,2021-09-28_09h41.43.532,forced_choiceRT_color,2021.2.3,Win32,94.87666034,,,,,,,,8,Ontime,long,d,0,1.995,8,1,33,1,1,,,,,
1.8,,,,,,,,,k,purple,5eba75d1758c7a1cffb62685,2021-09-28_09h41.43.532,forced_choiceRT_color,2021.2.3,Win32,94.87666034,,,,,,,,8,Ontime,long,f,0,2.073,8,2,34,3,1,,,,,
1.42,,,,,,,,,f,blue,5eba75d1758c7a1cffb62685,2021-09-28_09h41.43.532,forced_choiceRT_color,2021.2.3,Win32,94.87666034,,,,,,,,8,Ontime,long,f,1,2.0034,8,3,35,1,1,,,,,
0.85,,,,,,,,,k,purple,5eba75d1758c7a1cffb62685,2021-09-28_09h41.43.532,forced_choiceRT_color,2021.2.3,Win32,94.87666034,,,,,,,,8,Ontime,long,k,1,1.9971,9,0,36,3,1,,,,,
0.63,,,,,,,,,k,purple,5eba75d1758c7a1cffb62685,2021-09-28_09h41.43.532,forced_choiceRT_color,2021.2.3,Win32,94.87666034,,,,,,,,8,Ontime,long,k,1,2.0019,9,1,37,3,1,,,,,
0.34,,,,,,,,,f,blue,5eba75d1758c7a1cffb62685,2021-09-28_09h41.43.532,forced_choiceRT_color,2021.2.3,Win32,94.87666034,,,,,,,,8,Ontime,long,f,1,1.9483,9,2,38,1,1,,,,,
0.53,,,,,,,,,f,blue,5eba75d1758c7a1cffb62685,2021-09-28_09h41.43.532,forced_choiceRT_color,2021.2.3,Win32,94.87666034,,,,,,,,8,Ontime,long,f,1,1.9698,9,3,39,1,1,,,,,
,,,,,,,,,,,5eba75d1758c7a1cffb62685,2021-09-28_09h41.43.532,forced_choiceRT_color,2021.2.3,Win32,94.87666034,,,,,,,,,,,,,,,,,,,7,0,7,0,1
0.5,,,,,,,,,j,red,5eba75d1758c7a1cffb62685,2021-09-28_09h41.43.532,forced_choiceRT_color,2021.2.3,Win32,94.87666034,,,,,,,,9,Ontime,long,j,1,1.9761,0,0,0,2,1,,,,,
0.25,,,,,,,,,f,blue,5eba75d1758c7a1cffb62685,2021-09-28_09h41.43.532,forced_choiceRT_color,2021.2.3,Win32,94.87666034,,,,,,,,9,Fast,long,f,1,1.8991,0,1,1,1,1,,,,,
1.79,,,,,,,,,f,blue,5eba75d1758c7a1cffb62685,2021-09-28_09h41.43.532,forced_choiceRT_color,2021.2.3,Win32,94.87666034,,,,,,,,9,Ontime,long,f,1,2.0005,0,2,2,1,1,,,,,
0.54,,,,,,,,,f,blue,5eba75d1758c7a1cffb62685,2021-09-28_09h41.43.532,forced_choiceRT_color,2021.2.3,Win32,94.87666034,,,,,,,,9,Ontime,long,f,1,1.9899,0,3,3,1,1,,,,,
1.82,,,,,,,,,k,purple,5eba75d1758c7a1cffb62685,2021-09-28_09h41.43.532,forced_choiceRT_color,2021.2.3,Win32,94.87666034,,,,,,,,9,Ontime,long,f,0,1.9814,1,0,4,3,1,,,,,
0.35,,,,,,,,,d,orange,5eba75d1758c7a1cffb62685,2021-09-28_09h41.43.532,forced_choiceRT_color,2021.2.3,Win32,94.87666034,,,,,,,,9,Ontime,long,d,1,1.9874,1,1,5,0,1,,,,,
0.4,,,,,,,,,k,purple,5eba75d1758c7a1cffb62685,2021-09-28_09h41.43.532,forced_choiceRT_color,2021.2.3,Win32,94.87666034,,,,,,,,9,Ontime,long,k,1,1.9635,1,2,6,3,1,,,,,
0.43,,,,,,,,,j,red,5eba75d1758c7a1cffb62685,2021-09-28_09h41.43.532,forced_choiceRT_color,2021.2.3,Win32,94.87666034,,,,,,,,9,Ontime,long,j,1,1.9591,1,3,7,2,1,,,,,
0.6,,,,,,,,,k,purple,5eba75d1758c7a1cffb62685,2021-09-28_09h41.43.532,forced_choiceRT_color,2021.2.3,Win32,94.87666034,,,,,,,,9,Ontime,long,k,1,1.9572,2,0,8,3,1,,,,,
0.42,,,,,,,,,d,orange,5eba75d1758c7a1cffb62685,2021-09-28_09h41.43.532,forced_choiceRT_color,2021.2.3,Win32,94.87666034,,,,,,,,9,Ontime,long,d,1,1.9732,2,1,9,0,1,,,,,
1.2,,,,,,,,,f,blue,5eba75d1758c7a1cffb62685,2021-09-28_09h41.43.532,forced_choiceRT_color,2021.2.3,Win32,94.87666034,,,,,,,,9,Ontime,long,j,0,1.9829,2,2,10,1,1,,,,,
1.3,,,,,,,,,j,red,5eba75d1758c7a1cffb62685,2021-09-28_09h41.43.532,forced_choiceRT_color,2021.2.3,Win32,94.87666034,,,,,,,,9,Ontime,long,j,1,1.9968,2,3,11,2,1,,,,,
0.84,,,,,,,,,k,purple,5eba75d1758c7a1cffb62685,2021-09-28_09h41.43.532,forced_choiceRT_color,2021.2.3,Win32,94.87666034,,,,,,,,9,Ontime,long,k,1,1.946,3,0,12,3,1,,,,,
0.38,,,,,,,,,d,orange,5eba75d1758c7a1cffb62685,2021-09-28_09h41.43.532,forced_choiceRT_color,2021.2.3,Win32,94.87666034,,,,,,,,9,Ontime,long,d,1,1.9559,3,1,13,0,1,,,,,
1.74,,,,,,,,,f,blue,5eba75d1758c7a1cffb62685,2021-09-28_09h41.43.532,forced_choiceRT_color,2021.2.3,Win32,94.87666034,,,,,,,,9,Slow,long,d,0,2.2029,3,2,14,1,1,,,,,
1.53,,,,,,,,,d,orange,5eba75d1758c7a1cffb62685,2021-09-28_09h41.43.532,forced_choiceRT_color,2021.2.3,Win32,94.87666034,,,,,,,,9,Ontime,long,d,1,1.9969,3,3,15,0,1,,,,,
0.32,,,,,,,,,j,red,5eba75d1758c7a1cffb62685,2021-09-28_09h41.43.532,forced_choiceRT_color,2021.2.3,Win32,94.87666034,,,,,,,,9,Ontime,long,j,1,1.9691,4,0,16,2,1,,,,,
1.31,,,,,,,,,d,orange,5eba75d1758c7a1cffb62685,2021-09-28_09h41.43.532,forced_choiceRT_color,2021.2.3,Win32,94.87666034,,,,,,,,9,Ontime,long,d,1,1.9826,4,1,17,0,1,,,,,
1.97,,,,,,,,,f,blue,5eba75d1758c7a1cffb62685,2021-09-28_09h41.43.532,forced_choiceRT_color,2021.2.3,Win32,94.87666034,,,,,,,,9,Ontime,long,d,0,1.997,4,2,18,1,1,,,,,
0.11,,,,,,,,,d,orange,5eba75d1758c7a1cffb62685,2021-09-28_09h41.43.532,forced_choiceRT_color,2021.2.3,Win32,94.87666034,,,,,,,,9,Ontime,long,d,1,2.0173,4,3,19,0,1,,,,,
0.02,,,,,,,,,f,blue,5eba75d1758c7a1cffb62685,2021-09-28_09h41.43.532,forced_choiceRT_color,2021.2.3,Win32,94.87666034,,,,,,,,9,Ontime,long,f,1,1.9768,5,0,20,1,1,,,,,
1.37,,,,,,,,,j,red,5eba75d1758c7a1cffb62685,2021-09-28_09h41.43.532,forced_choiceRT_color,2021.2.3,Win32,94.87666034,,,,,,,,9,Ontime,long,j,1,2.0277,5,1,21,2,1,,,,,
1.32,,,,,,,,,j,red,5eba75d1758c7a1cffb62685,2021-09-28_09h41.43.532,forced_choiceRT_color,2021.2.3,Win32,94.87666034,,,,,,,,9,Ontime,long,j,1,2.0319,5,2,22,2,1,,,,,
0.24,,,,,,,,,d,orange,5eba75d1758c7a1cffb62685,2021-09-28_09h41.43.532,forced_choiceRT_color,2021.2.3,Win32,94.87666034,,,,,,,,9,Slow,long,d,1,2.1563,5,3,23,0,1,,,,,
0.3,,,,,,,,,d,orange,5eba75d1758c7a1cffb62685,2021-09-28_09h41.43.532,forced_choiceRT_color,2021.2.3,Win32,94.87666034,,,,,,,,9,Ontime,long,d,1,1.957,6,0,24,0,1,,,,,
1.02,,,,,,,,,d,orange,5eba75d1758c7a1cffb62685,2021-09-28_09h41.43.532,forced_choiceRT_color,2021.2.3,Win32,94.87666034,,,,,,,,9,Ontime,long,d,1,2.0113,6,1,25,0,1,,,,,
1.04,,,,,,,,,d,orange,5eba75d1758c7a1cffb62685,2021-09-28_09h41.43.532,forced_choiceRT_color,2021.2.3,Win32,94.87666034,,,,,,,,9,Ontime,long,d,1,1.9821,6,2,26,0,1,,,,,
1.74,,,,,,,,,j,red,5eba75d1758c7a1cffb62685,2021-09-28_09h41.43.532,forced_choiceRT_color,2021.2.3,Win32,94.87666034,,,,,,,,9,Ontime,long,d,0,1.957,6,3,27,2,1,,,,,
1.64,,,,,,,,,j,red,5eba75d1758c7a1cffb62685,2021-09-28_09h41.43.532,forced_choiceRT_color,2021.2.3,Win32,94.87666034,,,,,,,,9,Ontime,long,j,1,1.9854,7,0,28,2,1,,,,,
1.19,,,,,,,,,k,purple,5eba75d1758c7a1cffb62685,2021-09-28_09h41.43.532,forced_choiceRT_color,2021.2.3,Win32,94.87666034,,,,,,,,9,Ontime,long,k,1,1.9398,7,1,29,3,1,,,,,
1.39,,,,,,,,,f,blue,5eba75d1758c7a1cffb62685,2021-09-28_09h41.43.532,forced_choiceRT_color,2021.2.3,Win32,94.87666034,,,,,,,,9,Ontime,long,f,1,1.9638,7,2,30,1,1,,,,,
1.8,,,,,,,,,f,blue,5eba75d1758c7a1cffb62685,2021-09-28_09h41.43.532,forced_choiceRT_color,2021.2.3,Win32,94.87666034,,,,,,,,9,Ontime,long,f,1,1.9677,7,3,31,1,1,,,,,
0.73,,,,,,,,,j,red,5eba75d1758c7a1cffb62685,2021-09-28_09h41.43.532,forced_choiceRT_color,2021.2.3,Win32,94.87666034,,,,,,,,9,Ontime,long,j,1,1.9958,8,0,32,2,1,,,,,
0.67,,,,,,,,,k,purple,5eba75d1758c7a1cffb62685,2021-09-28_09h41.43.532,forced_choiceRT_color,2021.2.3,Win32,94.87666034,,,,,,,,9,Ontime,long,k,1,1.9439,8,1,33,3,1,,,,,
1.1,,,,,,,,,f,blue,5eba75d1758c7a1cffb62685,2021-09-28_09h41.43.532,forced_choiceRT_color,2021.2.3,Win32,94.87666034,,,,,,,,9,Ontime,long,f,1,2.003,8,2,34,1,1,,,,,
0.99,,,,,,,,,k,purple,5eba75d1758c7a1cffb62685,2021-09-28_09h41.43.532,forced_choiceRT_color,2021.2.3,Win32,94.87666034,,,,,,,,9,Ontime,long,k,1,1.9802,8,3,35,3,1,,,,,
1.19,,,,,,,,,k,purple,5eba75d1758c7a1cffb62685,2021-09-28_09h41.43.532,forced_choiceRT_color,2021.2.3,Win32,94.87666034,,,,,,,,9,Ontime,long,k,1,1.9833,9,0,36,3,1,,,,,
0.78,,,,,,,,,j,red,5eba75d1758c7a1cffb62685,2021-09-28_09h41.43.532,forced_choiceRT_color,2021.2.3,Win32,94.87666034,,,,,,,,9,Ontime,long,j,1,2.0367,9,1,37,2,1,,,,,
0.23,,,,,,,,,k,purple,5eba75d1758c7a1cffb62685,2021-09-28_09h41.43.532,forced_choiceRT_color,2021.2.3,Win32,94.87666034,,,,,,,,9,Ontime,long,k,1,2.0314,9,2,38,3,1,,,,,
0.46,,,,,,,,,k,purple,5eba75d1758c7a1cffb62685,2021-09-28_09h41.43.532,forced_choiceRT_color,2021.2.3,Win32,94.87666034,,,,,,,,9,Ontime,long,k,1,1.981,9,3,39,3,1,,,,,
,,,,,,,,,,,5eba75d1758c7a1cffb62685,2021-09-28_09h41.43.532,forced_choiceRT_color,2021.2.3,Win32,94.87666034,,,,,,,,,,,,,,,,,,,8,0,8,0,1
1.68,,,,,,,,,d,orange,5eba75d1758c7a1cffb62685,2021-09-28_09h41.43.532,forced_choiceRT_color,2021.2.3,Win32,94.87666034,,,,,,,,10,Ontime,long,j,0,2.0877,0,0,0,0,1,,,,,
1.54,,,,,,,,,f,blue,5eba75d1758c7a1cffb62685,2021-09-28_09h41.43.532,forced_choiceRT_color,2021.2.3,Win32,94.87666034,,,,,,,,10,Ontime,long,j,0,2.0185,0,1,1,1,1,,,,,
1.94,,,,,,,,,j,red,5eba75d1758c7a1cffb62685,2021-09-28_09h41.43.532,forced_choiceRT_color,2021.2.3,Win32,94.87666034,,,,,,,,10,Ontime,long,f,0,1.9787,0,2,2,2,1,,,,,
1.12,,,,,,,,,d,orange,5eba75d1758c7a1cffb62685,2021-09-28_09h41.43.532,forced_choiceRT_color,2021.2.3,Win32,94.87666034,,,,,,,,10,Ontime,long,d,1,1.9804,0,3,3,0,1,,,,,
0.37,,,,,,,,,k,purple,5eba75d1758c7a1cffb62685,2021-09-28_09h41.43.532,forced_choiceRT_color,2021.2.3,Win32,94.87666034,,,,,,,,10,Ontime,long,k,1,1.9504,1,0,4,3,1,,,,,
0.89,,,,,,,,,k,purple,5eba75d1758c7a1cffb62685,2021-09-28_09h41.43.532,forced_choiceRT_color,2021.2.3,Win32,94.87666034,,,,,,,,10,Ontime,long,k,1,1.9496,1,1,5,3,1,,,,,
1.26,,,,,,,,,k,purple,5eba75d1758c7a1cffb62685,2021-09-28_09h41.43.532,forced_choiceRT_color,2021.2.3,Win32,94.87666034,,,,,,,,10,Ontime,long,k,1,1.9549,1,2,6,3,1,,,,,
1.47,,,,,,,,,d,orange,5eba75d1758c7a1cffb62685,2021-09-28_09h41.43.532,forced_choiceRT_color,2021.2.3,Win32,94.87666034,,,,,,,,10,Ontime,long,d,1,1.9937,1,3,7,0,1,,,,,
0.28,,,,,,,,,f,blue,5eba75d1758c7a1cffb62685,2021-09-28_09h41.43.532,forced_choiceRT_color,2021.2.3,Win32,94.87666034,,,,,,,,10,Ontime,long,f,1,1.9594,2,0,8,1,1,,,,,
0.91,,,,,,,,,f,blue,5eba75d1758c7a1cffb62685,2021-09-28_09h41.43.532,forced_choiceRT_color,2021.2.3,Win32,94.87666034,,,,,,,,10,Ontime,long,f,1,1.9183,2,1,9,1,1,,,,,
1.29,,,,,,,,,k,purple,5eba75d1758c7a1cffb62685,2021-09-28_09h41.43.532,forced_choiceRT_color,2021.2.3,Win32,94.87666034,,,,,,,,10,Ontime,long,k,1,1.9866,2,2,10,3,1,,,,,
0.53,,,,,,,,,j,red,5eba75d1758c7a1cffb62685,2021-09-28_09h41.43.532,forced_choiceRT_color,2021.2.3,Win32,94.87666034,,,,,,,,10,Ontime,long,j,1,1.9312,2,3,11,2,1,,,,,
1.2,,,,,,,,,j,red,5eba75d1758c7a1cffb62685,2021-09-28_09h41.43.532,forced_choiceRT_color,2021.2.3,Win32,94.87666034,,,,,,,,10,Ontime,long,j,1,1.959,3,0,12,2,1,,,,,
1.23,,,,,,,,,d,orange,5eba75d1758c7a1cffb62685,2021-09-28_09h41.43.532,forced_choiceRT_color,2021.2.3,Win32,94.87666034,,,,,,,,10,Ontime,long,d,1,2.0132,3,1,13,0,1,,,,,
1.49,,,,,,,,,f,blue,5eba75d1758c7a1cffb62685,2021-09-28_09h41.43.532,forced_choiceRT_color,2021.2.3,Win32,94.87666034,,,,,,,,10,Ontime,long,f,1,1.9974,3,2,14,1,1,,,,,
0.65,,,,,,,,,j,red,5eba75d1758c7a1cffb62685,2021-09-28_09h41.43.532,forced_choiceRT_color,2021.2.3,Win32,94.87666034,,,,,,,,10,Ontime,long,j,1,1.9536,3,3,15,2,1,,,,,
1.54,,,,,,,,,f,blue,5eba75d1758c7a1cffb62685,2021-09-28_09h41.43.532,forced_choiceRT_color,2021.2.3,Win32,94.87666034,,,,,,,,10,Ontime,long,d,0,2.0318,4,0,16,1,1,,,,,
0.97,,,,,,,,,j,red,5eba75d1758c7a1cffb62685,2021-09-28_09h41.43.532,forced_choiceRT_color,2021.2.3,Win32,94.87666034,,,,,,,,10,Ontime,long,j,1,1.9886,4,1,17,2,1,,,,,
0.41,,,,,,,,,d,orange,5eba75d1758c7a1cffb62685,2021-09-28_09h41.43.532,forced_choiceRT_color,2021.2.3,Win32,94.87666034,,,,,,,,10,Ontime,long,d,1,1.9239,4,2,18,0,1,,,,,
1.65,,,,,,,,,d,orange,5eba75d1758c7a1cffb62685,2021-09-28_09h41.43.532,forced_choiceRT_color,2021.2.3,Win32,94.87666034,,,,,,,,10,Ontime,long,d,1,2.0184,4,3,19,0,1,,,,,
0.05,,,,,,,,,f,blue,5eba75d1758c7a1cffb62685,2021-09-28_09h41.43.532,forced_choiceRT_color,2021.2.3,Win32,94.87666034,,,,,,,,10,Ontime,long,f,1,1.9791,5,0,20,1,1,,,,,
1.71,,,,,,,,,f,blue,5eba75d1758c7a1cffb62685,2021-09-28_09h41.43.532,forced_choiceRT_color,2021.2.3,Win32,94.87666034,,,,,,,,10,Ontime,long,f,1,1.995,5,1,21,1,1,,,,,
0.7,,,,,,,,,d,orange,5eba75d1758c7a1cffb62685,2021-09-28_09h41.43.532,forced_choiceRT_color,2021.2.3,Win32,94.87666034,,,,,,,,10,Ontime,long,d,1,1.9682,5,2,22,0,1,,,,,
1.88,,,,,,,,,d,orange,5eba75d1758c7a1cffb62685,2021-09-28_09h41.43.532,forced_choiceRT_color,2021.2.3,Win32,94.87666034,,,,,,,,10,Ontime,long,d,1,1.9956,5,3,23,0,1,,,,,
1.09,,,,,,,,,d,orange,5eba75d1758c7a1cffb62685,2021-09-28_09h41.43.532,forced_choiceRT_color,2021.2.3,Win32,94.87666034,,,,,,,,10,Ontime,long,d,1,1.9763,6,0,24,0,1,,,,,
1.67,,,,,,,,,f,blue,5eba75d1758c7a1cffb62685,2021-09-28_09h41.43.532,forced_choiceRT_color,2021.2.3,Win32,94.87666034,,,,,,,,10,Ontime,long,f,1,2.059,6,1,25,1,1,,,,,
0.98,,,,,,,,,j,red,5eba75d1758c7a1cffb62685,2021-09-28_09h41.43.532,forced_choiceRT_color,2021.2.3,Win32,94.87666034,,,,,,,,10,Ontime,long,j,1,1.9929,6,2,26,2,1,,,,,
1.15,,,,,,,,,k,purple,5eba75d1758c7a1cffb62685,2021-09-28_09h41.43.532,forced_choiceRT_color,2021.2.3,Win32,94.87666034,,,,,,,,10,Ontime,long,k,1,1.9892,6,3,27,3,1,,,,,
0.28,,,,,,,,,k,purple,5eba75d1758c7a1cffb62685,2021-09-28_09h41.43.532,forced_choiceRT_color,2021.2.3,Win32,94.87666034,,,,,,,,10,Ontime,long,k,1,1.9326,7,0,28,3,1,,,,,
0.21,,,,,,,,,f,blue,5eba75d1758c7a1cffb62685,2021-09-28_09h41.43.532,forced_choiceRT_color,2021.2.3,Win32,94.87666034,,,,,,,,10,Ontime,long,f,1,1.977,7,1,29,1,1,,,,,
0.51,,,,,,,,,k,purple,5eba75d1758c7a1cffb62685,2021-09-28_09h41.43.532,forced_choiceRT_color,2021.2.3,Win32,94.87666034,,,,,,,,10,Ontime,long,d,0,1.9614,7,2,30,3,1,,,,,
0.55,,,,,,,,,j,red,5eba75d1758c7a1cffb62685,2021-09-28_09h41.43.532,forced_choiceRT_color,2021.2.3,Win32,94.87666034,,,,,,,,10,Ontime,long,j,1,1.9813,7,3,31,2,1,,,,,
1.49,,,,,,,,,k,purple,5eba75d1758c7a1cffb62685,2021-09-28_09h41.43.532,forced_choiceRT_color,2021.2.3,Win32,94.87666034,,,,,,,,10,Ontime,long,k,1,2.0539,8,0,32,3,1,,,,,
0.28,,,,,,,,,k,purple,5eba75d1758c7a1cffb62685,2021-09-28_09h41.43.532,forced_choiceRT_color,2021.2.3,Win32,94.87666034,,,,,,,,10,Ontime,long,k,1,1.951,8,1,33,3,1,,,,,
0.26,,,,,,,,,d,orange,5eba75d1758c7a1cffb62685,2021-09-28_09h41.43.532,forced_choiceRT_color,2021.2.3,Win32,94.87666034,,,,,,,,10,Ontime,long,d,1,1.9719,8,2,34,0,1,,,,,
1.79,,,,,,,,,j,red,5eba75d1758c7a1cffb62685,2021-09-28_09h41.43.532,forced_choiceRT_color,2021.2.3,Win32,94.87666034,,,,,,,,10,Slow,long,f,0,2.1508,8,3,35,2,1,,,,,
0.17,,,,,,,,,j,red,5eba75d1758c7a1cffb62685,2021-09-28_09h41.43.532,forced_choiceRT_color,2021.2.3,Win32,94.87666034,,,,,,,,10,Ontime,long,j,1,2.0057,9,0,36,2,1,,,,,
1.73,,,,,,,,,j,red,5eba75d1758c7a1cffb62685,2021-09-28_09h41.43.532,forced_choiceRT_color,2021.2.3,Win32,94.87666034,,,,,,,,10,Slow,long,j,1,2.1194,9,1,37,2,1,,,,,
1.43,,,,,,,,,f,blue,5eba75d1758c7a1cffb62685,2021-09-28_09h41.43.532,forced_choiceRT_color,2021.2.3,Win32,94.87666034,,,,,,,,10,Ontime,long,f,1,2.0303,9,2,38,1,1,,,,,
1.36,,,,,,,,,k,purple,5eba75d1758c7a1cffb62685,2021-09-28_09h41.43.532,forced_choiceRT_color,2021.2.3,Win32,94.87666034,,,,,,,,10,Ontime,long,k,1,2.0193,9,3,39,3,1,,,,,
,,,,,,,,,,,5eba75d1758c7a1cffb62685,2021-09-28_09h41.43.532,forced_choiceRT_color,2021.2.3,Win32,94.87666034,,,,,,,,,,,,,,,,,,,9,0,9,0,1
