IP_Addresss,target_onset,trial_resp_sp.keys,trial_resp_sp.corr,trial_resp_sp.rt,trials_train_loop.thisRepN,trials_train_loop.thisTrialN,trials_train_loop.thisN,trials_train_loop.thisIndex,trials_train_loop.ran,correct_key,color,participant,date,expName,psychopyVersion,OS,frameRate,trial_resp_timing.keys,trial_resp_timing.rt,trials_train_timing.thisRepN,trials_train_timing.thisTrialN,trials_train_timing.thisN,trials_train_timing.thisIndex,trials_train_timing.ran,block_id,ontime,feedback_cond,forcedRT_resp.keys,forcedRT_resp.corr,forcedRT_resp.rt,trials.thisRepN,trials.thisTrialN,trials.thisN,trials.thisIndex,trials.ran,blocks.thisRepN,blocks.thisTrialN,blocks.thisN,blocks.thisIndex,blocks.ran
97.98.136.50,0,f,1,1.3151,0,0,0,1,1,f,blue,5ebb26803576b50eb12d87d9,2021-09-28_12h46.17.895,forced_choiceRT_color,2021.2.3,MacIntel,60.0024001,,,,,,,,,,,,,,,,,,,,,,,
,0,j,1,0.8191,0,1,1,2,1,j,red,5ebb26803576b50eb12d87d9,2021-09-28_12h46.17.895,forced_choiceRT_color,2021.2.3,MacIntel,60.0024001,,,,,,,,,,,,,,,,,,,,,,,
,0,f,1,0.8679,0,2,2,1,1,f,blue,5ebb26803576b50eb12d87d9,2021-09-28_12h46.17.895,forced_choiceRT_color,2021.2.3,MacIntel,60.0024001,,,,,,,,,,,,,,,,,,,,,,,
,0,d,1,1.3012,0,3,3,0,1,d,orange,5ebb26803576b50eb12d87d9,2021-09-28_12h46.17.895,forced_choiceRT_color,2021.2.3,MacIntel,60.0024001,,,,,,,,,,,,,,,,,,,,,,,
,0,f,1,0.9164,1,0,4,1,1,f,blue,5ebb26803576b50eb12d87d9,2021-09-28_12h46.17.895,forced_choiceRT_color,2021.2.3,MacIntel,60.0024001,,,,,,,,,,,,,,,,,,,,,,,
,0,f,1,0.6251,1,1,5,1,1,f,blue,5ebb26803576b50eb12d87d9,2021-09-28_12h46.17.895,forced_choiceRT_color,2021.2.3,MacIntel,60.0024001,,,,,,,,,,,,,,,,,,,,,,,
,0,f,1,0.5011,1,2,6,1,1,f,blue,5ebb26803576b50eb12d87d9,2021-09-28_12h46.17.895,forced_choiceRT_color,2021.2.3,MacIntel,60.0024001,,,,,,,,,,,,,,,,,,,,,,,
,0,j,1,0.5845,1,3,7,2,1,j,red,5ebb26803576b50eb12d87d9,2021-09-28_12h46.17.895,forced_choiceRT_color,2021.2.3,MacIntel,60.0024001,,,,,,,,,,,,,,,,,,,,,,,
,0,f,1,0.7261,2,0,8,1,1,f,blue,5ebb26803576b50eb12d87d9,2021-09-28_12h46.17.895,forced_choiceRT_color,2021.2.3,MacIntel,60.0024001,,,,,,,,,,,,,,,,,,,,,,,
,0,k,1,0.5839,2,1,9,3,1,k,purple,5ebb26803576b50eb12d87d9,2021-09-28_12h46.17.895,forced_choiceRT_color,2021.2.3,MacIntel,60.0024001,,,,,,,,,,,,,,,,,,,,,,,
,0,j,1,0.9015,2,2,10,2,1,j,red,5ebb26803576b50eb12d87d9,2021-09-28_12h46.17.895,forced_choiceRT_color,2021.2.3,MacIntel,60.0024001,,,,,,,,,,,,,,,,,,,,,,,
,0,d,0,0.542,2,3,11,1,1,f,blue,5ebb26803576b50eb12d87d9,2021-09-28_12h46.17.895,forced_choiceRT_color,2021.2.3,MacIntel,60.0024001,,,,,,,,,,,,,,,,,,,,,,,
,0,d,1,0.664,3,0,12,0,1,d,orange,5ebb26803576b50eb12d87d9,2021-09-28_12h46.17.895,forced_choiceRT_color,2021.2.3,MacIntel,60.0024001,,,,,,,,,,,,,,,,,,,,,,,
,0,k,1,0.7177,3,1,13,3,1,k,purple,5ebb26803576b50eb12d87d9,2021-09-28_12h46.17.895,forced_choiceRT_color,2021.2.3,MacIntel,60.0024001,,,,,,,,,,,,,,,,,,,,,,,
,0,j,1,0.6842,3,2,14,2,1,j,red,5ebb26803576b50eb12d87d9,2021-09-28_12h46.17.895,forced_choiceRT_color,2021.2.3,MacIntel,60.0024001,,,,,,,,,,,,,,,,,,,,,,,
,0,k,1,0.6505,3,3,15,3,1,k,purple,5ebb26803576b50eb12d87d9,2021-09-28_12h46.17.895,forced_choiceRT_color,2021.2.3,MacIntel,60.0024001,,,,,,,,,,,,,,,,,,,,,,,
,0,d,1,0.6172,4,0,16,0,1,d,orange,5ebb26803576b50eb12d87d9,2021-09-28_12h46.17.895,forced_choiceRT_color,2021.2.3,MacIntel,60.0024001,,,,,,,,,,,,,,,,,,,,,,,
,0,j,1,0.7172,4,1,17,2,1,j,red,5ebb26803576b50eb12d87d9,2021-09-28_12h46.17.895,forced_choiceRT_color,2021.2.3,MacIntel,60.0024001,,,,,,,,,,,,,,,,,,,,,,,
,0,j,0,0.482,4,2,18,3,1,k,purple,5ebb26803576b50eb12d87d9,2021-09-28_12h46.17.895,forced_choiceRT_color,2021.2.3,MacIntel,60.0024001,,,,,,,,,,,,,,,,,,,,,,,
,0,d,1,0.6023,4,3,19,0,1,d,orange,5ebb26803576b50eb12d87d9,2021-09-28_12h46.17.895,forced_choiceRT_color,2021.2.3,MacIntel,60.0024001,,,,,,,,,,,,,,,,,,,,,,,
,0,k,0,0.5684,5,0,20,2,1,j,red,5ebb26803576b50eb12d87d9,2021-09-28_12h46.17.895,forced_choiceRT_color,2021.2.3,MacIntel,60.0024001,,,,,,,,,,,,,,,,,,,,,,,
,0,j,1,0.5183,5,1,21,2,1,j,red,5ebb26803576b50eb12d87d9,2021-09-28_12h46.17.895,forced_choiceRT_color,2021.2.3,MacIntel,60.0024001,,,,,,,,,,,,,,,,,,,,,,,
,0,d,1,0.633,5,2,22,0,1,d,orange,5ebb26803576b50eb12d87d9,2021-09-28_12h46.17.895,forced_choiceRT_color,2021.2.3,MacIntel,60.0024001,,,,,,,,,,,,,,,,,,,,,,,
,0,f,1,0.7203,5,3,23,1,1,f,blue,5ebb26803576b50eb12d87d9,2021-09-28_12h46.17.895,forced_choiceRT_color,2021.2.3,MacIntel,60.0024001,,,,,,,,,,,,,,,,,,,,,,,
,0,d,1,0.6447,6,0,24,0,1,d,orange,5ebb26803576b50eb12d87d9,2021-09-28_12h46.17.895,forced_choiceRT_color,2021.2.3,MacIntel,60.0024001,,,,,,,,,,,,,,,,,,,,,,,
,0,f,1,0.5241,6,1,25,1,1,f,blue,5ebb26803576b50eb12d87d9,2021-09-28_12h46.17.895,forced_choiceRT_color,2021.2.3,MacIntel,60.0024001,,,,,,,,,,,,,,,,,,,,,,,
,0,d,1,0.4968,6,2,26,0,1,d,orange,5ebb26803576b50eb12d87d9,2021-09-28_12h46.17.895,forced_choiceRT_color,2021.2.3,MacIntel,60.0024001,,,,,,,,,,,,,,,,,,,,,,,
,0,d,0,0.6161,6,3,27,1,1,f,blue,5ebb26803576b50eb12d87d9,2021-09-28_12h46.17.895,forced_choiceRT_color,2021.2.3,MacIntel,60.0024001,,,,,,,,,,,,,,,,,,,,,,,
,0,k,1,0.7773,7,0,28,3,1,k,purple,5ebb26803576b50eb12d87d9,2021-09-28_12h46.17.895,forced_choiceRT_color,2021.2.3,MacIntel,60.0024001,,,,,,,,,,,,,,,,,,,,,,,
,0,f,1,0.7182,7,1,29,1,1,f,blue,5ebb26803576b50eb12d87d9,2021-09-28_12h46.17.895,forced_choiceRT_color,2021.2.3,MacIntel,60.0024001,,,,,,,,,,,,,,,,,,,,,,,
,0,d,1,0.5508,7,2,30,0,1,d,orange,5ebb26803576b50eb12d87d9,2021-09-28_12h46.17.895,forced_choiceRT_color,2021.2.3,MacIntel,60.0024001,,,,,,,,,,,,,,,,,,,,,,,
,0,d,1,0.8253,7,3,31,0,1,d,orange,5ebb26803576b50eb12d87d9,2021-09-28_12h46.17.895,forced_choiceRT_color,2021.2.3,MacIntel,60.0024001,,,,,,,,,,,,,,,,,,,,,,,
,0,k,1,0.6704,8,0,32,3,1,k,purple,5ebb26803576b50eb12d87d9,2021-09-28_12h46.17.895,forced_choiceRT_color,2021.2.3,MacIntel,60.0024001,,,,,,,,,,,,,,,,,,,,,,,
,0,j,1,0.6765,8,1,33,2,1,j,red,5ebb26803576b50eb12d87d9,2021-09-28_12h46.17.895,forced_choiceRT_color,2021.2.3,MacIntel,60.0024001,,,,,,,,,,,,,,,,,,,,,,,
,0,j,1,0.5461,8,2,34,2,1,j,red,5ebb26803576b50eb12d87d9,2021-09-28_12h46.17.895,forced_choiceRT_color,2021.2.3,MacIntel,60.0024001,,,,,,,,,,,,,,,,,,,,,,,
,0,k,1,0.6514,8,3,35,3,1,k,purple,5ebb26803576b50eb12d87d9,2021-09-28_12h46.17.895,forced_choiceRT_color,2021.2.3,MacIntel,60.0024001,,,,,,,,,,,,,,,,,,,,,,,
,0,d,1,0.6686,9,0,36,0,1,d,orange,5ebb26803576b50eb12d87d9,2021-09-28_12h46.17.895,forced_choiceRT_color,2021.2.3,MacIntel,60.0024001,,,,,,,,,,,,,,,,,,,,,,,
,0,k,1,0.561,9,1,37,3,1,k,purple,5ebb26803576b50eb12d87d9,2021-09-28_12h46.17.895,forced_choiceRT_color,2021.2.3,MacIntel,60.0024001,,,,,,,,,,,,,,,,,,,,,,,
,0,d,1,0.551,9,2,38,0,1,d,orange,5ebb26803576b50eb12d87d9,2021-09-28_12h46.17.895,forced_choiceRT_color,2021.2.3,MacIntel,60.0024001,,,,,,,,,,,,,,,,,,,,,,,
,0,f,1,0.527,9,3,39,1,1,f,blue,5ebb26803576b50eb12d87d9,2021-09-28_12h46.17.895,forced_choiceRT_color,2021.2.3,MacIntel,60.0024001,,,,,,,,,,,,,,,,,,,,,,,
,0,f,1,0.5448,10,0,40,1,1,f,blue,5ebb26803576b50eb12d87d9,2021-09-28_12h46.17.895,forced_choiceRT_color,2021.2.3,MacIntel,60.0024001,,,,,,,,,,,,,,,,,,,,,,,
,0,k,1,0.562,10,1,41,3,1,k,purple,5ebb26803576b50eb12d87d9,2021-09-28_12h46.17.895,forced_choiceRT_color,2021.2.3,MacIntel,60.0024001,,,,,,,,,,,,,,,,,,,,,,,
,0,k,1,0.6177,10,2,42,3,1,k,purple,5ebb26803576b50eb12d87d9,2021-09-28_12h46.17.895,forced_choiceRT_color,2021.2.3,MacIntel,60.0024001,,,,,,,,,,,,,,,,,,,,,,,
,0,j,1,0.6155,10,3,43,2,1,j,red,5ebb26803576b50eb12d87d9,2021-09-28_12h46.17.895,forced_choiceRT_color,2021.2.3,MacIntel,60.0024001,,,,,,,,,,,,,,,,,,,,,,,
,0,j,1,0.4001,11,0,44,2,1,j,red,5ebb26803576b50eb12d87d9,2021-09-28_12h46.17.895,forced_choiceRT_color,2021.2.3,MacIntel,60.0024001,,,,,,,,,,,,,,,,,,,,,,,
,0,d,1,0.6335,11,1,45,0,1,d,orange,5ebb26803576b50eb12d87d9,2021-09-28_12h46.17.895,forced_choiceRT_color,2021.2.3,MacIntel,60.0024001,,,,,,,,,,,,,,,,,,,,,,,
,0,k,0,0.8006,11,2,46,2,1,j,red,5ebb26803576b50eb12d87d9,2021-09-28_12h46.17.895,forced_choiceRT_color,2021.2.3,MacIntel,60.0024001,,,,,,,,,,,,,,,,,,,,,,,
,0,j,1,0.4176,11,3,47,2,1,j,red,5ebb26803576b50eb12d87d9,2021-09-28_12h46.17.895,forced_choiceRT_color,2021.2.3,MacIntel,60.0024001,,,,,,,,,,,,,,,,,,,,,,,
,0,d,1,0.5089,12,0,48,0,1,d,orange,5ebb26803576b50eb12d87d9,2021-09-28_12h46.17.895,forced_choiceRT_color,2021.2.3,MacIntel,60.0024001,,,,,,,,,,,,,,,,,,,,,,,
,0,d,1,0.4664,12,1,49,0,1,d,orange,5ebb26803576b50eb12d87d9,2021-09-28_12h46.17.895,forced_choiceRT_color,2021.2.3,MacIntel,60.0024001,,,,,,,,,,,,,,,,,,,,,,,
,0,j,1,0.9349,12,2,50,2,1,j,red,5ebb26803576b50eb12d87d9,2021-09-28_12h46.17.895,forced_choiceRT_color,2021.2.3,MacIntel,60.0024001,,,,,,,,,,,,,,,,,,,,,,,
,0,k,1,0.501,12,3,51,3,1,k,purple,5ebb26803576b50eb12d87d9,2021-09-28_12h46.17.895,forced_choiceRT_color,2021.2.3,MacIntel,60.0024001,,,,,,,,,,,,,,,,,,,,,,,
,0,j,0,0.687,13,0,52,1,1,f,blue,5ebb26803576b50eb12d87d9,2021-09-28_12h46.17.895,forced_choiceRT_color,2021.2.3,MacIntel,60.0024001,,,,,,,,,,,,,,,,,,,,,,,
,0,k,1,0.5692,13,1,53,3,1,k,purple,5ebb26803576b50eb12d87d9,2021-09-28_12h46.17.895,forced_choiceRT_color,2021.2.3,MacIntel,60.0024001,,,,,,,,,,,,,,,,,,,,,,,
,0,k,1,0.3995,13,2,54,3,1,k,purple,5ebb26803576b50eb12d87d9,2021-09-28_12h46.17.895,forced_choiceRT_color,2021.2.3,MacIntel,60.0024001,,,,,,,,,,,,,,,,,,,,,,,
,0,j,1,0.5185,13,3,55,2,1,j,red,5ebb26803576b50eb12d87d9,2021-09-28_12h46.17.895,forced_choiceRT_color,2021.2.3,MacIntel,60.0024001,,,,,,,,,,,,,,,,,,,,,,,
,0,k,1,0.6286,14,0,56,3,1,k,purple,5ebb26803576b50eb12d87d9,2021-09-28_12h46.17.895,forced_choiceRT_color,2021.2.3,MacIntel,60.0024001,,,,,,,,,,,,,,,,,,,,,,,
,0,k,1,0.4256,14,1,57,3,1,k,purple,5ebb26803576b50eb12d87d9,2021-09-28_12h46.17.895,forced_choiceRT_color,2021.2.3,MacIntel,60.0024001,,,,,,,,,,,,,,,,,,,,,,,
,0,f,0,0.4999,14,2,58,0,1,d,orange,5ebb26803576b50eb12d87d9,2021-09-28_12h46.17.895,forced_choiceRT_color,2021.2.3,MacIntel,60.0024001,,,,,,,,,,,,,,,,,,,,,,,
,0,j,0,0.6788,14,3,59,1,1,f,blue,5ebb26803576b50eb12d87d9,2021-09-28_12h46.17.895,forced_choiceRT_color,2021.2.3,MacIntel,60.0024001,,,,,,,,,,,,,,,,,,,,,,,
,,,,,,,,,,,,5ebb26803576b50eb12d87d9,2021-09-28_12h46.17.895,forced_choiceRT_color,2021.2.3,MacIntel,60.0024001,f,2.3074,0,0,0,0,1,,,,,,,,,,,,,,,,
,,,,,,,,,,,,5ebb26803576b50eb12d87d9,2021-09-28_12h46.17.895,forced_choiceRT_color,2021.2.3,MacIntel,60.0024001,j,2.262,1,0,1,0,1,,,,,,,,,,,,,,,,
,,,,,,,,,,,,5ebb26803576b50eb12d87d9,2021-09-28_12h46.17.895,forced_choiceRT_color,2021.2.3,MacIntel,60.0024001,k,1.7679,2,0,2,0,1,,,,,,,,,,,,,,,,
,,,,,,,,,,,,5ebb26803576b50eb12d87d9,2021-09-28_12h46.17.895,forced_choiceRT_color,2021.2.3,MacIntel,60.0024001,j,2.2136,3,0,3,0,1,,,,,,,,,,,,,,,,
,,,,,,,,,,,,5ebb26803576b50eb12d87d9,2021-09-28_12h46.17.895,forced_choiceRT_color,2021.2.3,MacIntel,60.0024001,k,1.8891,4,0,4,0,1,,,,,,,,,,,,,,,,
,,,,,,,,,,,,5ebb26803576b50eb12d87d9,2021-09-28_12h46.17.895,forced_choiceRT_color,2021.2.3,MacIntel,60.0024001,j,1.8327,5,0,5,0,1,,,,,,,,,,,,,,,,
,,,,,,,,,,,,5ebb26803576b50eb12d87d9,2021-09-28_12h46.17.895,forced_choiceRT_color,2021.2.3,MacIntel,60.0024001,j,2.111,6,0,6,0,1,,,,,,,,,,,,,,,,
,,,,,,,,,,,,5ebb26803576b50eb12d87d9,2021-09-28_12h46.17.895,forced_choiceRT_color,2021.2.3,MacIntel,60.0024001,k,1.899,7,0,7,0,1,,,,,,,,,,,,,,,,
,,,,,,,,,,,,5ebb26803576b50eb12d87d9,2021-09-28_12h46.17.895,forced_choiceRT_color,2021.2.3,MacIntel,60.0024001,f,1.9679,8,0,8,0,1,,,,,,,,,,,,,,,,
,,,,,,,,,,,,5ebb26803576b50eb12d87d9,2021-09-28_12h46.17.895,forced_choiceRT_color,2021.2.3,MacIntel,60.0024001,f,1.8947,9,0,9,0,1,,,,,,,,,,,,,,,,
,,,,,,,,,,,,5ebb26803576b50eb12d87d9,2021-09-28_12h46.17.895,forced_choiceRT_color,2021.2.3,MacIntel,60.0024001,d,1.9125,10,0,10,0,1,,,,,,,,,,,,,,,,
,,,,,,,,,,,,5ebb26803576b50eb12d87d9,2021-09-28_12h46.17.895,forced_choiceRT_color,2021.2.3,MacIntel,60.0024001,k,2.037,11,0,11,0,1,,,,,,,,,,,,,,,,
,,,,,,,,,,,,5ebb26803576b50eb12d87d9,2021-09-28_12h46.17.895,forced_choiceRT_color,2021.2.3,MacIntel,60.0024001,j,1.7578,12,0,12,0,1,,,,,,,,,,,,,,,,
,,,,,,,,,,,,5ebb26803576b50eb12d87d9,2021-09-28_12h46.17.895,forced_choiceRT_color,2021.2.3,MacIntel,60.0024001,k,1.9955,13,0,13,0,1,,,,,,,,,,,,,,,,
,,,,,,,,,,,,5ebb26803576b50eb12d87d9,2021-09-28_12h46.17.895,forced_choiceRT_color,2021.2.3,MacIntel,60.0024001,j,1.9273,14,0,14,0,1,,,,,,,,,,,,,,,,
,,,,,,,,,,,,5ebb26803576b50eb12d87d9,2021-09-28_12h46.17.895,forced_choiceRT_color,2021.2.3,MacIntel,60.0024001,d,1.9677,15,0,15,0,1,,,,,,,,,,,,,,,,
,,,,,,,,,,,,5ebb26803576b50eb12d87d9,2021-09-28_12h46.17.895,forced_choiceRT_color,2021.2.3,MacIntel,60.0024001,d,1.8183,16,0,16,0,1,,,,,,,,,,,,,,,,
,,,,,,,,,,,,5ebb26803576b50eb12d87d9,2021-09-28_12h46.17.895,forced_choiceRT_color,2021.2.3,MacIntel,60.0024001,j,2.012,17,0,17,0,1,,,,,,,,,,,,,,,,
,,,,,,,,,,,,5ebb26803576b50eb12d87d9,2021-09-28_12h46.17.895,forced_choiceRT_color,2021.2.3,MacIntel,60.0024001,d,1.8928,18,0,18,0,1,,,,,,,,,,,,,,,,
,,,,,,,,,,,,5ebb26803576b50eb12d87d9,2021-09-28_12h46.17.895,forced_choiceRT_color,2021.2.3,MacIntel,60.0024001,f,1.9192,19,0,19,0,1,,,,,,,,,,,,,,,,
,0.24,,,,,,,,,f,blue,5ebb26803576b50eb12d87d9,2021-09-28_12h46.17.895,forced_choiceRT_color,2021.2.3,MacIntel,60.0024001,,,,,,,,1,Ontime,long,d,0,1.9169,0,0,0,1,1,,,,,
,1.98,,,,,,,,,k,purple,5ebb26803576b50eb12d87d9,2021-09-28_12h46.17.895,forced_choiceRT_color,2021.2.3,MacIntel,60.0024001,,,,,,,,1,Slow,long,j,0,2.5018,0,1,1,3,1,,,,,
,0.94,,,,,,,,,f,blue,5ebb26803576b50eb12d87d9,2021-09-28_12h46.17.895,forced_choiceRT_color,2021.2.3,MacIntel,60.0024001,,,,,,,,1,Fast,long,d,0,1.5916,0,2,2,1,1,,,,,
,0.51,,,,,,,,,j,red,5ebb26803576b50eb12d87d9,2021-09-28_12h46.17.895,forced_choiceRT_color,2021.2.3,MacIntel,60.0024001,,,,,,,,1,Ontime,long,j,1,1.9596,0,3,3,2,1,,,,,
,1.05,,,,,,,,,j,red,5ebb26803576b50eb12d87d9,2021-09-28_12h46.17.895,forced_choiceRT_color,2021.2.3,MacIntel,60.0024001,,,,,,,,1,Slow,long,j,1,2.1128,1,0,4,2,1,,,,,
,0.81,,,,,,,,,k,purple,5ebb26803576b50eb12d87d9,2021-09-28_12h46.17.895,forced_choiceRT_color,2021.2.3,MacIntel,60.0024001,,,,,,,,1,Ontime,long,k,1,1.9556,1,1,5,3,1,,,,,
,0.48,,,,,,,,,d,orange,5ebb26803576b50eb12d87d9,2021-09-28_12h46.17.895,forced_choiceRT_color,2021.2.3,MacIntel,60.0024001,,,,,,,,1,Fast,long,d,1,1.8788,1,2,6,0,1,,,,,
,1.85,,,,,,,,,k,purple,5ebb26803576b50eb12d87d9,2021-09-28_12h46.17.895,forced_choiceRT_color,2021.2.3,MacIntel,60.0024001,,,,,,,,1,Slow,long,k,1,2.2517,1,3,7,3,1,,,,,
,1.56,,,,,,,,,k,purple,5ebb26803576b50eb12d87d9,2021-09-28_12h46.17.895,forced_choiceRT_color,2021.2.3,MacIntel,60.0024001,,,,,,,,1,Slow,long,k,1,2.1632,2,0,8,3,1,,,,,
,0.9,,,,,,,,,f,blue,5ebb26803576b50eb12d87d9,2021-09-28_12h46.17.895,forced_choiceRT_color,2021.2.3,MacIntel,60.0024001,,,,,,,,1,Ontime,long,d,0,1.9006,2,1,9,1,1,,,,,
,1.92,,,,,,,,,k,purple,5ebb26803576b50eb12d87d9,2021-09-28_12h46.17.895,forced_choiceRT_color,2021.2.3,MacIntel,60.0024001,,,,,,,,1,Slow,long,j,0,2.2949,2,2,10,3,1,,,,,
,0.46,,,,,,,,,d,orange,5ebb26803576b50eb12d87d9,2021-09-28_12h46.17.895,forced_choiceRT_color,2021.2.3,MacIntel,60.0024001,,,,,,,,1,Ontime,long,d,1,2.0448,2,3,11,0,1,,,,,
,0.98,,,,,,,,,f,blue,5ebb26803576b50eb12d87d9,2021-09-28_12h46.17.895,forced_choiceRT_color,2021.2.3,MacIntel,60.0024001,,,,,,,,1,Fast,long,d,0,1.8651,3,0,12,1,1,,,,,
,0.05,,,,,,,,,k,purple,5ebb26803576b50eb12d87d9,2021-09-28_12h46.17.895,forced_choiceRT_color,2021.2.3,MacIntel,60.0024001,,,,,,,,1,Fast,long,k,1,1.7363,3,1,13,3,1,,,,,
,1.09,,,,,,,,,f,blue,5ebb26803576b50eb12d87d9,2021-09-28_12h46.17.895,forced_choiceRT_color,2021.2.3,MacIntel,60.0024001,,,,,,,,1,Ontime,long,f,1,1.908,3,2,14,1,1,,,,,
,0.02,,,,,,,,,d,orange,5ebb26803576b50eb12d87d9,2021-09-28_12h46.17.895,forced_choiceRT_color,2021.2.3,MacIntel,60.0024001,,,,,,,,1,Fast,long,d,1,1.7749,3,3,15,0,1,,,,,
,0.47,,,,,,,,,f,blue,5ebb26803576b50eb12d87d9,2021-09-28_12h46.17.895,forced_choiceRT_color,2021.2.3,MacIntel,60.0024001,,,,,,,,1,Fast,long,d,0,1.7439,4,0,16,1,1,,,,,
,0.35,,,,,,,,,k,purple,5ebb26803576b50eb12d87d9,2021-09-28_12h46.17.895,forced_choiceRT_color,2021.2.3,MacIntel,60.0024001,,,,,,,,1,Fast,long,k,1,1.7452,4,1,17,3,1,,,,,
,0.98,,,,,,,,,j,red,5ebb26803576b50eb12d87d9,2021-09-28_12h46.17.895,forced_choiceRT_color,2021.2.3,MacIntel,60.0024001,,,,,,,,1,Fast,long,j,1,1.8257,4,2,18,2,1,,,,,
,0.17,,,,,,,,,d,orange,5ebb26803576b50eb12d87d9,2021-09-28_12h46.17.895,forced_choiceRT_color,2021.2.3,MacIntel,60.0024001,,,,,,,,1,Fast,long,d,1,1.8963,4,3,19,0,1,,,,,
,0.38,,,,,,,,,j,red,5ebb26803576b50eb12d87d9,2021-09-28_12h46.17.895,forced_choiceRT_color,2021.2.3,MacIntel,60.0024001,,,,,,,,1,Fast,long,j,1,1.8486,5,0,20,2,1,,,,,
,1.7,,,,,,,,,d,orange,5ebb26803576b50eb12d87d9,2021-09-28_12h46.17.895,forced_choiceRT_color,2021.2.3,MacIntel,60.0024001,,,,,,,,1,Slow,long,k,0,2.1719,5,1,21,0,1,,,,,
,0.2,,,,,,,,,d,orange,5ebb26803576b50eb12d87d9,2021-09-28_12h46.17.895,forced_choiceRT_color,2021.2.3,MacIntel,60.0024001,,,,,,,,1,Ontime,long,d,1,1.9147,5,2,22,0,1,,,,,
,1.42,,,,,,,,,k,purple,5ebb26803576b50eb12d87d9,2021-09-28_12h46.17.895,forced_choiceRT_color,2021.2.3,MacIntel,60.0024001,,,,,,,,1,Ontime,long,k,1,1.9942,5,3,23,3,1,,,,,
,0.04,,,,,,,,,d,orange,5ebb26803576b50eb12d87d9,2021-09-28_12h46.17.895,forced_choiceRT_color,2021.2.3,MacIntel,60.0024001,,,,,,,,1,Ontime,long,d,1,1.9091,6,0,24,0,1,,,,,
,0.82,,,,,,,,,d,orange,5ebb26803576b50eb12d87d9,2021-09-28_12h46.17.895,forced_choiceRT_color,2021.2.3,MacIntel,60.0024001,,,,,,,,1,Ontime,long,d,1,1.9174,6,1,25,0,1,,,,,
,1.87,,,,,,,,,j,red,5ebb26803576b50eb12d87d9,2021-09-28_12h46.17.895,forced_choiceRT_color,2021.2.3,MacIntel,60.0024001,,,,,,,,1,Slow,long,j,1,2.209,6,2,26,2,1,,,,,
,1.61,,,,,,,,,j,red,5ebb26803576b50eb12d87d9,2021-09-28_12h46.17.895,forced_choiceRT_color,2021.2.3,MacIntel,60.0024001,,,,,,,,1,Slow,long,j,1,2.1863,6,3,27,2,1,,,,,
,1.4,,,,,,,,,j,red,5ebb26803576b50eb12d87d9,2021-09-28_12h46.17.895,forced_choiceRT_color,2021.2.3,MacIntel,60.0024001,,,,,,,,1,Fast,long,j,1,1.898,7,0,28,2,1,,,,,
,0.88,,,,,,,,,j,red,5ebb26803576b50eb12d87d9,2021-09-28_12h46.17.895,forced_choiceRT_color,2021.2.3,MacIntel,60.0024001,,,,,,,,1,Fast,long,j,1,1.3959,7,1,29,2,1,,,,,
,0.26,,,,,,,,,f,blue,5ebb26803576b50eb12d87d9,2021-09-28_12h46.17.895,forced_choiceRT_color,2021.2.3,MacIntel,60.0024001,,,,,,,,1,Fast,long,f,1,1.8784,7,2,30,1,1,,,,,
,1.54,,,,,,,,,k,purple,5ebb26803576b50eb12d87d9,2021-09-28_12h46.17.895,forced_choiceRT_color,2021.2.3,MacIntel,60.0024001,,,,,,,,1,Ontime,long,k,1,2.0623,7,3,31,3,1,,,,,
,1.36,,,,,,,,,d,orange,5ebb26803576b50eb12d87d9,2021-09-28_12h46.17.895,forced_choiceRT_color,2021.2.3,MacIntel,60.0024001,,,,,,,,1,Ontime,long,d,1,1.9642,8,0,32,0,1,,,,,
,0.8,,,,,,,,,k,purple,5ebb26803576b50eb12d87d9,2021-09-28_12h46.17.895,forced_choiceRT_color,2021.2.3,MacIntel,60.0024001,,,,,,,,1,Ontime,long,k,1,1.9782,8,1,33,3,1,,,,,
,1.46,,,,,,,,,f,blue,5ebb26803576b50eb12d87d9,2021-09-28_12h46.17.895,forced_choiceRT_color,2021.2.3,MacIntel,60.0024001,,,,,,,,1,Ontime,long,d,0,2.061,8,2,34,1,1,,,,,
,0.13,,,,,,,,,f,blue,5ebb26803576b50eb12d87d9,2021-09-28_12h46.17.895,forced_choiceRT_color,2021.2.3,MacIntel,60.0024001,,,,,,,,1,Ontime,long,f,1,1.9103,8,3,35,1,1,,,,,
,0.03,,,,,,,,,j,red,5ebb26803576b50eb12d87d9,2021-09-28_12h46.17.895,forced_choiceRT_color,2021.2.3,MacIntel,60.0024001,,,,,,,,1,Fast,long,j,1,1.7648,9,0,36,2,1,,,,,
,0.74,,,,,,,,,j,red,5ebb26803576b50eb12d87d9,2021-09-28_12h46.17.895,forced_choiceRT_color,2021.2.3,MacIntel,60.0024001,,,,,,,,1,Fast,long,j,1,1.7633,9,1,37,2,1,,,,,
,0.59,,,,,,,,,d,orange,5ebb26803576b50eb12d87d9,2021-09-28_12h46.17.895,forced_choiceRT_color,2021.2.3,MacIntel,60.0024001,,,,,,,,1,Ontime,long,d,1,2.0463,9,2,38,0,1,,,,,
,0.53,,,,,,,,,f,blue,5ebb26803576b50eb12d87d9,2021-09-28_12h46.17.895,forced_choiceRT_color,2021.2.3,MacIntel,60.0024001,,,,,,,,1,Fast,long,f,1,1.7791,9,3,39,1,1,,,,,
,,,,,,,,,,,,5ebb26803576b50eb12d87d9,2021-09-28_12h46.17.895,forced_choiceRT_color,2021.2.3,MacIntel,60.0024001,,,,,,,,,,,,,,,,,,,0,0,0,0,1
,0.07,,,,,,,,,k,purple,5ebb26803576b50eb12d87d9,2021-09-28_12h46.17.895,forced_choiceRT_color,2021.2.3,MacIntel,60.0024001,,,,,,,,2,Ontime,long,k,1,2.0526,0,0,0,3,1,,,,,
,1.62,,,,,,,,,d,orange,5ebb26803576b50eb12d87d9,2021-09-28_12h46.17.895,forced_choiceRT_color,2021.2.3,MacIntel,60.0024001,,,,,,,,2,Slow,long,d,1,2.5069,0,1,1,0,1,,,,,
,1.38,,,,,,,,,f,blue,5ebb26803576b50eb12d87d9,2021-09-28_12h46.17.895,forced_choiceRT_color,2021.2.3,MacIntel,60.0024001,,,,,,,,2,Slow,long,f,1,2.1118,0,2,2,1,1,,,,,
,1.06,,,,,,,,,k,purple,5ebb26803576b50eb12d87d9,2021-09-28_12h46.17.895,forced_choiceRT_color,2021.2.3,MacIntel,60.0024001,,,,,,,,2,Fast,long,k,1,1.7485,0,3,3,3,1,,,,,
,1.52,,,,,,,,,f,blue,5ebb26803576b50eb12d87d9,2021-09-28_12h46.17.895,forced_choiceRT_color,2021.2.3,MacIntel,60.0024001,,,,,,,,2,Ontime,long,j,0,2.0661,1,0,4,1,1,,,,,
,0.1,,,,,,,,,d,orange,5ebb26803576b50eb12d87d9,2021-09-28_12h46.17.895,forced_choiceRT_color,2021.2.3,MacIntel,60.0024001,,,,,,,,2,Ontime,long,d,1,1.9833,1,1,5,0,1,,,,,
,1.53,,,,,,,,,d,orange,5ebb26803576b50eb12d87d9,2021-09-28_12h46.17.895,forced_choiceRT_color,2021.2.3,MacIntel,60.0024001,,,,,,,,2,Ontime,long,d,1,2.079,1,2,6,0,1,,,,,
,1.33,,,,,,,,,k,purple,5ebb26803576b50eb12d87d9,2021-09-28_12h46.17.895,forced_choiceRT_color,2021.2.3,MacIntel,60.0024001,,,,,,,,2,Ontime,long,k,1,2.0112,1,3,7,3,1,,,,,
,1.95,,,,,,,,,k,purple,5ebb26803576b50eb12d87d9,2021-09-28_12h46.17.895,forced_choiceRT_color,2021.2.3,MacIntel,60.0024001,,,,,,,,2,Slow,long,j,0,2.3555,2,0,8,3,1,,,,,
,0.04,,,,,,,,,k,purple,5ebb26803576b50eb12d87d9,2021-09-28_12h46.17.895,forced_choiceRT_color,2021.2.3,MacIntel,60.0024001,,,,,,,,2,Fast,long,k,1,1.7427,2,1,9,3,1,,,,,
,0.92,,,,,,,,,f,blue,5ebb26803576b50eb12d87d9,2021-09-28_12h46.17.895,forced_choiceRT_color,2021.2.3,MacIntel,60.0024001,,,,,,,,2,Ontime,long,f,1,1.983,2,2,10,1,1,,,,,
,0.77,,,,,,,,,f,blue,5ebb26803576b50eb12d87d9,2021-09-28_12h46.17.895,forced_choiceRT_color,2021.2.3,MacIntel,60.0024001,,,,,,,,2,Ontime,long,f,1,1.976,2,3,11,1,1,,,,,
,0.1,,,,,,,,,f,blue,5ebb26803576b50eb12d87d9,2021-09-28_12h46.17.895,forced_choiceRT_color,2021.2.3,MacIntel,60.0024001,,,,,,,,2,Fast,long,f,1,1.8802,3,0,12,1,1,,,,,
,1.31,,,,,,,,,d,orange,5ebb26803576b50eb12d87d9,2021-09-28_12h46.17.895,forced_choiceRT_color,2021.2.3,MacIntel,60.0024001,,,,,,,,2,Ontime,long,d,1,1.9776,3,1,13,0,1,,,,,
,0.58,,,,,,,,,j,red,5ebb26803576b50eb12d87d9,2021-09-28_12h46.17.895,forced_choiceRT_color,2021.2.3,MacIntel,60.0024001,,,,,,,,2,Ontime,long,j,1,1.9949,3,2,14,2,1,,,,,
,0.81,,,,,,,,,d,orange,5ebb26803576b50eb12d87d9,2021-09-28_12h46.17.895,forced_choiceRT_color,2021.2.3,MacIntel,60.0024001,,,,,,,,2,Ontime,long,f,0,1.9867,3,3,15,0,1,,,,,
,0.99,,,,,,,,,d,orange,5ebb26803576b50eb12d87d9,2021-09-28_12h46.17.895,forced_choiceRT_color,2021.2.3,MacIntel,60.0024001,,,,,,,,2,Ontime,long,d,1,2.0798,4,0,16,0,1,,,,,
,0.78,,,,,,,,,j,red,5ebb26803576b50eb12d87d9,2021-09-28_12h46.17.895,forced_choiceRT_color,2021.2.3,MacIntel,60.0024001,,,,,,,,2,Fast,long,j,1,1.8864,4,1,17,2,1,,,,,
,0.36,,,,,,,,,d,orange,5ebb26803576b50eb12d87d9,2021-09-28_12h46.17.895,forced_choiceRT_color,2021.2.3,MacIntel,60.0024001,,,,,,,,2,Fast,long,d,1,1.7944,4,2,18,0,1,,,,,
,1.78,,,,,,,,,f,blue,5ebb26803576b50eb12d87d9,2021-09-28_12h46.17.895,forced_choiceRT_color,2021.2.3,MacIntel,60.0024001,,,,,,,,2,Slow,long,j,0,2.3212,4,3,19,1,1,,,,,
,1.47,,,,,,,,,j,red,5ebb26803576b50eb12d87d9,2021-09-28_12h46.17.895,forced_choiceRT_color,2021.2.3,MacIntel,60.0024001,,,,,,,,2,Ontime,long,j,1,2.0287,5,0,20,2,1,,,,,
,1.3,,,,,,,,,k,purple,5ebb26803576b50eb12d87d9,2021-09-28_12h46.17.895,forced_choiceRT_color,2021.2.3,MacIntel,60.0024001,,,,,,,,2,Fast,long,k,1,1.8807,5,1,21,3,1,,,,,
,0.47,,,,,,,,,j,red,5ebb26803576b50eb12d87d9,2021-09-28_12h46.17.895,forced_choiceRT_color,2021.2.3,MacIntel,60.0024001,,,,,,,,2,Ontime,long,j,1,2.0455,5,2,22,2,1,,,,,
,1.59,,,,,,,,,k,purple,5ebb26803576b50eb12d87d9,2021-09-28_12h46.17.895,forced_choiceRT_color,2021.2.3,MacIntel,60.0024001,,,,,,,,2,Slow,long,k,1,2.2096,5,3,23,3,1,,,,,
,1.12,,,,,,,,,f,blue,5ebb26803576b50eb12d87d9,2021-09-28_12h46.17.895,forced_choiceRT_color,2021.2.3,MacIntel,60.0024001,,,,,,,,2,Ontime,long,j,0,2.0757,6,0,24,1,1,,,,,
,1.18,,,,,,,,,j,red,5ebb26803576b50eb12d87d9,2021-09-28_12h46.17.895,forced_choiceRT_color,2021.2.3,MacIntel,60.0024001,,,,,,,,2,Ontime,long,j,1,1.9006,6,1,25,2,1,,,,,
,1.38,,,,,,,,,f,blue,5ebb26803576b50eb12d87d9,2021-09-28_12h46.17.895,forced_choiceRT_color,2021.2.3,MacIntel,60.0024001,,,,,,,,2,Slow,long,d,0,2.1755,6,2,26,1,1,,,,,
,0.8,,,,,,,,,j,red,5ebb26803576b50eb12d87d9,2021-09-28_12h46.17.895,forced_choiceRT_color,2021.2.3,MacIntel,60.0024001,,,,,,,,2,Ontime,long,j,1,1.928,6,3,27,2,1,,,,,
,1.66,,,,,,,,,d,orange,5ebb26803576b50eb12d87d9,2021-09-28_12h46.17.895,forced_choiceRT_color,2021.2.3,MacIntel,60.0024001,,,,,,,,2,Slow,long,d,1,2.1494,7,0,28,0,1,,,,,
,1.22,,,,,,,,,j,red,5ebb26803576b50eb12d87d9,2021-09-28_12h46.17.895,forced_choiceRT_color,2021.2.3,MacIntel,60.0024001,,,,,,,,2,Ontime,long,j,1,2.0697,7,1,29,2,1,,,,,
,1.17,,,,,,,,,j,red,5ebb26803576b50eb12d87d9,2021-09-28_12h46.17.895,forced_choiceRT_color,2021.2.3,MacIntel,60.0024001,,,,,,,,2,Fast,long,j,1,1.8762,7,2,30,2,1,,,,,
,0.51,,,,,,,,,f,blue,5ebb26803576b50eb12d87d9,2021-09-28_12h46.17.895,forced_choiceRT_color,2021.2.3,MacIntel,60.0024001,,,,,,,,2,Ontime,long,d,0,1.9002,7,3,31,1,1,,,,,
,0.73,,,,,,,,,k,purple,5ebb26803576b50eb12d87d9,2021-09-28_12h46.17.895,forced_choiceRT_color,2021.2.3,MacIntel,60.0024001,,,,,,,,2,Ontime,long,k,1,2.0123,8,0,32,3,1,,,,,
,1.27,,,,,,,,,d,orange,5ebb26803576b50eb12d87d9,2021-09-28_12h46.17.895,forced_choiceRT_color,2021.2.3,MacIntel,60.0024001,,,,,,,,2,Ontime,long,d,1,2.0921,8,1,33,0,1,,,,,
,1.34,,,,,,,,,d,orange,5ebb26803576b50eb12d87d9,2021-09-28_12h46.17.895,forced_choiceRT_color,2021.2.3,MacIntel,60.0024001,,,,,,,,2,Fast,long,d,1,1.8978,8,2,34,0,1,,,,,
,1.05,,,,,,,,,j,red,5ebb26803576b50eb12d87d9,2021-09-28_12h46.17.895,forced_choiceRT_color,2021.2.3,MacIntel,60.0024001,,,,,,,,2,Ontime,long,j,1,2.0136,8,3,35,2,1,,,,,
,1.21,,,,,,,,,k,purple,5ebb26803576b50eb12d87d9,2021-09-28_12h46.17.895,forced_choiceRT_color,2021.2.3,MacIntel,60.0024001,,,,,,,,2,Ontime,long,k,1,1.9964,9,0,36,3,1,,,,,
,1.47,,,,,,,,,k,purple,5ebb26803576b50eb12d87d9,2021-09-28_12h46.17.895,forced_choiceRT_color,2021.2.3,MacIntel,60.0024001,,,,,,,,2,Slow,long,k,1,2.1354,9,1,37,3,1,,,,,
,1.15,,,,,,,,,f,blue,5ebb26803576b50eb12d87d9,2021-09-28_12h46.17.895,forced_choiceRT_color,2021.2.3,MacIntel,60.0024001,,,,,,,,2,Ontime,long,d,0,1.9463,9,2,38,1,1,,,,,
,1.24,,,,,,,,,j,red,5ebb26803576b50eb12d87d9,2021-09-28_12h46.17.895,forced_choiceRT_color,2021.2.3,MacIntel,60.0024001,,,,,,,,2,Ontime,long,j,1,1.9345,9,3,39,2,1,,,,,
,,,,,,,,,,,,5ebb26803576b50eb12d87d9,2021-09-28_12h46.17.895,forced_choiceRT_color,2021.2.3,MacIntel,60.0024001,,,,,,,,,,,,,,,,,,,1,0,1,0,1
,0.74,,,,,,,,,k,purple,5ebb26803576b50eb12d87d9,2021-09-28_12h46.17.895,forced_choiceRT_color,2021.2.3,MacIntel,60.0024001,,,,,,,,3,Ontime,long,k,1,1.9827,0,0,0,3,1,,,,,
,0.58,,,,,,,,,f,blue,5ebb26803576b50eb12d87d9,2021-09-28_12h46.17.895,forced_choiceRT_color,2021.2.3,MacIntel,60.0024001,,,,,,,,3,Ontime,long,f,1,2.0795,0,1,1,1,1,,,,,
,0.57,,,,,,,,,j,red,5ebb26803576b50eb12d87d9,2021-09-28_12h46.17.895,forced_choiceRT_color,2021.2.3,MacIntel,60.0024001,,,,,,,,3,Ontime,long,j,1,1.9971,0,2,2,2,1,,,,,
,0.75,,,,,,,,,k,purple,5ebb26803576b50eb12d87d9,2021-09-28_12h46.17.895,forced_choiceRT_color,2021.2.3,MacIntel,60.0024001,,,,,,,,3,Ontime,long,k,1,1.997,0,3,3,3,1,,,,,
,0.92,,,,,,,,,k,purple,5ebb26803576b50eb12d87d9,2021-09-28_12h46.17.895,forced_choiceRT_color,2021.2.3,MacIntel,60.0024001,,,,,,,,3,Ontime,long,k,1,1.9783,1,0,4,3,1,,,,,
,1.41,,,,,,,,,f,blue,5ebb26803576b50eb12d87d9,2021-09-28_12h46.17.895,forced_choiceRT_color,2021.2.3,MacIntel,60.0024001,,,,,,,,3,Ontime,long,j,0,2.098,1,1,5,1,1,,,,,
,1.7,,,,,,,,,f,blue,5ebb26803576b50eb12d87d9,2021-09-28_12h46.17.895,forced_choiceRT_color,2021.2.3,MacIntel,60.0024001,,,,,,,,3,Slow,long,j,0,2.3314,1,2,6,1,1,,,,,
,1.37,,,,,,,,,d,orange,5ebb26803576b50eb12d87d9,2021-09-28_12h46.17.895,forced_choiceRT_color,2021.2.3,MacIntel,60.0024001,,,,,,,,3,Ontime,long,d,1,1.9801,1,3,7,0,1,,,,,
,1.37,,,,,,,,,j,red,5ebb26803576b50eb12d87d9,2021-09-28_12h46.17.895,forced_choiceRT_color,2021.2.3,MacIntel,60.0024001,,,,,,,,3,Ontime,long,j,1,2.0293,2,0,8,2,1,,,,,
,0.98,,,,,,,,,d,orange,5ebb26803576b50eb12d87d9,2021-09-28_12h46.17.895,forced_choiceRT_color,2021.2.3,MacIntel,60.0024001,,,,,,,,3,Slow,long,d,1,2.1459,2,1,9,0,1,,,,,
,1.3,,,,,,,,,f,blue,5ebb26803576b50eb12d87d9,2021-09-28_12h46.17.895,forced_choiceRT_color,2021.2.3,MacIntel,60.0024001,,,,,,,,3,Slow,long,f,1,2.1291,2,2,10,1,1,,,,,
,0.86,,,,,,,,,j,red,5ebb26803576b50eb12d87d9,2021-09-28_12h46.17.895,forced_choiceRT_color,2021.2.3,MacIntel,60.0024001,,,,,,,,3,Fast,long,j,1,1.7773,2,3,11,2,1,,,,,
,1.71,,,,,,,,,j,red,5ebb26803576b50eb12d87d9,2021-09-28_12h46.17.895,forced_choiceRT_color,2021.2.3,MacIntel,60.0024001,,,,,,,,3,Slow,long,d,0,2.2115,3,0,12,2,1,,,,,
,0.32,,,,,,,,,f,blue,5ebb26803576b50eb12d87d9,2021-09-28_12h46.17.895,forced_choiceRT_color,2021.2.3,MacIntel,60.0024001,,,,,,,,3,Ontime,long,f,1,1.949,3,1,13,1,1,,,,,
,1.11,,,,,,,,,d,orange,5ebb26803576b50eb12d87d9,2021-09-28_12h46.17.895,forced_choiceRT_color,2021.2.3,MacIntel,60.0024001,,,,,,,,3,Ontime,long,d,1,2.0488,3,2,14,0,1,,,,,
,0.37,,,,,,,,,k,purple,5ebb26803576b50eb12d87d9,2021-09-28_12h46.17.895,forced_choiceRT_color,2021.2.3,MacIntel,60.0024001,,,,,,,,3,Fast,long,k,1,1.8511,3,3,15,3,1,,,,,
,0.6,,,,,,,,,d,orange,5ebb26803576b50eb12d87d9,2021-09-28_12h46.17.895,forced_choiceRT_color,2021.2.3,MacIntel,60.0024001,,,,,,,,3,Ontime,long,d,1,2.0112,4,0,16,0,1,,,,,
,0.8,,,,,,,,,d,orange,5ebb26803576b50eb12d87d9,2021-09-28_12h46.17.895,forced_choiceRT_color,2021.2.3,MacIntel,60.0024001,,,,,,,,3,Fast,long,d,1,1.8773,4,1,17,0,1,,,,,
,0.47,,,,,,,,,j,red,5ebb26803576b50eb12d87d9,2021-09-28_12h46.17.895,forced_choiceRT_color,2021.2.3,MacIntel,60.0024001,,,,,,,,3,Ontime,long,j,1,1.9728,4,2,18,2,1,,,,,
,1.72,,,,,,,,,j,red,5ebb26803576b50eb12d87d9,2021-09-28_12h46.17.895,forced_choiceRT_color,2021.2.3,MacIntel,60.0024001,,,,,,,,3,Slow,long,j,1,2.3168,4,3,19,2,1,,,,,
,1.92,,,,,,,,,d,orange,5ebb26803576b50eb12d87d9,2021-09-28_12h46.17.895,forced_choiceRT_color,2021.2.3,MacIntel,60.0024001,,,,,,,,3,Slow,long,k,0,2.221,5,0,20,0,1,,,,,
,0.36,,,,,,,,,f,blue,5ebb26803576b50eb12d87d9,2021-09-28_12h46.17.895,forced_choiceRT_color,2021.2.3,MacIntel,60.0024001,,,,,,,,3,Ontime,long,f,1,1.9312,5,1,21,1,1,,,,,
,0.88,,,,,,,,,k,purple,5ebb26803576b50eb12d87d9,2021-09-28_12h46.17.895,forced_choiceRT_color,2021.2.3,MacIntel,60.0024001,,,,,,,,3,Fast,long,k,1,1.8791,5,2,22,3,1,,,,,
,0.89,,,,,,,,,j,red,5ebb26803576b50eb12d87d9,2021-09-28_12h46.17.895,forced_choiceRT_color,2021.2.3,MacIntel,60.0024001,,,,,,,,3,Ontime,long,j,1,1.961,5,3,23,2,1,,,,,
,0.9,,,,,,,,,d,orange,5ebb26803576b50eb12d87d9,2021-09-28_12h46.17.895,forced_choiceRT_color,2021.2.3,MacIntel,60.0024001,,,,,,,,3,Ontime,long,d,1,1.9942,6,0,24,0,1,,,,,
,1.8,,,,,,,,,f,blue,5ebb26803576b50eb12d87d9,2021-09-28_12h46.17.895,forced_choiceRT_color,2021.2.3,MacIntel,60.0024001,,,,,,,,3,Slow,long,j,0,2.3161,6,1,25,1,1,,,,,
,0.38,,,,,,,,,d,orange,5ebb26803576b50eb12d87d9,2021-09-28_12h46.17.895,forced_choiceRT_color,2021.2.3,MacIntel,60.0024001,,,,,,,,3,Ontime,long,d,1,1.913,6,2,26,0,1,,,,,
,0.14,,,,,,,,,f,blue,5ebb26803576b50eb12d87d9,2021-09-28_12h46.17.895,forced_choiceRT_color,2021.2.3,MacIntel,60.0024001,,,,,,,,3,Fast,long,f,1,1.8648,6,3,27,1,1,,,,,
,1.83,,,,,,,,,k,purple,5ebb26803576b50eb12d87d9,2021-09-28_12h46.17.895,forced_choiceRT_color,2021.2.3,MacIntel,60.0024001,,,,,,,,3,Slow,long,j,0,2.2598,7,0,28,3,1,,,,,
,0.05,,,,,,,,,d,orange,5ebb26803576b50eb12d87d9,2021-09-28_12h46.17.895,forced_choiceRT_color,2021.2.3,MacIntel,60.0024001,,,,,,,,3,Fast,long,d,1,1.8451,7,1,29,0,1,,,,,
,0.03,,,,,,,,,j,red,5ebb26803576b50eb12d87d9,2021-09-28_12h46.17.895,forced_choiceRT_color,2021.2.3,MacIntel,60.0024001,,,,,,,,3,Fast,long,j,1,1.8164,7,2,30,2,1,,,,,
,0.02,,,,,,,,,j,red,5ebb26803576b50eb12d87d9,2021-09-28_12h46.17.895,forced_choiceRT_color,2021.2.3,MacIntel,60.0024001,,,,,,,,3,Fast,long,j,1,1.8603,7,3,31,2,1,,,,,
,1.94,,,,,,,,,j,red,5ebb26803576b50eb12d87d9,2021-09-28_12h46.17.895,forced_choiceRT_color,2021.2.3,MacIntel,60.0024001,,,,,,,,3,Ontime,long,d,0,1.9844,8,0,32,2,1,,,,,
,1.11,,,,,,,,,k,purple,5ebb26803576b50eb12d87d9,2021-09-28_12h46.17.895,forced_choiceRT_color,2021.2.3,MacIntel,60.0024001,,,,,,,,3,Ontime,long,k,1,2.0156,8,1,33,3,1,,,,,
,1.39,,,,,,,,,k,purple,5ebb26803576b50eb12d87d9,2021-09-28_12h46.17.895,forced_choiceRT_color,2021.2.3,MacIntel,60.0024001,,,,,,,,3,Ontime,long,k,1,1.9601,8,2,34,3,1,,,,,
,1.02,,,,,,,,,d,orange,5ebb26803576b50eb12d87d9,2021-09-28_12h46.17.895,forced_choiceRT_color,2021.2.3,MacIntel,60.0024001,,,,,,,,3,Ontime,long,d,1,1.9498,8,3,35,0,1,,,,,
,1.75,,,,,,,,,f,blue,5ebb26803576b50eb12d87d9,2021-09-28_12h46.17.895,forced_choiceRT_color,2021.2.3,MacIntel,60.0024001,,,,,,,,3,Slow,long,j,0,2.2286,9,0,36,1,1,,,,,
,0.33,,,,,,,,,f,blue,5ebb26803576b50eb12d87d9,2021-09-28_12h46.17.895,forced_choiceRT_color,2021.2.3,MacIntel,60.0024001,,,,,,,,3,Ontime,long,f,1,1.9775,9,1,37,1,1,,,,,
,0.81,,,,,,,,,k,purple,5ebb26803576b50eb12d87d9,2021-09-28_12h46.17.895,forced_choiceRT_color,2021.2.3,MacIntel,60.0024001,,,,,,,,3,Fast,long,k,1,1.8632,9,2,38,3,1,,,,,
,1.51,,,,,,,,,k,purple,5ebb26803576b50eb12d87d9,2021-09-28_12h46.17.895,forced_choiceRT_color,2021.2.3,MacIntel,60.0024001,,,,,,,,3,Ontime,long,k,1,2.082,9,3,39,3,1,,,,,
,,,,,,,,,,,,5ebb26803576b50eb12d87d9,2021-09-28_12h46.17.895,forced_choiceRT_color,2021.2.3,MacIntel,60.0024001,,,,,,,,,,,,,,,,,,,2,0,2,0,1
,1.64,,,,,,,,,k,purple,5ebb26803576b50eb12d87d9,2021-09-28_12h46.17.895,forced_choiceRT_color,2021.2.3,MacIntel,60.0024001,,,,,,,,4,Slow,long,k,1,2.5377,0,0,0,3,1,,,,,
,0.89,,,,,,,,,k,purple,5ebb26803576b50eb12d87d9,2021-09-28_12h46.17.895,forced_choiceRT_color,2021.2.3,MacIntel,60.0024001,,,,,,,,4,Ontime,long,k,1,1.9832,0,1,1,3,1,,,,,
,0.32,,,,,,,,,f,blue,5ebb26803576b50eb12d87d9,2021-09-28_12h46.17.895,forced_choiceRT_color,2021.2.3,MacIntel,60.0024001,,,,,,,,4,Ontime,long,f,1,2.0124,0,2,2,1,1,,,,,
,0.37,,,,,,,,,k,purple,5ebb26803576b50eb12d87d9,2021-09-28_12h46.17.895,forced_choiceRT_color,2021.2.3,MacIntel,60.0024001,,,,,,,,4,Fast,long,k,1,1.8109,0,3,3,3,1,,,,,
,0.66,,,,,,,,,f,blue,5ebb26803576b50eb12d87d9,2021-09-28_12h46.17.895,forced_choiceRT_color,2021.2.3,MacIntel,60.0024001,,,,,,,,4,Fast,long,f,1,1.7979,1,0,4,1,1,,,,,
,1.15,,,,,,,,,f,blue,5ebb26803576b50eb12d87d9,2021-09-28_12h46.17.895,forced_choiceRT_color,2021.2.3,MacIntel,60.0024001,,,,,,,,4,Ontime,long,f,1,2.0514,1,1,5,1,1,,,,,
,0.92,,,,,,,,,f,blue,5ebb26803576b50eb12d87d9,2021-09-28_12h46.17.895,forced_choiceRT_color,2021.2.3,MacIntel,60.0024001,,,,,,,,4,Ontime,long,f,1,2.0304,1,2,6,1,1,,,,,
,1.35,,,,,,,,,k,purple,5ebb26803576b50eb12d87d9,2021-09-28_12h46.17.895,forced_choiceRT_color,2021.2.3,MacIntel,60.0024001,,,,,,,,4,Ontime,long,k,1,2.013,1,3,7,3,1,,,,,
,0.89,,,,,,,,,f,blue,5ebb26803576b50eb12d87d9,2021-09-28_12h46.17.895,forced_choiceRT_color,2021.2.3,MacIntel,60.0024001,,,,,,,,4,Fast,long,f,1,1.8779,2,0,8,1,1,,,,,
,1.52,,,,,,,,,j,red,5ebb26803576b50eb12d87d9,2021-09-28_12h46.17.895,forced_choiceRT_color,2021.2.3,MacIntel,60.0024001,,,,,,,,4,Slow,long,j,1,2.1434,2,1,9,2,1,,,,,
,1.68,,,,,,,,,f,blue,5ebb26803576b50eb12d87d9,2021-09-28_12h46.17.895,forced_choiceRT_color,2021.2.3,MacIntel,60.0024001,,,,,,,,4,Slow,long,j,0,2.1655,2,2,10,1,1,,,,,
,1.55,,,,,,,,,d,orange,5ebb26803576b50eb12d87d9,2021-09-28_12h46.17.895,forced_choiceRT_color,2021.2.3,MacIntel,60.0024001,,,,,,,,4,Slow,long,d,1,2.1235,2,3,11,0,1,,,,,
,1.89,,,,,,,,,j,red,5ebb26803576b50eb12d87d9,2021-09-28_12h46.17.895,forced_choiceRT_color,2021.2.3,MacIntel,60.0024001,,,,,,,,4,Slow,long,j,1,2.3613,3,0,12,2,1,,,,,
,1.75,,,,,,,,,j,red,5ebb26803576b50eb12d87d9,2021-09-28_12h46.17.895,forced_choiceRT_color,2021.2.3,MacIntel,60.0024001,,,,,,,,4,Slow,long,j,1,2.2612,3,1,13,2,1,,,,,
,1.45,,,,,,,,,k,purple,5ebb26803576b50eb12d87d9,2021-09-28_12h46.17.895,forced_choiceRT_color,2021.2.3,MacIntel,60.0024001,,,,,,,,4,Ontime,long,k,1,2.044,3,2,14,3,1,,,,,
,0.6,,,,,,,,,k,purple,5ebb26803576b50eb12d87d9,2021-09-28_12h46.17.895,forced_choiceRT_color,2021.2.3,MacIntel,60.0024001,,,,,,,,4,Ontime,long,k,1,1.9947,3,3,15,3,1,,,,,
,0.25,,,,,,,,,d,orange,5ebb26803576b50eb12d87d9,2021-09-28_12h46.17.895,forced_choiceRT_color,2021.2.3,MacIntel,60.0024001,,,,,,,,4,Ontime,long,d,1,2.0255,4,0,16,0,1,,,,,
,1.11,,,,,,,,,j,red,5ebb26803576b50eb12d87d9,2021-09-28_12h46.17.895,forced_choiceRT_color,2021.2.3,MacIntel,60.0024001,,,,,,,,4,Slow,long,j,1,2.2614,4,1,17,2,1,,,,,
,0.19,,,,,,,,,d,orange,5ebb26803576b50eb12d87d9,2021-09-28_12h46.17.895,forced_choiceRT_color,2021.2.3,MacIntel,60.0024001,,,,,,,,4,Ontime,long,d,1,1.9832,4,2,18,0,1,,,,,
,1.01,,,,,,,,,d,orange,5ebb26803576b50eb12d87d9,2021-09-28_12h46.17.895,forced_choiceRT_color,2021.2.3,MacIntel,60.0024001,,,,,,,,4,Ontime,long,d,1,2.0108,4,3,19,0,1,,,,,
,1.89,,,,,,,,,j,red,5ebb26803576b50eb12d87d9,2021-09-28_12h46.17.895,forced_choiceRT_color,2021.2.3,MacIntel,60.0024001,,,,,,,,4,Slow,long,j,1,2.3603,5,0,20,2,1,,,,,
,0.64,,,,,,,,,k,purple,5ebb26803576b50eb12d87d9,2021-09-28_12h46.17.895,forced_choiceRT_color,2021.2.3,MacIntel,60.0024001,,,,,,,,4,Ontime,long,k,1,2.0305,5,1,21,3,1,,,,,
,0.5,,,,,,,,,k,purple,5ebb26803576b50eb12d87d9,2021-09-28_12h46.17.895,forced_choiceRT_color,2021.2.3,MacIntel,60.0024001,,,,,,,,4,Ontime,long,k,1,2.0806,5,2,22,3,1,,,,,
,0.17,,,,,,,,,d,orange,5ebb26803576b50eb12d87d9,2021-09-28_12h46.17.895,forced_choiceRT_color,2021.2.3,MacIntel,60.0024001,,,,,,,,4,Ontime,long,d,1,1.96,5,3,23,0,1,,,,,
,1.15,,,,,,,,,f,blue,5ebb26803576b50eb12d87d9,2021-09-28_12h46.17.895,forced_choiceRT_color,2021.2.3,MacIntel,60.0024001,,,,,,,,4,Fast,long,f,1,1.8784,6,0,24,1,1,,,,,
,0.06,,,,,,,,,f,blue,5ebb26803576b50eb12d87d9,2021-09-28_12h46.17.895,forced_choiceRT_color,2021.2.3,MacIntel,60.0024001,,,,,,,,4,Ontime,long,f,1,2.0941,6,1,25,1,1,,,,,
,1.36,,,,,,,,,d,orange,5ebb26803576b50eb12d87d9,2021-09-28_12h46.17.895,forced_choiceRT_color,2021.2.3,MacIntel,60.0024001,,,,,,,,4,Ontime,long,d,1,1.9989,6,2,26,0,1,,,,,
,1.59,,,,,,,,,j,red,5ebb26803576b50eb12d87d9,2021-09-28_12h46.17.895,forced_choiceRT_color,2021.2.3,MacIntel,60.0024001,,,,,,,,4,Slow,long,j,1,2.1972,6,3,27,2,1,,,,,
,1.07,,,,,,,,,j,red,5ebb26803576b50eb12d87d9,2021-09-28_12h46.17.895,forced_choiceRT_color,2021.2.3,MacIntel,60.0024001,,,,,,,,4,Ontime,long,j,1,1.9427,7,0,28,2,1,,,,,
,0.96,,,,,,,,,j,red,5ebb26803576b50eb12d87d9,2021-09-28_12h46.17.895,forced_choiceRT_color,2021.2.3,MacIntel,60.0024001,,,,,,,,4,Fast,long,j,1,1.7606,7,1,29,2,1,,,,,
,1.1,,,,,,,,,j,red,5ebb26803576b50eb12d87d9,2021-09-28_12h46.17.895,forced_choiceRT_color,2021.2.3,MacIntel,60.0024001,,,,,,,,4,Fast,long,j,1,1.644,7,2,30,2,1,,,,,
,0.92,,,,,,,,,d,orange,5ebb26803576b50eb12d87d9,2021-09-28_12h46.17.895,forced_choiceRT_color,2021.2.3,MacIntel,60.0024001,,,,,,,,4,Fast,long,d,1,1.8115,7,3,31,0,1,,,,,
,1.83,,,,,,,,,d,orange,5ebb26803576b50eb12d87d9,2021-09-28_12h46.17.895,forced_choiceRT_color,2021.2.3,MacIntel,60.0024001,,,,,,,,4,Slow,long,d,1,2.3388,8,0,32,0,1,,,,,
,0.78,,,,,,,,,d,orange,5ebb26803576b50eb12d87d9,2021-09-28_12h46.17.895,forced_choiceRT_color,2021.2.3,MacIntel,60.0024001,,,,,,,,4,Ontime,long,d,1,2.0625,8,1,33,0,1,,,,,
,1.01,,,,,,,,,f,blue,5ebb26803576b50eb12d87d9,2021-09-28_12h46.17.895,forced_choiceRT_color,2021.2.3,MacIntel,60.0024001,,,,,,,,4,Ontime,long,d,0,2.0635,8,2,34,1,1,,,,,
,0.23,,,,,,,,,j,red,5ebb26803576b50eb12d87d9,2021-09-28_12h46.17.895,forced_choiceRT_color,2021.2.3,MacIntel,60.0024001,,,,,,,,4,Ontime,long,j,1,1.9134,8,3,35,2,1,,,,,
,1.08,,,,,,,,,d,orange,5ebb26803576b50eb12d87d9,2021-09-28_12h46.17.895,forced_choiceRT_color,2021.2.3,MacIntel,60.0024001,,,,,,,,4,Ontime,long,d,1,2.0765,9,0,36,0,1,,,,,
,0.67,,,,,,,,,k,purple,5ebb26803576b50eb12d87d9,2021-09-28_12h46.17.895,forced_choiceRT_color,2021.2.3,MacIntel,60.0024001,,,,,,,,4,Ontime,long,k,1,2.0315,9,1,37,3,1,,,,,
,0.82,,,,,,,,,f,blue,5ebb26803576b50eb12d87d9,2021-09-28_12h46.17.895,forced_choiceRT_color,2021.2.3,MacIntel,60.0024001,,,,,,,,4,Ontime,long,f,1,2.0603,9,2,38,1,1,,,,,
,1.31,,,,,,,,,k,purple,5ebb26803576b50eb12d87d9,2021-09-28_12h46.17.895,forced_choiceRT_color,2021.2.3,MacIntel,60.0024001,,,,,,,,4,Ontime,long,k,1,1.9807,9,3,39,3,1,,,,,
,,,,,,,,,,,,5ebb26803576b50eb12d87d9,2021-09-28_12h46.17.895,forced_choiceRT_color,2021.2.3,MacIntel,60.0024001,,,,,,,,,,,,,,,,,,,3,0,3,0,1
,0.92,,,,,,,,,f,blue,5ebb26803576b50eb12d87d9,2021-09-28_12h46.17.895,forced_choiceRT_color,2021.2.3,MacIntel,60.0024001,,,,,,,,5,Ontime,long,f,1,2.0186,0,0,0,1,1,,,,,
,0.19,,,,,,,,,f,blue,5ebb26803576b50eb12d87d9,2021-09-28_12h46.17.895,forced_choiceRT_color,2021.2.3,MacIntel,60.0024001,,,,,,,,5,Ontime,long,f,1,2.0814,0,1,1,1,1,,,,,
,1.75,,,,,,,,,k,purple,5ebb26803576b50eb12d87d9,2021-09-28_12h46.17.895,forced_choiceRT_color,2021.2.3,MacIntel,60.0024001,,,,,,,,5,Slow,long,k,1,2.2088,0,2,2,3,1,,,,,
,1.35,,,,,,,,,k,purple,5ebb26803576b50eb12d87d9,2021-09-28_12h46.17.895,forced_choiceRT_color,2021.2.3,MacIntel,60.0024001,,,,,,,,5,Ontime,long,k,1,1.964,0,3,3,3,1,,,,,
,0.14,,,,,,,,,k,purple,5ebb26803576b50eb12d87d9,2021-09-28_12h46.17.895,forced_choiceRT_color,2021.2.3,MacIntel,60.0024001,,,,,,,,5,Ontime,long,k,1,2.0151,1,0,4,3,1,,,,,
,1.64,,,,,,,,,j,red,5ebb26803576b50eb12d87d9,2021-09-28_12h46.17.895,forced_choiceRT_color,2021.2.3,MacIntel,60.0024001,,,,,,,,5,Slow,long,j,1,2.3356,1,1,5,2,1,,,,,
,0.49,,,,,,,,,d,orange,5ebb26803576b50eb12d87d9,2021-09-28_12h46.17.895,forced_choiceRT_color,2021.2.3,MacIntel,60.0024001,,,,,,,,5,Ontime,long,d,1,2.0624,1,2,6,0,1,,,,,
,0.09,,,,,,,,,d,orange,5ebb26803576b50eb12d87d9,2021-09-28_12h46.17.895,forced_choiceRT_color,2021.2.3,MacIntel,60.0024001,,,,,,,,5,Fast,long,j,0,1.7813,1,3,7,0,1,,,,,
,1.48,,,,,,,,,j,red,5ebb26803576b50eb12d87d9,2021-09-28_12h46.17.895,forced_choiceRT_color,2021.2.3,MacIntel,60.0024001,,,,,,,,5,Ontime,long,j,1,2.0942,2,0,8,2,1,,,,,
,0.8,,,,,,,,,j,red,5ebb26803576b50eb12d87d9,2021-09-28_12h46.17.895,forced_choiceRT_color,2021.2.3,MacIntel,60.0024001,,,,,,,,5,Ontime,long,j,1,2.0824,2,1,9,2,1,,,,,
,1.03,,,,,,,,,d,orange,5ebb26803576b50eb12d87d9,2021-09-28_12h46.17.895,forced_choiceRT_color,2021.2.3,MacIntel,60.0024001,,,,,,,,5,Fast,long,d,1,1.8303,2,2,10,0,1,,,,,
,1.57,,,,,,,,,k,purple,5ebb26803576b50eb12d87d9,2021-09-28_12h46.17.895,forced_choiceRT_color,2021.2.3,MacIntel,60.0024001,,,,,,,,5,Slow,long,k,1,2.1281,2,3,11,3,1,,,,,
,1.82,,,,,,,,,k,purple,5ebb26803576b50eb12d87d9,2021-09-28_12h46.17.895,forced_choiceRT_color,2021.2.3,MacIntel,60.0024001,,,,,,,,5,Slow,long,k,1,2.2668,3,0,12,3,1,,,,,
,0.36,,,,,,,,,f,blue,5ebb26803576b50eb12d87d9,2021-09-28_12h46.17.895,forced_choiceRT_color,2021.2.3,MacIntel,60.0024001,,,,,,,,5,Ontime,long,f,1,2.0128,3,1,13,1,1,,,,,
,0.28,,,,,,,,,f,blue,5ebb26803576b50eb12d87d9,2021-09-28_12h46.17.895,forced_choiceRT_color,2021.2.3,MacIntel,60.0024001,,,,,,,,5,Ontime,long,f,1,2.0819,3,2,14,1,1,,,,,
,1.71,,,,,,,,,k,purple,5ebb26803576b50eb12d87d9,2021-09-28_12h46.17.895,forced_choiceRT_color,2021.2.3,MacIntel,60.0024001,,,,,,,,5,Slow,long,k,1,2.1823,3,3,15,3,1,,,,,
,0.95,,,,,,,,,d,orange,5ebb26803576b50eb12d87d9,2021-09-28_12h46.17.895,forced_choiceRT_color,2021.2.3,MacIntel,60.0024001,,,,,,,,5,Ontime,long,d,1,2.0511,4,0,16,0,1,,,,,
,0.28,,,,,,,,,f,blue,5ebb26803576b50eb12d87d9,2021-09-28_12h46.17.895,forced_choiceRT_color,2021.2.3,MacIntel,60.0024001,,,,,,,,5,Ontime,long,f,1,1.9778,4,1,17,1,1,,,,,
,0.35,,,,,,,,,j,red,5ebb26803576b50eb12d87d9,2021-09-28_12h46.17.895,forced_choiceRT_color,2021.2.3,MacIntel,60.0024001,,,,,,,,5,Ontime,long,j,1,1.9954,4,2,18,2,1,,,,,
,1.24,,,,,,,,,d,orange,5ebb26803576b50eb12d87d9,2021-09-28_12h46.17.895,forced_choiceRT_color,2021.2.3,MacIntel,60.0024001,,,,,,,,5,Ontime,long,d,1,1.9456,4,3,19,0,1,,,,,
,0.04,,,,,,,,,d,orange,5ebb26803576b50eb12d87d9,2021-09-28_12h46.17.895,forced_choiceRT_color,2021.2.3,MacIntel,60.0024001,,,,,,,,5,Ontime,long,d,1,1.9486,5,0,20,0,1,,,,,
,1.67,,,,,,,,,d,orange,5ebb26803576b50eb12d87d9,2021-09-28_12h46.17.895,forced_choiceRT_color,2021.2.3,MacIntel,60.0024001,,,,,,,,5,Slow,long,d,1,2.1881,5,1,21,0,1,,,,,
,0.28,,,,,,,,,j,red,5ebb26803576b50eb12d87d9,2021-09-28_12h46.17.895,forced_choiceRT_color,2021.2.3,MacIntel,60.0024001,,,,,,,,5,Ontime,long,f,0,2.0808,5,2,22,2,1,,,,,
,1.02,,,,,,,,,j,red,5ebb26803576b50eb12d87d9,2021-09-28_12h46.17.895,forced_choiceRT_color,2021.2.3,MacIntel,60.0024001,,,,,,,,5,Ontime,long,j,1,1.9679,5,3,23,2,1,,,,,
,0.68,,,,,,,,,j,red,5ebb26803576b50eb12d87d9,2021-09-28_12h46.17.895,forced_choiceRT_color,2021.2.3,MacIntel,60.0024001,,,,,,,,5,Ontime,long,j,1,1.9646,6,0,24,2,1,,,,,
,1.9,,,,,,,,,k,purple,5ebb26803576b50eb12d87d9,2021-09-28_12h46.17.895,forced_choiceRT_color,2021.2.3,MacIntel,60.0024001,,,,,,,,5,Slow,long,k,1,2.1333,6,1,25,3,1,,,,,
,0.8,,,,,,,,,k,purple,5ebb26803576b50eb12d87d9,2021-09-28_12h46.17.895,forced_choiceRT_color,2021.2.3,MacIntel,60.0024001,,,,,,,,5,Ontime,long,k,1,1.9657,6,2,26,3,1,,,,,
,0.29,,,,,,,,,j,red,5ebb26803576b50eb12d87d9,2021-09-28_12h46.17.895,forced_choiceRT_color,2021.2.3,MacIntel,60.0024001,,,,,,,,5,Ontime,long,j,1,1.9807,6,3,27,2,1,,,,,
,1.26,,,,,,,,,j,red,5ebb26803576b50eb12d87d9,2021-09-28_12h46.17.895,forced_choiceRT_color,2021.2.3,MacIntel,60.0024001,,,,,,,,5,Ontime,long,j,1,1.9316,7,0,28,2,1,,,,,
,0.36,,,,,,,,,f,blue,5ebb26803576b50eb12d87d9,2021-09-28_12h46.17.895,forced_choiceRT_color,2021.2.3,MacIntel,60.0024001,,,,,,,,5,Ontime,long,f,1,2.0809,7,1,29,1,1,,,,,
,0.15,,,,,,,,,j,red,5ebb26803576b50eb12d87d9,2021-09-28_12h46.17.895,forced_choiceRT_color,2021.2.3,MacIntel,60.0024001,,,,,,,,5,Fast,long,j,1,1.7151,7,2,30,2,1,,,,,
,0.01,,,,,,,,,f,blue,5ebb26803576b50eb12d87d9,2021-09-28_12h46.17.895,forced_choiceRT_color,2021.2.3,MacIntel,60.0024001,,,,,,,,5,Ontime,long,f,1,2.0311,7,3,31,1,1,,,,,
,0.44,,,,,,,,,d,orange,5ebb26803576b50eb12d87d9,2021-09-28_12h46.17.895,forced_choiceRT_color,2021.2.3,MacIntel,60.0024001,,,,,,,,5,Slow,long,d,1,2.1297,8,0,32,0,1,,,,,
,0.23,,,,,,,,,d,orange,5ebb26803576b50eb12d87d9,2021-09-28_12h46.17.895,forced_choiceRT_color,2021.2.3,MacIntel,60.0024001,,,,,,,,5,Ontime,long,d,1,1.9158,8,1,33,0,1,,,,,
,1.82,,,,,,,,,f,blue,5ebb26803576b50eb12d87d9,2021-09-28_12h46.17.895,forced_choiceRT_color,2021.2.3,MacIntel,60.0024001,,,,,,,,5,Slow,long,j,0,2.4878,8,2,34,1,1,,,,,
,0.86,,,,,,,,,f,blue,5ebb26803576b50eb12d87d9,2021-09-28_12h46.17.895,forced_choiceRT_color,2021.2.3,MacIntel,60.0024001,,,,,,,,5,Ontime,long,f,1,1.998,8,3,35,1,1,,,,,
,1.9,,,,,,,,,f,blue,5ebb26803576b50eb12d87d9,2021-09-28_12h46.17.895,forced_choiceRT_color,2021.2.3,MacIntel,60.0024001,,,,,,,,5,Slow,long,k,0,2.2281,9,0,36,1,1,,,,,
,1.85,,,,,,,,,k,purple,5ebb26803576b50eb12d87d9,2021-09-28_12h46.17.895,forced_choiceRT_color,2021.2.3,MacIntel,60.0024001,,,,,,,,5,Slow,long,j,0,2.2983,9,1,37,3,1,,,,,
,1.68,,,,,,,,,k,purple,5ebb26803576b50eb12d87d9,2021-09-28_12h46.17.895,forced_choiceRT_color,2021.2.3,MacIntel,60.0024001,,,,,,,,5,Slow,long,k,1,2.1638,9,2,38,3,1,,,,,
,1.87,,,,,,,,,d,orange,5ebb26803576b50eb12d87d9,2021-09-28_12h46.17.895,forced_choiceRT_color,2021.2.3,MacIntel,60.0024001,,,,,,,,5,Ontime,long,j,0,1.929,9,3,39,0,1,,,,,
,,,,,,,,,,,,5ebb26803576b50eb12d87d9,2021-09-28_12h46.17.895,forced_choiceRT_color,2021.2.3,MacIntel,60.0024001,,,,,,,,,,,,,,,,,,,4,0,4,0,1
,0.27,,,,,,,,,j,red,5ebb26803576b50eb12d87d9,2021-09-28_12h46.17.895,forced_choiceRT_color,2021.2.3,MacIntel,60.0024001,,,,,,,,6,Ontime,long,f,0,2.0077,0,0,0,2,1,,,,,
,0.13,,,,,,,,,d,orange,5ebb26803576b50eb12d87d9,2021-09-28_12h46.17.895,forced_choiceRT_color,2021.2.3,MacIntel,60.0024001,,,,,,,,6,Ontime,long,d,1,1.9284,0,1,1,0,1,,,,,
,0.3,,,,,,,,,f,blue,5ebb26803576b50eb12d87d9,2021-09-28_12h46.17.895,forced_choiceRT_color,2021.2.3,MacIntel,60.0024001,,,,,,,,6,Ontime,long,f,1,1.9812,0,2,2,1,1,,,,,
,1.09,,,,,,,,,f,blue,5ebb26803576b50eb12d87d9,2021-09-28_12h46.17.895,forced_choiceRT_color,2021.2.3,MacIntel,60.0024001,,,,,,,,6,Ontime,long,f,1,2.0798,0,3,3,1,1,,,,,
,0.32,,,,,,,,,j,red,5ebb26803576b50eb12d87d9,2021-09-28_12h46.17.895,forced_choiceRT_color,2021.2.3,MacIntel,60.0024001,,,,,,,,6,Ontime,long,j,1,1.9975,1,0,4,2,1,,,,,
,0.35,,,,,,,,,j,red,5ebb26803576b50eb12d87d9,2021-09-28_12h46.17.895,forced_choiceRT_color,2021.2.3,MacIntel,60.0024001,,,,,,,,6,Fast,long,f,0,1.7801,1,1,5,2,1,,,,,
,1.44,,,,,,,,,f,blue,5ebb26803576b50eb12d87d9,2021-09-28_12h46.17.895,forced_choiceRT_color,2021.2.3,MacIntel,60.0024001,,,,,,,,6,Slow,long,f,1,2.131,1,2,6,1,1,,,,,
,1.06,,,,,,,,,k,purple,5ebb26803576b50eb12d87d9,2021-09-28_12h46.17.895,forced_choiceRT_color,2021.2.3,MacIntel,60.0024001,,,,,,,,6,Slow,long,k,1,2.1088,1,3,7,3,1,,,,,
,0.12,,,,,,,,,j,red,5ebb26803576b50eb12d87d9,2021-09-28_12h46.17.895,forced_choiceRT_color,2021.2.3,MacIntel,60.0024001,,,,,,,,6,Ontime,long,j,1,1.9126,2,0,8,2,1,,,,,
,0.81,,,,,,,,,j,red,5ebb26803576b50eb12d87d9,2021-09-28_12h46.17.895,forced_choiceRT_color,2021.2.3,MacIntel,60.0024001,,,,,,,,6,Fast,long,j,1,1.8302,2,1,9,2,1,,,,,
,0.19,,,,,,,,,f,blue,5ebb26803576b50eb12d87d9,2021-09-28_12h46.17.895,forced_choiceRT_color,2021.2.3,MacIntel,60.0024001,,,,,,,,6,Ontime,long,f,1,2.0175,2,2,10,1,1,,,,,
,0.03,,,,,,,,,j,red,5ebb26803576b50eb12d87d9,2021-09-28_12h46.17.895,forced_choiceRT_color,2021.2.3,MacIntel,60.0024001,,,,,,,,6,Ontime,long,j,1,1.9811,2,3,11,2,1,,,,,
,1.19,,,,,,,,,d,orange,5ebb26803576b50eb12d87d9,2021-09-28_12h46.17.895,forced_choiceRT_color,2021.2.3,MacIntel,60.0024001,,,,,,,,6,Slow,long,d,1,2.1436,3,0,12,0,1,,,,,
,1.27,,,,,,,,,d,orange,5ebb26803576b50eb12d87d9,2021-09-28_12h46.17.895,forced_choiceRT_color,2021.2.3,MacIntel,60.0024001,,,,,,,,6,Ontime,long,d,1,1.9616,3,1,13,0,1,,,,,
,1.05,,,,,,,,,d,orange,5ebb26803576b50eb12d87d9,2021-09-28_12h46.17.895,forced_choiceRT_color,2021.2.3,MacIntel,60.0024001,,,,,,,,6,Ontime,long,d,1,2.0087,3,2,14,0,1,,,,,
,0.67,,,,,,,,,d,orange,5ebb26803576b50eb12d87d9,2021-09-28_12h46.17.895,forced_choiceRT_color,2021.2.3,MacIntel,60.0024001,,,,,,,,6,Ontime,long,d,1,1.9775,3,3,15,0,1,,,,,
,0.66,,,,,,,,,d,orange,5ebb26803576b50eb12d87d9,2021-09-28_12h46.17.895,forced_choiceRT_color,2021.2.3,MacIntel,60.0024001,,,,,,,,6,Ontime,long,d,1,1.9751,4,0,16,0,1,,,,,
,1.75,,,,,,,,,d,orange,5ebb26803576b50eb12d87d9,2021-09-28_12h46.17.895,forced_choiceRT_color,2021.2.3,MacIntel,60.0024001,,,,,,,,6,Slow,long,d,1,2.195,4,1,17,0,1,,,,,
,0.84,,,,,,,,,k,purple,5ebb26803576b50eb12d87d9,2021-09-28_12h46.17.895,forced_choiceRT_color,2021.2.3,MacIntel,60.0024001,,,,,,,,6,Ontime,long,k,1,1.9819,4,2,18,3,1,,,,,
,1.12,,,,,,,,,f,blue,5ebb26803576b50eb12d87d9,2021-09-28_12h46.17.895,forced_choiceRT_color,2021.2.3,MacIntel,60.0024001,,,,,,,,6,Ontime,long,f,1,2.0487,4,3,19,1,1,,,,,
,0.45,,,,,,,,,d,orange,5ebb26803576b50eb12d87d9,2021-09-28_12h46.17.895,forced_choiceRT_color,2021.2.3,MacIntel,60.0024001,,,,,,,,6,Ontime,long,d,1,1.9444,5,0,20,0,1,,,,,
,1.85,,,,,,,,,f,blue,5ebb26803576b50eb12d87d9,2021-09-28_12h46.17.895,forced_choiceRT_color,2021.2.3,MacIntel,60.0024001,,,,,,,,6,Slow,long,k,0,2.3272,5,1,21,1,1,,,,,
,1.45,,,,,,,,,j,red,5ebb26803576b50eb12d87d9,2021-09-28_12h46.17.895,forced_choiceRT_color,2021.2.3,MacIntel,60.0024001,,,,,,,,6,Ontime,long,j,1,1.975,5,2,22,2,1,,,,,
,1.44,,,,,,,,,d,orange,5ebb26803576b50eb12d87d9,2021-09-28_12h46.17.895,forced_choiceRT_color,2021.2.3,MacIntel,60.0024001,,,,,,,,6,Ontime,long,d,1,1.995,5,3,23,0,1,,,,,
,1.53,,,,,,,,,k,purple,5ebb26803576b50eb12d87d9,2021-09-28_12h46.17.895,forced_choiceRT_color,2021.2.3,MacIntel,60.0024001,,,,,,,,6,Slow,long,j,0,2.2293,6,0,24,3,1,,,,,
,0.17,,,,,,,,,k,purple,5ebb26803576b50eb12d87d9,2021-09-28_12h46.17.895,forced_choiceRT_color,2021.2.3,MacIntel,60.0024001,,,,,,,,6,Ontime,long,k,1,1.9622,6,1,25,3,1,,,,,
,1.74,,,,,,,,,k,purple,5ebb26803576b50eb12d87d9,2021-09-28_12h46.17.895,forced_choiceRT_color,2021.2.3,MacIntel,60.0024001,,,,,,,,6,Slow,long,k,1,2.1953,6,2,26,3,1,,,,,
,0.43,,,,,,,,,f,blue,5ebb26803576b50eb12d87d9,2021-09-28_12h46.17.895,forced_choiceRT_color,2021.2.3,MacIntel,60.0024001,,,,,,,,6,Ontime,long,f,1,1.9772,6,3,27,1,1,,,,,
,0.46,,,,,,,,,k,purple,5ebb26803576b50eb12d87d9,2021-09-28_12h46.17.895,forced_choiceRT_color,2021.2.3,MacIntel,60.0024001,,,,,,,,6,Ontime,long,k,1,1.9336,7,0,28,3,1,,,,,
,0.47,,,,,,,,,k,purple,5ebb26803576b50eb12d87d9,2021-09-28_12h46.17.895,forced_choiceRT_color,2021.2.3,MacIntel,60.0024001,,,,,,,,6,Ontime,long,k,1,1.964,7,1,29,3,1,,,,,
,1.07,,,,,,,,,f,blue,5ebb26803576b50eb12d87d9,2021-09-28_12h46.17.895,forced_choiceRT_color,2021.2.3,MacIntel,60.0024001,,,,,,,,6,Ontime,long,f,1,2.0469,7,2,30,1,1,,,,,
,0.27,,,,,,,,,k,purple,5ebb26803576b50eb12d87d9,2021-09-28_12h46.17.895,forced_choiceRT_color,2021.2.3,MacIntel,60.0024001,,,,,,,,6,Ontime,long,k,1,1.9616,7,3,31,3,1,,,,,
,1.06,,,,,,,,,j,red,5ebb26803576b50eb12d87d9,2021-09-28_12h46.17.895,forced_choiceRT_color,2021.2.3,MacIntel,60.0024001,,,,,,,,6,Slow,long,j,1,2.1004,8,0,32,2,1,,,,,
,1.34,,,,,,,,,d,orange,5ebb26803576b50eb12d87d9,2021-09-28_12h46.17.895,forced_choiceRT_color,2021.2.3,MacIntel,60.0024001,,,,,,,,6,Ontime,long,d,1,2.0277,8,1,33,0,1,,,,,
,1.18,,,,,,,,,k,purple,5ebb26803576b50eb12d87d9,2021-09-28_12h46.17.895,forced_choiceRT_color,2021.2.3,MacIntel,60.0024001,,,,,,,,6,Fast,long,k,1,1.8757,8,2,34,3,1,,,,,
,0.27,,,,,,,,,j,red,5ebb26803576b50eb12d87d9,2021-09-28_12h46.17.895,forced_choiceRT_color,2021.2.3,MacIntel,60.0024001,,,,,,,,6,Ontime,long,j,1,2.0155,8,3,35,2,1,,,,,
,1.41,,,,,,,,,f,blue,5ebb26803576b50eb12d87d9,2021-09-28_12h46.17.895,forced_choiceRT_color,2021.2.3,MacIntel,60.0024001,,,,,,,,6,Slow,long,f,1,2.1932,9,0,36,1,1,,,,,
,0.45,,,,,,,,,k,purple,5ebb26803576b50eb12d87d9,2021-09-28_12h46.17.895,forced_choiceRT_color,2021.2.3,MacIntel,60.0024001,,,,,,,,6,Ontime,long,k,1,1.9303,9,1,37,3,1,,,,,
,1.28,,,,,,,,,f,blue,5ebb26803576b50eb12d87d9,2021-09-28_12h46.17.895,forced_choiceRT_color,2021.2.3,MacIntel,60.0024001,,,,,,,,6,Ontime,long,d,0,1.9281,9,2,38,1,1,,,,,
,0.61,,,,,,,,,j,red,5ebb26803576b50eb12d87d9,2021-09-28_12h46.17.895,forced_choiceRT_color,2021.2.3,MacIntel,60.0024001,,,,,,,,6,Ontime,long,j,1,2.0343,9,3,39,2,1,,,,,
,,,,,,,,,,,,5ebb26803576b50eb12d87d9,2021-09-28_12h46.17.895,forced_choiceRT_color,2021.2.3,MacIntel,60.0024001,,,,,,,,,,,,,,,,,,,5,0,5,0,1
,1.2,,,,,,,,,d,orange,5ebb26803576b50eb12d87d9,2021-09-28_12h46.17.895,forced_choiceRT_color,2021.2.3,MacIntel,60.0024001,,,,,,,,7,Fast,long,f,0,1.8934,0,0,0,0,1,,,,,
,0.41,,,,,,,,,d,orange,5ebb26803576b50eb12d87d9,2021-09-28_12h46.17.895,forced_choiceRT_color,2021.2.3,MacIntel,60.0024001,,,,,,,,7,Ontime,long,d,1,1.9781,0,1,1,0,1,,,,,
,1.03,,,,,,,,,d,orange,5ebb26803576b50eb12d87d9,2021-09-28_12h46.17.895,forced_choiceRT_color,2021.2.3,MacIntel,60.0024001,,,,,,,,7,Ontime,long,d,1,2.0444,0,2,2,0,1,,,,,
,0.81,,,,,,,,,k,purple,5ebb26803576b50eb12d87d9,2021-09-28_12h46.17.895,forced_choiceRT_color,2021.2.3,MacIntel,60.0024001,,,,,,,,7,Ontime,long,k,1,2.0578,0,3,3,3,1,,,,,
,0.68,,,,,,,,,j,red,5ebb26803576b50eb12d87d9,2021-09-28_12h46.17.895,forced_choiceRT_color,2021.2.3,MacIntel,60.0024001,,,,,,,,7,Ontime,long,j,1,1.9658,1,0,4,2,1,,,,,
,0.5,,,,,,,,,k,purple,5ebb26803576b50eb12d87d9,2021-09-28_12h46.17.895,forced_choiceRT_color,2021.2.3,MacIntel,60.0024001,,,,,,,,7,Ontime,long,k,1,2.0297,1,1,5,3,1,,,,,
,1.29,,,,,,,,,k,purple,5ebb26803576b50eb12d87d9,2021-09-28_12h46.17.895,forced_choiceRT_color,2021.2.3,MacIntel,60.0024001,,,,,,,,7,Ontime,long,k,1,2.0411,1,2,6,3,1,,,,,
,1.59,,,,,,,,,j,red,5ebb26803576b50eb12d87d9,2021-09-28_12h46.17.895,forced_choiceRT_color,2021.2.3,MacIntel,60.0024001,,,,,,,,7,Slow,long,j,1,2.2008,1,3,7,2,1,,,,,
,0.19,,,,,,,,,d,orange,5ebb26803576b50eb12d87d9,2021-09-28_12h46.17.895,forced_choiceRT_color,2021.2.3,MacIntel,60.0024001,,,,,,,,7,Fast,long,d,1,1.7434,2,0,8,0,1,,,,,
,1.5,,,,,,,,,j,red,5ebb26803576b50eb12d87d9,2021-09-28_12h46.17.895,forced_choiceRT_color,2021.2.3,MacIntel,60.0024001,,,,,,,,7,Slow,long,j,1,2.1914,2,1,9,2,1,,,,,
,1.7,,,,,,,,,j,red,5ebb26803576b50eb12d87d9,2021-09-28_12h46.17.895,forced_choiceRT_color,2021.2.3,MacIntel,60.0024001,,,,,,,,7,Slow,long,j,1,2.2011,2,2,10,2,1,,,,,
,0.88,,,,,,,,,d,orange,5ebb26803576b50eb12d87d9,2021-09-28_12h46.17.895,forced_choiceRT_color,2021.2.3,MacIntel,60.0024001,,,,,,,,7,Ontime,long,d,1,1.9939,2,3,11,0,1,,,,,
,0.57,,,,,,,,,k,purple,5ebb26803576b50eb12d87d9,2021-09-28_12h46.17.895,forced_choiceRT_color,2021.2.3,MacIntel,60.0024001,,,,,,,,7,Ontime,long,k,1,2.0115,3,0,12,3,1,,,,,
,1.53,,,,,,,,,j,red,5ebb26803576b50eb12d87d9,2021-09-28_12h46.17.895,forced_choiceRT_color,2021.2.3,MacIntel,60.0024001,,,,,,,,7,Slow,long,j,1,2.1251,3,1,13,2,1,,,,,
,1.86,,,,,,,,,k,purple,5ebb26803576b50eb12d87d9,2021-09-28_12h46.17.895,forced_choiceRT_color,2021.2.3,MacIntel,60.0024001,,,,,,,,7,Slow,long,k,1,2.2586,3,2,14,3,1,,,,,
,0.64,,,,,,,,,f,blue,5ebb26803576b50eb12d87d9,2021-09-28_12h46.17.895,forced_choiceRT_color,2021.2.3,MacIntel,60.0024001,,,,,,,,7,Fast,long,f,1,1.7642,3,3,15,1,1,,,,,
,1.42,,,,,,,,,d,orange,5ebb26803576b50eb12d87d9,2021-09-28_12h46.17.895,forced_choiceRT_color,2021.2.3,MacIntel,60.0024001,,,,,,,,7,Ontime,long,d,1,1.944,4,0,16,0,1,,,,,
,0.96,,,,,,,,,f,blue,5ebb26803576b50eb12d87d9,2021-09-28_12h46.17.895,forced_choiceRT_color,2021.2.3,MacIntel,60.0024001,,,,,,,,7,Ontime,long,f,1,1.9427,4,1,17,1,1,,,,,
,1.83,,,,,,,,,d,orange,5ebb26803576b50eb12d87d9,2021-09-28_12h46.17.895,forced_choiceRT_color,2021.2.3,MacIntel,60.0024001,,,,,,,,7,Slow,long,d,1,2.2668,4,2,18,0,1,,,,,
,1.6,,,,,,,,,k,purple,5ebb26803576b50eb12d87d9,2021-09-28_12h46.17.895,forced_choiceRT_color,2021.2.3,MacIntel,60.0024001,,,,,,,,7,Slow,long,k,1,2.1323,4,3,19,3,1,,,,,
,0.35,,,,,,,,,d,orange,5ebb26803576b50eb12d87d9,2021-09-28_12h46.17.895,forced_choiceRT_color,2021.2.3,MacIntel,60.0024001,,,,,,,,7,Fast,long,d,1,1.8985,5,0,20,0,1,,,,,
,1.49,,,,,,,,,k,purple,5ebb26803576b50eb12d87d9,2021-09-28_12h46.17.895,forced_choiceRT_color,2021.2.3,MacIntel,60.0024001,,,,,,,,7,Ontime,long,k,1,1.9647,5,1,21,3,1,,,,,
,1,,,,,,,,,f,blue,5ebb26803576b50eb12d87d9,2021-09-28_12h46.17.895,forced_choiceRT_color,2021.2.3,MacIntel,60.0024001,,,,,,,,7,Ontime,long,f,1,1.9649,5,2,22,1,1,,,,,
,1.26,,,,,,,,,f,blue,5ebb26803576b50eb12d87d9,2021-09-28_12h46.17.895,forced_choiceRT_color,2021.2.3,MacIntel,60.0024001,,,,,,,,7,Ontime,long,f,1,1.9322,5,3,23,1,1,,,,,
,1.05,,,,,,,,,k,purple,5ebb26803576b50eb12d87d9,2021-09-28_12h46.17.895,forced_choiceRT_color,2021.2.3,MacIntel,60.0024001,,,,,,,,7,Slow,long,k,1,2.1297,6,0,24,3,1,,,,,
,1.74,,,,,,,,,f,blue,5ebb26803576b50eb12d87d9,2021-09-28_12h46.17.895,forced_choiceRT_color,2021.2.3,MacIntel,60.0024001,,,,,,,,7,Slow,long,k,0,2.2822,6,1,25,1,1,,,,,
,0.78,,,,,,,,,f,blue,5ebb26803576b50eb12d87d9,2021-09-28_12h46.17.895,forced_choiceRT_color,2021.2.3,MacIntel,60.0024001,,,,,,,,7,Fast,long,f,1,1.7306,6,2,26,1,1,,,,,
,0.41,,,,,,,,,j,red,5ebb26803576b50eb12d87d9,2021-09-28_12h46.17.895,forced_choiceRT_color,2021.2.3,MacIntel,60.0024001,,,,,,,,7,Ontime,long,j,1,1.992,6,3,27,2,1,,,,,
,1.43,,,,,,,,,f,blue,5ebb26803576b50eb12d87d9,2021-09-28_12h46.17.895,forced_choiceRT_color,2021.2.3,MacIntel,60.0024001,,,,,,,,7,Slow,long,d,0,2.1155,7,0,28,1,1,,,,,
,0.71,,,,,,,,,f,blue,5ebb26803576b50eb12d87d9,2021-09-28_12h46.17.895,forced_choiceRT_color,2021.2.3,MacIntel,60.0024001,,,,,,,,7,Ontime,long,f,1,1.9602,7,1,29,1,1,,,,,
,1.84,,,,,,,,,f,blue,5ebb26803576b50eb12d87d9,2021-09-28_12h46.17.895,forced_choiceRT_color,2021.2.3,MacIntel,60.0024001,,,,,,,,7,Slow,long,f,1,2.4587,7,2,30,1,1,,,,,
,0.21,,,,,,,,,f,blue,5ebb26803576b50eb12d87d9,2021-09-28_12h46.17.895,forced_choiceRT_color,2021.2.3,MacIntel,60.0024001,,,,,,,,7,Ontime,long,f,1,1.9626,7,3,31,1,1,,,,,
,0.59,,,,,,,,,d,orange,5ebb26803576b50eb12d87d9,2021-09-28_12h46.17.895,forced_choiceRT_color,2021.2.3,MacIntel,60.0024001,,,,,,,,7,Ontime,long,d,1,1.9977,8,0,32,0,1,,,,,
,1.82,,,,,,,,,j,red,5ebb26803576b50eb12d87d9,2021-09-28_12h46.17.895,forced_choiceRT_color,2021.2.3,MacIntel,60.0024001,,,,,,,,7,Slow,long,f,0,2.2002,8,1,33,2,1,,,,,
,0.04,,,,,,,,,k,purple,5ebb26803576b50eb12d87d9,2021-09-28_12h46.17.895,forced_choiceRT_color,2021.2.3,MacIntel,60.0024001,,,,,,,,7,Ontime,long,k,1,1.9625,8,2,34,3,1,,,,,
,1.29,,,,,,,,,k,purple,5ebb26803576b50eb12d87d9,2021-09-28_12h46.17.895,forced_choiceRT_color,2021.2.3,MacIntel,60.0024001,,,,,,,,7,Ontime,long,k,1,1.9964,8,3,35,3,1,,,,,
,0.34,,,,,,,,,j,red,5ebb26803576b50eb12d87d9,2021-09-28_12h46.17.895,forced_choiceRT_color,2021.2.3,MacIntel,60.0024001,,,,,,,,7,Ontime,long,j,1,1.9798,9,0,36,2,1,,,,,
,0.93,,,,,,,,,j,red,5ebb26803576b50eb12d87d9,2021-09-28_12h46.17.895,forced_choiceRT_color,2021.2.3,MacIntel,60.0024001,,,,,,,,7,Slow,long,j,1,2.2227,9,1,37,2,1,,,,,
,0.77,,,,,,,,,d,orange,5ebb26803576b50eb12d87d9,2021-09-28_12h46.17.895,forced_choiceRT_color,2021.2.3,MacIntel,60.0024001,,,,,,,,7,Ontime,long,d,1,2.0156,9,2,38,0,1,,,,,
,0.23,,,,,,,,,j,red,5ebb26803576b50eb12d87d9,2021-09-28_12h46.17.895,forced_choiceRT_color,2021.2.3,MacIntel,60.0024001,,,,,,,,7,Ontime,long,j,1,1.945,9,3,39,2,1,,,,,
,,,,,,,,,,,,5ebb26803576b50eb12d87d9,2021-09-28_12h46.17.895,forced_choiceRT_color,2021.2.3,MacIntel,60.0024001,,,,,,,,,,,,,,,,,,,6,0,6,0,1
,1.04,,,,,,,,,d,orange,5ebb26803576b50eb12d87d9,2021-09-28_12h46.17.895,forced_choiceRT_color,2021.2.3,MacIntel,60.0024001,,,,,,,,8,Fast,long,d,1,1.7943,0,0,0,0,1,,,,,
,1.11,,,,,,,,,j,red,5ebb26803576b50eb12d87d9,2021-09-28_12h46.17.895,forced_choiceRT_color,2021.2.3,MacIntel,60.0024001,,,,,,,,8,Slow,long,f,0,2.1282,0,1,1,2,1,,,,,
,1.51,,,,,,,,,k,purple,5ebb26803576b50eb12d87d9,2021-09-28_12h46.17.895,forced_choiceRT_color,2021.2.3,MacIntel,60.0024001,,,,,,,,8,Ontime,long,k,1,2.0775,0,2,2,3,1,,,,,
,1.78,,,,,,,,,k,purple,5ebb26803576b50eb12d87d9,2021-09-28_12h46.17.895,forced_choiceRT_color,2021.2.3,MacIntel,60.0024001,,,,,,,,8,Slow,long,k,1,2.1424,0,3,3,3,1,,,,,
,1.73,,,,,,,,,k,purple,5ebb26803576b50eb12d87d9,2021-09-28_12h46.17.895,forced_choiceRT_color,2021.2.3,MacIntel,60.0024001,,,,,,,,8,Slow,long,k,1,2.1801,1,0,4,3,1,,,,,
,0.9,,,,,,,,,d,orange,5ebb26803576b50eb12d87d9,2021-09-28_12h46.17.895,forced_choiceRT_color,2021.2.3,MacIntel,60.0024001,,,,,,,,8,Ontime,long,d,1,2.0964,1,1,5,0,1,,,,,
,1.68,,,,,,,,,k,purple,5ebb26803576b50eb12d87d9,2021-09-28_12h46.17.895,forced_choiceRT_color,2021.2.3,MacIntel,60.0024001,,,,,,,,8,Slow,long,k,1,2.2286,1,2,6,3,1,,,,,
,1.33,,,,,,,,,j,red,5ebb26803576b50eb12d87d9,2021-09-28_12h46.17.895,forced_choiceRT_color,2021.2.3,MacIntel,60.0024001,,,,,,,,8,Ontime,long,j,1,1.9654,1,3,7,2,1,,,,,
,1.91,,,,,,,,,k,purple,5ebb26803576b50eb12d87d9,2021-09-28_12h46.17.895,forced_choiceRT_color,2021.2.3,MacIntel,60.0024001,,,,,,,,8,Slow,long,k,1,2.3075,2,0,8,3,1,,,,,
,0.88,,,,,,,,,j,red,5ebb26803576b50eb12d87d9,2021-09-28_12h46.17.895,forced_choiceRT_color,2021.2.3,MacIntel,60.0024001,,,,,,,,8,Fast,long,j,1,1.8915,2,1,9,2,1,,,,,
,1.34,,,,,,,,,k,purple,5ebb26803576b50eb12d87d9,2021-09-28_12h46.17.895,forced_choiceRT_color,2021.2.3,MacIntel,60.0024001,,,,,,,,8,Ontime,long,k,1,2.0454,2,2,10,3,1,,,,,
,0.92,,,,,,,,,f,blue,5ebb26803576b50eb12d87d9,2021-09-28_12h46.17.895,forced_choiceRT_color,2021.2.3,MacIntel,60.0024001,,,,,,,,8,Ontime,long,f,1,2.0435,2,3,11,1,1,,,,,
,1.71,,,,,,,,,j,red,5ebb26803576b50eb12d87d9,2021-09-28_12h46.17.895,forced_choiceRT_color,2021.2.3,MacIntel,60.0024001,,,,,,,,8,Slow,long,j,1,2.2792,3,0,12,2,1,,,,,
,1.59,,,,,,,,,j,red,5ebb26803576b50eb12d87d9,2021-09-28_12h46.17.895,forced_choiceRT_color,2021.2.3,MacIntel,60.0024001,,,,,,,,8,Ontime,long,k,0,2.0844,3,1,13,2,1,,,,,
,0.07,,,,,,,,,f,blue,5ebb26803576b50eb12d87d9,2021-09-28_12h46.17.895,forced_choiceRT_color,2021.2.3,MacIntel,60.0024001,,,,,,,,8,Ontime,long,f,1,2.0445,3,2,14,1,1,,,,,
,0.1,,,,,,,,,f,blue,5ebb26803576b50eb12d87d9,2021-09-28_12h46.17.895,forced_choiceRT_color,2021.2.3,MacIntel,60.0024001,,,,,,,,8,Ontime,long,f,1,1.9967,3,3,15,1,1,,,,,
,1.21,,,,,,,,,j,red,5ebb26803576b50eb12d87d9,2021-09-28_12h46.17.895,forced_choiceRT_color,2021.2.3,MacIntel,60.0024001,,,,,,,,8,Ontime,long,j,1,1.9673,4,0,16,2,1,,,,,
,0.79,,,,,,,,,d,orange,5ebb26803576b50eb12d87d9,2021-09-28_12h46.17.895,forced_choiceRT_color,2021.2.3,MacIntel,60.0024001,,,,,,,,8,Ontime,long,d,1,2.0843,4,1,17,0,1,,,,,
,0.8,,,,,,,,,f,blue,5ebb26803576b50eb12d87d9,2021-09-28_12h46.17.895,forced_choiceRT_color,2021.2.3,MacIntel,60.0024001,,,,,,,,8,Ontime,long,f,1,1.9806,4,2,18,1,1,,,,,
,0.83,,,,,,,,,f,blue,5ebb26803576b50eb12d87d9,2021-09-28_12h46.17.895,forced_choiceRT_color,2021.2.3,MacIntel,60.0024001,,,,,,,,8,Ontime,long,f,1,1.9816,4,3,19,1,1,,,,,
,1.61,,,,,,,,,d,orange,5ebb26803576b50eb12d87d9,2021-09-28_12h46.17.895,forced_choiceRT_color,2021.2.3,MacIntel,60.0024001,,,,,,,,8,Slow,long,d,1,2.1481,5,0,20,0,1,,,,,
,0.7,,,,,,,,,j,red,5ebb26803576b50eb12d87d9,2021-09-28_12h46.17.895,forced_choiceRT_color,2021.2.3,MacIntel,60.0024001,,,,,,,,8,Ontime,long,f,0,2.0631,5,1,21,2,1,,,,,
,0.43,,,,,,,,,f,blue,5ebb26803576b50eb12d87d9,2021-09-28_12h46.17.895,forced_choiceRT_color,2021.2.3,MacIntel,60.0024001,,,,,,,,8,Fast,long,f,1,1.7283,5,2,22,1,1,,,,,
,1.1,,,,,,,,,j,red,5ebb26803576b50eb12d87d9,2021-09-28_12h46.17.895,forced_choiceRT_color,2021.2.3,MacIntel,60.0024001,,,,,,,,8,Slow,long,d,0,2.1283,5,3,23,2,1,,,,,
,1.61,,,,,,,,,k,purple,5ebb26803576b50eb12d87d9,2021-09-28_12h46.17.895,forced_choiceRT_color,2021.2.3,MacIntel,60.0024001,,,,,,,,8,Slow,long,j,0,2.1424,6,0,24,3,1,,,,,
,0.62,,,,,,,,,f,blue,5ebb26803576b50eb12d87d9,2021-09-28_12h46.17.895,forced_choiceRT_color,2021.2.3,MacIntel,60.0024001,,,,,,,,8,Fast,long,f,1,1.7475,6,1,25,1,1,,,,,
,0.78,,,,,,,,,d,orange,5ebb26803576b50eb12d87d9,2021-09-28_12h46.17.895,forced_choiceRT_color,2021.2.3,MacIntel,60.0024001,,,,,,,,8,Ontime,long,d,1,1.9315,6,2,26,0,1,,,,,
,0.02,,,,,,,,,j,red,5ebb26803576b50eb12d87d9,2021-09-28_12h46.17.895,forced_choiceRT_color,2021.2.3,MacIntel,60.0024001,,,,,,,,8,Ontime,long,j,1,1.9825,6,3,27,2,1,,,,,
,1.08,,,,,,,,,k,purple,5ebb26803576b50eb12d87d9,2021-09-28_12h46.17.895,forced_choiceRT_color,2021.2.3,MacIntel,60.0024001,,,,,,,,8,Ontime,long,k,1,2.0448,7,0,28,3,1,,,,,
,1.28,,,,,,,,,d,orange,5ebb26803576b50eb12d87d9,2021-09-28_12h46.17.895,forced_choiceRT_color,2021.2.3,MacIntel,60.0024001,,,,,,,,8,Ontime,long,d,1,2.0609,7,1,29,0,1,,,,,
,0.78,,,,,,,,,j,red,5ebb26803576b50eb12d87d9,2021-09-28_12h46.17.895,forced_choiceRT_color,2021.2.3,MacIntel,60.0024001,,,,,,,,8,Ontime,long,j,1,2.0618,7,2,30,2,1,,,,,
,1.02,,,,,,,,,d,orange,5ebb26803576b50eb12d87d9,2021-09-28_12h46.17.895,forced_choiceRT_color,2021.2.3,MacIntel,60.0024001,,,,,,,,8,Ontime,long,d,1,2.098,7,3,31,0,1,,,,,
,0.85,,,,,,,,,f,blue,5ebb26803576b50eb12d87d9,2021-09-28_12h46.17.895,forced_choiceRT_color,2021.2.3,MacIntel,60.0024001,,,,,,,,8,Ontime,long,f,1,2.0953,8,0,32,1,1,,,,,
,1.21,,,,,,,,,d,orange,5ebb26803576b50eb12d87d9,2021-09-28_12h46.17.895,forced_choiceRT_color,2021.2.3,MacIntel,60.0024001,,,,,,,,8,Fast,long,d,1,1.8758,8,1,33,0,1,,,,,
,1.76,,,,,,,,,f,blue,5ebb26803576b50eb12d87d9,2021-09-28_12h46.17.895,forced_choiceRT_color,2021.2.3,MacIntel,60.0024001,,,,,,,,8,Slow,long,j,0,2.1496,8,2,34,1,1,,,,,
,0.31,,,,,,,,,k,purple,5ebb26803576b50eb12d87d9,2021-09-28_12h46.17.895,forced_choiceRT_color,2021.2.3,MacIntel,60.0024001,,,,,,,,8,Ontime,long,k,1,2.0442,8,3,35,3,1,,,,,
,1.49,,,,,,,,,f,blue,5ebb26803576b50eb12d87d9,2021-09-28_12h46.17.895,forced_choiceRT_color,2021.2.3,MacIntel,60.0024001,,,,,,,,8,Slow,long,f,1,3.0571,9,0,36,1,1,,,,,
,0.98,,,,,,,,,d,orange,5ebb26803576b50eb12d87d9,2021-09-28_12h46.17.895,forced_choiceRT_color,2021.2.3,MacIntel,60.0024001,,,,,,,,8,Slow,long,d,1,2.1589,9,1,37,0,1,,,,,
,1.93,,,,,,,,,d,orange,5ebb26803576b50eb12d87d9,2021-09-28_12h46.17.895,forced_choiceRT_color,2021.2.3,MacIntel,60.0024001,,,,,,,,8,Slow,long,j,0,2.3231,9,2,38,0,1,,,,,
,1.76,,,,,,,,,k,purple,5ebb26803576b50eb12d87d9,2021-09-28_12h46.17.895,forced_choiceRT_color,2021.2.3,MacIntel,60.0024001,,,,,,,,8,Slow,long,j,0,2.1352,9,3,39,3,1,,,,,
,,,,,,,,,,,,5ebb26803576b50eb12d87d9,2021-09-28_12h46.17.895,forced_choiceRT_color,2021.2.3,MacIntel,60.0024001,,,,,,,,,,,,,,,,,,,7,0,7,0,1
,0.33,,,,,,,,,k,purple,5ebb26803576b50eb12d87d9,2021-09-28_12h46.17.895,forced_choiceRT_color,2021.2.3,MacIntel,60.0024001,,,,,,,,9,Ontime,long,k,1,1.9843,0,0,0,3,1,,,,,
,0,,,,,,,,,j,red,5ebb26803576b50eb12d87d9,2021-09-28_12h46.17.895,forced_choiceRT_color,2021.2.3,MacIntel,60.0024001,,,,,,,,9,Ontime,long,j,1,1.9143,0,1,1,2,1,,,,,
,0.78,,,,,,,,,d,orange,5ebb26803576b50eb12d87d9,2021-09-28_12h46.17.895,forced_choiceRT_color,2021.2.3,MacIntel,60.0024001,,,,,,,,9,Ontime,long,d,1,1.9931,0,2,2,0,1,,,,,
,1.7,,,,,,,,,k,purple,5ebb26803576b50eb12d87d9,2021-09-28_12h46.17.895,forced_choiceRT_color,2021.2.3,MacIntel,60.0024001,,,,,,,,9,Ontime,long,k,1,2.0798,0,3,3,3,1,,,,,
,1.33,,,,,,,,,d,orange,5ebb26803576b50eb12d87d9,2021-09-28_12h46.17.895,forced_choiceRT_color,2021.2.3,MacIntel,60.0024001,,,,,,,,9,Fast,long,d,1,1.8037,1,0,4,0,1,,,,,
,0.29,,,,,,,,,f,blue,5ebb26803576b50eb12d87d9,2021-09-28_12h46.17.895,forced_choiceRT_color,2021.2.3,MacIntel,60.0024001,,,,,,,,9,Fast,long,f,1,1.6762,1,1,5,1,1,,,,,
,0.47,,,,,,,,,j,red,5ebb26803576b50eb12d87d9,2021-09-28_12h46.17.895,forced_choiceRT_color,2021.2.3,MacIntel,60.0024001,,,,,,,,9,Ontime,long,j,1,1.9371,1,2,6,2,1,,,,,
,1.46,,,,,,,,,k,purple,5ebb26803576b50eb12d87d9,2021-09-28_12h46.17.895,forced_choiceRT_color,2021.2.3,MacIntel,60.0024001,,,,,,,,9,Ontime,long,k,1,1.9777,1,3,7,3,1,,,,,
,0.36,,,,,,,,,d,orange,5ebb26803576b50eb12d87d9,2021-09-28_12h46.17.895,forced_choiceRT_color,2021.2.3,MacIntel,60.0024001,,,,,,,,9,Ontime,long,d,1,1.9098,2,0,8,0,1,,,,,
,1.81,,,,,,,,,j,red,5ebb26803576b50eb12d87d9,2021-09-28_12h46.17.895,forced_choiceRT_color,2021.2.3,MacIntel,60.0024001,,,,,,,,9,Slow,long,k,0,2.1575,2,1,9,2,1,,,,,
,0.01,,,,,,,,,f,blue,5ebb26803576b50eb12d87d9,2021-09-28_12h46.17.895,forced_choiceRT_color,2021.2.3,MacIntel,60.0024001,,,,,,,,9,Ontime,long,f,1,2.0624,2,2,10,1,1,,,,,
,0.5,,,,,,,,,j,red,5ebb26803576b50eb12d87d9,2021-09-28_12h46.17.895,forced_choiceRT_color,2021.2.3,MacIntel,60.0024001,,,,,,,,9,Ontime,long,j,1,2.0911,2,3,11,2,1,,,,,
,0.96,,,,,,,,,f,blue,5ebb26803576b50eb12d87d9,2021-09-28_12h46.17.895,forced_choiceRT_color,2021.2.3,MacIntel,60.0024001,,,,,,,,9,Slow,long,f,1,2.131,3,0,12,1,1,,,,,
,1.16,,,,,,,,,f,blue,5ebb26803576b50eb12d87d9,2021-09-28_12h46.17.895,forced_choiceRT_color,2021.2.3,MacIntel,60.0024001,,,,,,,,9,Ontime,long,f,1,1.9162,3,1,13,1,1,,,,,
,0.84,,,,,,,,,k,purple,5ebb26803576b50eb12d87d9,2021-09-28_12h46.17.895,forced_choiceRT_color,2021.2.3,MacIntel,60.0024001,,,,,,,,9,Ontime,long,k,1,1.9949,3,2,14,3,1,,,,,
,0.55,,,,,,,,,k,purple,5ebb26803576b50eb12d87d9,2021-09-28_12h46.17.895,forced_choiceRT_color,2021.2.3,MacIntel,60.0024001,,,,,,,,9,Ontime,long,f,0,1.9975,3,3,15,3,1,,,,,
,1.81,,,,,,,,,f,blue,5ebb26803576b50eb12d87d9,2021-09-28_12h46.17.895,forced_choiceRT_color,2021.2.3,MacIntel,60.0024001,,,,,,,,9,Slow,long,j,0,2.3594,4,0,16,1,1,,,,,
,0.09,,,,,,,,,d,orange,5ebb26803576b50eb12d87d9,2021-09-28_12h46.17.895,forced_choiceRT_color,2021.2.3,MacIntel,60.0024001,,,,,,,,9,Ontime,long,d,1,1.9471,4,1,17,0,1,,,,,
,0.24,,,,,,,,,k,purple,5ebb26803576b50eb12d87d9,2021-09-28_12h46.17.895,forced_choiceRT_color,2021.2.3,MacIntel,60.0024001,,,,,,,,9,Ontime,long,k,1,1.9309,4,2,18,3,1,,,,,
,1.43,,,,,,,,,j,red,5ebb26803576b50eb12d87d9,2021-09-28_12h46.17.895,forced_choiceRT_color,2021.2.3,MacIntel,60.0024001,,,,,,,,9,Ontime,long,j,1,2.0515,4,3,19,2,1,,,,,
,1.05,,,,,,,,,k,purple,5ebb26803576b50eb12d87d9,2021-09-28_12h46.17.895,forced_choiceRT_color,2021.2.3,MacIntel,60.0024001,,,,,,,,9,Fast,long,k,1,1.8302,5,0,20,3,1,,,,,
,1.45,,,,,,,,,d,orange,5ebb26803576b50eb12d87d9,2021-09-28_12h46.17.895,forced_choiceRT_color,2021.2.3,MacIntel,60.0024001,,,,,,,,9,Ontime,long,d,1,2.0265,5,1,21,0,1,,,,,
,0.68,,,,,,,,,j,red,5ebb26803576b50eb12d87d9,2021-09-28_12h46.17.895,forced_choiceRT_color,2021.2.3,MacIntel,60.0024001,,,,,,,,9,Ontime,long,j,1,1.9281,5,2,22,2,1,,,,,
,0.19,,,,,,,,,f,blue,5ebb26803576b50eb12d87d9,2021-09-28_12h46.17.895,forced_choiceRT_color,2021.2.3,MacIntel,60.0024001,,,,,,,,9,Ontime,long,f,1,2.0648,5,3,23,1,1,,,,,
,0.77,,,,,,,,,f,blue,5ebb26803576b50eb12d87d9,2021-09-28_12h46.17.895,forced_choiceRT_color,2021.2.3,MacIntel,60.0024001,,,,,,,,9,Fast,long,f,1,1.8346,6,0,24,1,1,,,,,
,1.32,,,,,,,,,d,orange,5ebb26803576b50eb12d87d9,2021-09-28_12h46.17.895,forced_choiceRT_color,2021.2.3,MacIntel,60.0024001,,,,,,,,9,Ontime,long,j,0,1.9955,6,1,25,0,1,,,,,
,0.02,,,,,,,,,j,red,5ebb26803576b50eb12d87d9,2021-09-28_12h46.17.895,forced_choiceRT_color,2021.2.3,MacIntel,60.0024001,,,,,,,,9,Ontime,long,j,1,1.9926,6,2,26,2,1,,,,,
,1.57,,,,,,,,,j,red,5ebb26803576b50eb12d87d9,2021-09-28_12h46.17.895,forced_choiceRT_color,2021.2.3,MacIntel,60.0024001,,,,,,,,9,Slow,long,j,1,2.1925,6,3,27,2,1,,,,,
,1.44,,,,,,,,,k,purple,5ebb26803576b50eb12d87d9,2021-09-28_12h46.17.895,forced_choiceRT_color,2021.2.3,MacIntel,60.0024001,,,,,,,,9,Slow,long,j,0,2.1319,7,0,28,3,1,,,,,
,1.79,,,,,,,,,k,purple,5ebb26803576b50eb12d87d9,2021-09-28_12h46.17.895,forced_choiceRT_color,2021.2.3,MacIntel,60.0024001,,,,,,,,9,Slow,long,k,1,2.1729,7,1,29,3,1,,,,,
,0.16,,,,,,,,,f,blue,5ebb26803576b50eb12d87d9,2021-09-28_12h46.17.895,forced_choiceRT_color,2021.2.3,MacIntel,60.0024001,,,,,,,,9,Ontime,long,f,1,1.9939,7,2,30,1,1,,,,,
,0.51,,,,,,,,,d,orange,5ebb26803576b50eb12d87d9,2021-09-28_12h46.17.895,forced_choiceRT_color,2021.2.3,MacIntel,60.0024001,,,,,,,,9,Ontime,long,d,1,1.9784,7,3,31,0,1,,,,,
,1.14,,,,,,,,,f,blue,5ebb26803576b50eb12d87d9,2021-09-28_12h46.17.895,forced_choiceRT_color,2021.2.3,MacIntel,60.0024001,,,,,,,,9,Ontime,long,f,1,1.9275,8,0,32,1,1,,,,,
,1.67,,,,,,,,,d,orange,5ebb26803576b50eb12d87d9,2021-09-28_12h46.17.895,forced_choiceRT_color,2021.2.3,MacIntel,60.0024001,,,,,,,,9,Slow,long,j,0,2.131,8,1,33,0,1,,,,,
,0.36,,,,,,,,,j,red,5ebb26803576b50eb12d87d9,2021-09-28_12h46.17.895,forced_choiceRT_color,2021.2.3,MacIntel,60.0024001,,,,,,,,9,Ontime,long,j,1,2.0113,8,2,34,2,1,,,,,
,1.69,,,,,,,,,d,orange,5ebb26803576b50eb12d87d9,2021-09-28_12h46.17.895,forced_choiceRT_color,2021.2.3,MacIntel,60.0024001,,,,,,,,9,Slow,long,d,1,2.2313,8,3,35,0,1,,,,,
,0.09,,,,,,,,,f,blue,5ebb26803576b50eb12d87d9,2021-09-28_12h46.17.895,forced_choiceRT_color,2021.2.3,MacIntel,60.0024001,,,,,,,,9,Ontime,long,f,1,1.9478,9,0,36,1,1,,,,,
,0.74,,,,,,,,,k,purple,5ebb26803576b50eb12d87d9,2021-09-28_12h46.17.895,forced_choiceRT_color,2021.2.3,MacIntel,60.0024001,,,,,,,,9,Ontime,long,k,1,2.0472,9,1,37,3,1,,,,,
,0.27,,,,,,,,,d,orange,5ebb26803576b50eb12d87d9,2021-09-28_12h46.17.895,forced_choiceRT_color,2021.2.3,MacIntel,60.0024001,,,,,,,,9,Ontime,long,d,1,1.9459,9,2,38,0,1,,,,,
,0.26,,,,,,,,,j,red,5ebb26803576b50eb12d87d9,2021-09-28_12h46.17.895,forced_choiceRT_color,2021.2.3,MacIntel,60.0024001,,,,,,,,9,Ontime,long,j,1,1.902,9,3,39,2,1,,,,,
,,,,,,,,,,,,5ebb26803576b50eb12d87d9,2021-09-28_12h46.17.895,forced_choiceRT_color,2021.2.3,MacIntel,60.0024001,,,,,,,,,,,,,,,,,,,8,0,8,0,1
,0.1,,,,,,,,,f,blue,5ebb26803576b50eb12d87d9,2021-09-28_12h46.17.895,forced_choiceRT_color,2021.2.3,MacIntel,60.0024001,,,,,,,,10,Ontime,long,f,1,2.0009,0,0,0,1,1,,,,,
,0.34,,,,,,,,,f,blue,5ebb26803576b50eb12d87d9,2021-09-28_12h46.17.895,forced_choiceRT_color,2021.2.3,MacIntel,60.0024001,,,,,,,,10,Ontime,long,f,1,2.0121,0,1,1,1,1,,,,,
,0.31,,,,,,,,,d,orange,5ebb26803576b50eb12d87d9,2021-09-28_12h46.17.895,forced_choiceRT_color,2021.2.3,MacIntel,60.0024001,,,,,,,,10,Ontime,long,d,1,2.0152,0,2,2,0,1,,,,,
,0.1,,,,,,,,,d,orange,5ebb26803576b50eb12d87d9,2021-09-28_12h46.17.895,forced_choiceRT_color,2021.2.3,MacIntel,60.0024001,,,,,,,,10,Ontime,long,d,1,1.9797,0,3,3,0,1,,,,,
,1,,,,,,,,,f,blue,5ebb26803576b50eb12d87d9,2021-09-28_12h46.17.895,forced_choiceRT_color,2021.2.3,MacIntel,60.0024001,,,,,,,,10,Slow,long,f,1,2.1859,1,0,4,1,1,,,,,
,1.25,,,,,,,,,d,orange,5ebb26803576b50eb12d87d9,2021-09-28_12h46.17.895,forced_choiceRT_color,2021.2.3,MacIntel,60.0024001,,,,,,,,10,Ontime,long,d,1,1.9475,1,1,5,0,1,,,,,
,1.27,,,,,,,,,d,orange,5ebb26803576b50eb12d87d9,2021-09-28_12h46.17.895,forced_choiceRT_color,2021.2.3,MacIntel,60.0024001,,,,,,,,10,Fast,long,d,1,1.8119,1,2,6,0,1,,,,,
,1.57,,,,,,,,,d,orange,5ebb26803576b50eb12d87d9,2021-09-28_12h46.17.895,forced_choiceRT_color,2021.2.3,MacIntel,60.0024001,,,,,,,,10,Ontime,long,d,1,2.0309,1,3,7,0,1,,,,,
,1.06,,,,,,,,,j,red,5ebb26803576b50eb12d87d9,2021-09-28_12h46.17.895,forced_choiceRT_color,2021.2.3,MacIntel,60.0024001,,,,,,,,10,Ontime,long,j,1,2.0229,2,0,8,2,1,,,,,
,1.96,,,,,,,,,j,red,5ebb26803576b50eb12d87d9,2021-09-28_12h46.17.895,forced_choiceRT_color,2021.2.3,MacIntel,60.0024001,,,,,,,,10,Slow,long,k,0,2.4432,2,1,9,2,1,,,,,
,1.43,,,,,,,,,j,red,5ebb26803576b50eb12d87d9,2021-09-28_12h46.17.895,forced_choiceRT_color,2021.2.3,MacIntel,60.0024001,,,,,,,,10,Ontime,long,j,1,1.9817,2,2,10,2,1,,,,,
,1.31,,,,,,,,,f,blue,5ebb26803576b50eb12d87d9,2021-09-28_12h46.17.895,forced_choiceRT_color,2021.2.3,MacIntel,60.0024001,,,,,,,,10,Slow,long,j,0,2.2141,2,3,11,1,1,,,,,
,0.74,,,,,,,,,f,blue,5ebb26803576b50eb12d87d9,2021-09-28_12h46.17.895,forced_choiceRT_color,2021.2.3,MacIntel,60.0024001,,,,,,,,10,Ontime,long,f,1,1.9301,3,0,12,1,1,,,,,
,1.77,,,,,,,,,f,blue,5ebb26803576b50eb12d87d9,2021-09-28_12h46.17.895,forced_choiceRT_color,2021.2.3,MacIntel,60.0024001,,,,,,,,10,Slow,long,f,1,2.2114,3,1,13,1,1,,,,,
,0.42,,,,,,,,,k,purple,5ebb26803576b50eb12d87d9,2021-09-28_12h46.17.895,forced_choiceRT_color,2021.2.3,MacIntel,60.0024001,,,,,,,,10,Ontime,long,k,1,1.9932,3,2,14,3,1,,,,,
,0.7,,,,,,,,,f,blue,5ebb26803576b50eb12d87d9,2021-09-28_12h46.17.895,forced_choiceRT_color,2021.2.3,MacIntel,60.0024001,,,,,,,,10,Ontime,long,f,1,1.9638,3,3,15,1,1,,,,,
,0.47,,,,,,,,,k,purple,5ebb26803576b50eb12d87d9,2021-09-28_12h46.17.895,forced_choiceRT_color,2021.2.3,MacIntel,60.0024001,,,,,,,,10,Ontime,long,k,1,1.9442,4,0,16,3,1,,,,,
,0.04,,,,,,,,,d,orange,5ebb26803576b50eb12d87d9,2021-09-28_12h46.17.895,forced_choiceRT_color,2021.2.3,MacIntel,60.0024001,,,,,,,,10,Ontime,long,d,1,2.0297,4,1,17,0,1,,,,,
,0.82,,,,,,,,,k,purple,5ebb26803576b50eb12d87d9,2021-09-28_12h46.17.895,forced_choiceRT_color,2021.2.3,MacIntel,60.0024001,,,,,,,,10,Ontime,long,k,1,2.0642,4,2,18,3,1,,,,,
,1.61,,,,,,,,,j,red,5ebb26803576b50eb12d87d9,2021-09-28_12h46.17.895,forced_choiceRT_color,2021.2.3,MacIntel,60.0024001,,,,,,,,10,Slow,long,j,1,2.1451,4,3,19,2,1,,,,,
,1.51,,,,,,,,,j,red,5ebb26803576b50eb12d87d9,2021-09-28_12h46.17.895,forced_choiceRT_color,2021.2.3,MacIntel,60.0024001,,,,,,,,10,Slow,long,j,1,2.1317,5,0,20,2,1,,,,,
,0.02,,,,,,,,,k,purple,5ebb26803576b50eb12d87d9,2021-09-28_12h46.17.895,forced_choiceRT_color,2021.2.3,MacIntel,60.0024001,,,,,,,,10,Ontime,long,k,1,1.9346,5,1,21,3,1,,,,,
,1,,,,,,,,,k,purple,5ebb26803576b50eb12d87d9,2021-09-28_12h46.17.895,forced_choiceRT_color,2021.2.3,MacIntel,60.0024001,,,,,,,,10,Ontime,long,k,1,2.0591,5,2,22,3,1,,,,,
,0.12,,,,,,,,,d,orange,5ebb26803576b50eb12d87d9,2021-09-28_12h46.17.895,forced_choiceRT_color,2021.2.3,MacIntel,60.0024001,,,,,,,,10,Ontime,long,d,1,2.0017,5,3,23,0,1,,,,,
,0.91,,,,,,,,,k,purple,5ebb26803576b50eb12d87d9,2021-09-28_12h46.17.895,forced_choiceRT_color,2021.2.3,MacIntel,60.0024001,,,,,,,,10,Ontime,long,k,1,2.0439,6,0,24,3,1,,,,,
,1.47,,,,,,,,,f,blue,5ebb26803576b50eb12d87d9,2021-09-28_12h46.17.895,forced_choiceRT_color,2021.2.3,MacIntel,60.0024001,,,,,,,,10,Slow,long,j,0,2.2092,6,1,25,1,1,,,,,
,1.12,,,,,,,,,k,purple,5ebb26803576b50eb12d87d9,2021-09-28_12h46.17.895,forced_choiceRT_color,2021.2.3,MacIntel,60.0024001,,,,,,,,10,Ontime,long,k,1,1.9095,6,2,26,3,1,,,,,
,1,,,,,,,,,f,blue,5ebb26803576b50eb12d87d9,2021-09-28_12h46.17.895,forced_choiceRT_color,2021.2.3,MacIntel,60.0024001,,,,,,,,10,Fast,long,f,1,1.897,6,3,27,1,1,,,,,
,0.78,,,,,,,,,k,purple,5ebb26803576b50eb12d87d9,2021-09-28_12h46.17.895,forced_choiceRT_color,2021.2.3,MacIntel,60.0024001,,,,,,,,10,Ontime,long,k,1,1.9626,7,0,28,3,1,,,,,
,1.13,,,,,,,,,j,red,5ebb26803576b50eb12d87d9,2021-09-28_12h46.17.895,forced_choiceRT_color,2021.2.3,MacIntel,60.0024001,,,,,,,,10,Ontime,long,j,1,1.9335,7,1,29,2,1,,,,,
,0.15,,,,,,,,,f,blue,5ebb26803576b50eb12d87d9,2021-09-28_12h46.17.895,forced_choiceRT_color,2021.2.3,MacIntel,60.0024001,,,,,,,,10,Ontime,long,f,1,2.0794,7,2,30,1,1,,,,,
,1.24,,,,,,,,,j,red,5ebb26803576b50eb12d87d9,2021-09-28_12h46.17.895,forced_choiceRT_color,2021.2.3,MacIntel,60.0024001,,,,,,,,10,Ontime,long,j,1,1.9943,7,3,31,2,1,,,,,
,1.41,,,,,,,,,j,red,5ebb26803576b50eb12d87d9,2021-09-28_12h46.17.895,forced_choiceRT_color,2021.2.3,MacIntel,60.0024001,,,,,,,,10,Ontime,long,j,1,2.0159,8,0,32,2,1,,,,,
,1.78,,,,,,,,,k,purple,5ebb26803576b50eb12d87d9,2021-09-28_12h46.17.895,forced_choiceRT_color,2021.2.3,MacIntel,60.0024001,,,,,,,,10,Slow,long,k,1,2.2068,8,1,33,3,1,,,,,
,0.71,,,,,,,,,k,purple,5ebb26803576b50eb12d87d9,2021-09-28_12h46.17.895,forced_choiceRT_color,2021.2.3,MacIntel,60.0024001,,,,,,,,10,Ontime,long,k,1,1.995,8,2,34,3,1,,,,,
,1.22,,,,,,,,,d,orange,5ebb26803576b50eb12d87d9,2021-09-28_12h46.17.895,forced_choiceRT_color,2021.2.3,MacIntel,60.0024001,,,,,,,,10,Ontime,long,f,0,2.0764,8,3,35,0,1,,,,,
,0.64,,,,,,,,,j,red,5ebb26803576b50eb12d87d9,2021-09-28_12h46.17.895,forced_choiceRT_color,2021.2.3,MacIntel,60.0024001,,,,,,,,10,Ontime,long,j,1,1.9149,9,0,36,2,1,,,,,
,1.06,,,,,,,,,d,orange,5ebb26803576b50eb12d87d9,2021-09-28_12h46.17.895,forced_choiceRT_color,2021.2.3,MacIntel,60.0024001,,,,,,,,10,Fast,long,d,1,1.8779,9,1,37,0,1,,,,,
,1.32,,,,,,,,,j,red,5ebb26803576b50eb12d87d9,2021-09-28_12h46.17.895,forced_choiceRT_color,2021.2.3,MacIntel,60.0024001,,,,,,,,10,Slow,long,d,0,2.2251,9,2,38,2,1,,,,,
,1.42,,,,,,,,,d,orange,5ebb26803576b50eb12d87d9,2021-09-28_12h46.17.895,forced_choiceRT_color,2021.2.3,MacIntel,60.0024001,,,,,,,,10,Ontime,long,d,1,1.9939,9,3,39,0,1,,,,,
,,,,,,,,,,,,5ebb26803576b50eb12d87d9,2021-09-28_12h46.17.895,forced_choiceRT_color,2021.2.3,MacIntel,60.0024001,,,,,,,,,,,,,,,,,,,9,0,9,0,1
