IP_Addresss,target_onset,trial_resp_sp.keys,trial_resp_sp.corr,trial_resp_sp.rt,trials_train_loop.thisRepN,trials_train_loop.thisTrialN,trials_train_loop.thisN,trials_train_loop.thisIndex,trials_train_loop.ran,correct_key,color,participant,date,expName,psychopyVersion,OS,frameRate,trial_resp_timing.keys,trial_resp_timing.rt,trials_train_timing.thisRepN,trials_train_timing.thisTrialN,trials_train_timing.thisN,trials_train_timing.thisIndex,trials_train_timing.ran,block_id,ontime,feedback_cond,forcedRT_resp.keys,forcedRT_resp.corr,forcedRT_resp.rt,trials.thisRepN,trials.thisTrialN,trials.thisN,trials.thisIndex,trials.ran,blocks.thisRepN,blocks.thisTrialN,blocks.thisN,blocks.thisIndex,blocks.ran
206.45.117.191,0,d,1,2.2193,0,0,0,0,1,d,orange,5ecc5a663823de80ecbe966a,2021-09-27_18h15.40.094,forced_choiceRT_color,2021.2.3,Win32,59.98440405,,,,,,,,,,,,,,,,,,,,,,,
,0,k,1,1.4492,0,1,1,3,1,k,purple,5ecc5a663823de80ecbe966a,2021-09-27_18h15.40.094,forced_choiceRT_color,2021.2.3,Win32,59.98440405,,,,,,,,,,,,,,,,,,,,,,,
,0,j,1,1.2863,0,2,2,2,1,j,red,5ecc5a663823de80ecbe966a,2021-09-27_18h15.40.094,forced_choiceRT_color,2021.2.3,Win32,59.98440405,,,,,,,,,,,,,,,,,,,,,,,
,0,f,0,1.118,0,3,3,2,1,j,red,5ecc5a663823de80ecbe966a,2021-09-27_18h15.40.094,forced_choiceRT_color,2021.2.3,Win32,59.98440405,,,,,,,,,,,,,,,,,,,,,,,
,0,j,1,2.1885,1,0,4,2,1,j,red,5ecc5a663823de80ecbe966a,2021-09-27_18h15.40.094,forced_choiceRT_color,2021.2.3,Win32,59.98440405,,,,,,,,,,,,,,,,,,,,,,,
,0,j,1,1.1204,1,1,5,2,1,j,red,5ecc5a663823de80ecbe966a,2021-09-27_18h15.40.094,forced_choiceRT_color,2021.2.3,Win32,59.98440405,,,,,,,,,,,,,,,,,,,,,,,
,0,j,1,0.9219,1,2,6,2,1,j,red,5ecc5a663823de80ecbe966a,2021-09-27_18h15.40.094,forced_choiceRT_color,2021.2.3,Win32,59.98440405,,,,,,,,,,,,,,,,,,,,,,,
,0,j,1,0.9609,1,3,7,2,1,j,red,5ecc5a663823de80ecbe966a,2021-09-27_18h15.40.094,forced_choiceRT_color,2021.2.3,Win32,59.98440405,,,,,,,,,,,,,,,,,,,,,,,
,0,j,1,0.9637,2,0,8,2,1,j,red,5ecc5a663823de80ecbe966a,2021-09-27_18h15.40.094,forced_choiceRT_color,2021.2.3,Win32,59.98440405,,,,,,,,,,,,,,,,,,,,,,,
,0,d,1,1.2218,2,1,9,0,1,d,orange,5ecc5a663823de80ecbe966a,2021-09-27_18h15.40.094,forced_choiceRT_color,2021.2.3,Win32,59.98440405,,,,,,,,,,,,,,,,,,,,,,,
,0,f,1,1.1379,2,2,10,1,1,f,blue,5ecc5a663823de80ecbe966a,2021-09-27_18h15.40.094,forced_choiceRT_color,2021.2.3,Win32,59.98440405,,,,,,,,,,,,,,,,,,,,,,,
,0,f,1,0.8542,2,3,11,1,1,f,blue,5ecc5a663823de80ecbe966a,2021-09-27_18h15.40.094,forced_choiceRT_color,2021.2.3,Win32,59.98440405,,,,,,,,,,,,,,,,,,,,,,,
,0,k,1,1.202,3,0,12,3,1,k,purple,5ecc5a663823de80ecbe966a,2021-09-27_18h15.40.094,forced_choiceRT_color,2021.2.3,Win32,59.98440405,,,,,,,,,,,,,,,,,,,,,,,
,0,j,1,1.0297,3,1,13,2,1,j,red,5ecc5a663823de80ecbe966a,2021-09-27_18h15.40.094,forced_choiceRT_color,2021.2.3,Win32,59.98440405,,,,,,,,,,,,,,,,,,,,,,,
,0,d,1,0.8718,3,2,14,0,1,d,orange,5ecc5a663823de80ecbe966a,2021-09-27_18h15.40.094,forced_choiceRT_color,2021.2.3,Win32,59.98440405,,,,,,,,,,,,,,,,,,,,,,,
,0,k,1,0.9212,3,3,15,3,1,k,purple,5ecc5a663823de80ecbe966a,2021-09-27_18h15.40.094,forced_choiceRT_color,2021.2.3,Win32,59.98440405,,,,,,,,,,,,,,,,,,,,,,,
,0,k,1,0.6675,4,0,16,3,1,k,purple,5ecc5a663823de80ecbe966a,2021-09-27_18h15.40.094,forced_choiceRT_color,2021.2.3,Win32,59.98440405,,,,,,,,,,,,,,,,,,,,,,,
,0,d,1,0.7366,4,1,17,0,1,d,orange,5ecc5a663823de80ecbe966a,2021-09-27_18h15.40.094,forced_choiceRT_color,2021.2.3,Win32,59.98440405,,,,,,,,,,,,,,,,,,,,,,,
,0,f,1,0.7878,4,2,18,1,1,f,blue,5ecc5a663823de80ecbe966a,2021-09-27_18h15.40.094,forced_choiceRT_color,2021.2.3,Win32,59.98440405,,,,,,,,,,,,,,,,,,,,,,,
,0,f,1,1.2866,4,3,19,1,1,f,blue,5ecc5a663823de80ecbe966a,2021-09-27_18h15.40.094,forced_choiceRT_color,2021.2.3,Win32,59.98440405,,,,,,,,,,,,,,,,,,,,,,,
,0,j,1,0.7675,5,0,20,2,1,j,red,5ecc5a663823de80ecbe966a,2021-09-27_18h15.40.094,forced_choiceRT_color,2021.2.3,Win32,59.98440405,,,,,,,,,,,,,,,,,,,,,,,
,0,d,1,0.8213,5,1,21,0,1,d,orange,5ecc5a663823de80ecbe966a,2021-09-27_18h15.40.094,forced_choiceRT_color,2021.2.3,Win32,59.98440405,,,,,,,,,,,,,,,,,,,,,,,
,0,d,1,0.87,5,2,22,0,1,d,orange,5ecc5a663823de80ecbe966a,2021-09-27_18h15.40.094,forced_choiceRT_color,2021.2.3,Win32,59.98440405,,,,,,,,,,,,,,,,,,,,,,,
,0,k,1,0.7708,5,3,23,3,1,k,purple,5ecc5a663823de80ecbe966a,2021-09-27_18h15.40.094,forced_choiceRT_color,2021.2.3,Win32,59.98440405,,,,,,,,,,,,,,,,,,,,,,,
,0,f,1,0.9848,6,0,24,1,1,f,blue,5ecc5a663823de80ecbe966a,2021-09-27_18h15.40.094,forced_choiceRT_color,2021.2.3,Win32,59.98440405,,,,,,,,,,,,,,,,,,,,,,,
,0,d,1,0.7682,6,1,25,0,1,d,orange,5ecc5a663823de80ecbe966a,2021-09-27_18h15.40.094,forced_choiceRT_color,2021.2.3,Win32,59.98440405,,,,,,,,,,,,,,,,,,,,,,,
,0,f,1,0.7529,6,2,26,1,1,f,blue,5ecc5a663823de80ecbe966a,2021-09-27_18h15.40.094,forced_choiceRT_color,2021.2.3,Win32,59.98440405,,,,,,,,,,,,,,,,,,,,,,,
,0,d,1,0.7391,6,3,27,0,1,d,orange,5ecc5a663823de80ecbe966a,2021-09-27_18h15.40.094,forced_choiceRT_color,2021.2.3,Win32,59.98440405,,,,,,,,,,,,,,,,,,,,,,,
,0,j,1,0.8543,7,0,28,2,1,j,red,5ecc5a663823de80ecbe966a,2021-09-27_18h15.40.094,forced_choiceRT_color,2021.2.3,Win32,59.98440405,,,,,,,,,,,,,,,,,,,,,,,
,0,j,1,0.6378,7,1,29,2,1,j,red,5ecc5a663823de80ecbe966a,2021-09-27_18h15.40.094,forced_choiceRT_color,2021.2.3,Win32,59.98440405,,,,,,,,,,,,,,,,,,,,,,,
,0,k,1,0.7716,7,2,30,3,1,k,purple,5ecc5a663823de80ecbe966a,2021-09-27_18h15.40.094,forced_choiceRT_color,2021.2.3,Win32,59.98440405,,,,,,,,,,,,,,,,,,,,,,,
,0,f,1,0.6832,7,3,31,1,1,f,blue,5ecc5a663823de80ecbe966a,2021-09-27_18h15.40.094,forced_choiceRT_color,2021.2.3,Win32,59.98440405,,,,,,,,,,,,,,,,,,,,,,,
,0,j,1,0.7046,8,0,32,2,1,j,red,5ecc5a663823de80ecbe966a,2021-09-27_18h15.40.094,forced_choiceRT_color,2021.2.3,Win32,59.98440405,,,,,,,,,,,,,,,,,,,,,,,
,0,k,1,0.6884,8,1,33,3,1,k,purple,5ecc5a663823de80ecbe966a,2021-09-27_18h15.40.094,forced_choiceRT_color,2021.2.3,Win32,59.98440405,,,,,,,,,,,,,,,,,,,,,,,
,0,f,1,0.9546,8,2,34,1,1,f,blue,5ecc5a663823de80ecbe966a,2021-09-27_18h15.40.094,forced_choiceRT_color,2021.2.3,Win32,59.98440405,,,,,,,,,,,,,,,,,,,,,,,
,0,d,1,0.7199,8,3,35,0,1,d,orange,5ecc5a663823de80ecbe966a,2021-09-27_18h15.40.094,forced_choiceRT_color,2021.2.3,Win32,59.98440405,,,,,,,,,,,,,,,,,,,,,,,
,0,j,1,0.6705,9,0,36,2,1,j,red,5ecc5a663823de80ecbe966a,2021-09-27_18h15.40.094,forced_choiceRT_color,2021.2.3,Win32,59.98440405,,,,,,,,,,,,,,,,,,,,,,,
,0,k,1,0.6873,9,1,37,3,1,k,purple,5ecc5a663823de80ecbe966a,2021-09-27_18h15.40.094,forced_choiceRT_color,2021.2.3,Win32,59.98440405,,,,,,,,,,,,,,,,,,,,,,,
,0,d,1,0.7047,9,2,38,0,1,d,orange,5ecc5a663823de80ecbe966a,2021-09-27_18h15.40.094,forced_choiceRT_color,2021.2.3,Win32,59.98440405,,,,,,,,,,,,,,,,,,,,,,,
,0,k,1,0.8543,9,3,39,3,1,k,purple,5ecc5a663823de80ecbe966a,2021-09-27_18h15.40.094,forced_choiceRT_color,2021.2.3,Win32,59.98440405,,,,,,,,,,,,,,,,,,,,,,,
,0,f,1,0.8373,10,0,40,1,1,f,blue,5ecc5a663823de80ecbe966a,2021-09-27_18h15.40.094,forced_choiceRT_color,2021.2.3,Win32,59.98440405,,,,,,,,,,,,,,,,,,,,,,,
,0,f,1,0.6382,10,1,41,1,1,f,blue,5ecc5a663823de80ecbe966a,2021-09-27_18h15.40.094,forced_choiceRT_color,2021.2.3,Win32,59.98440405,,,,,,,,,,,,,,,,,,,,,,,
,0,d,1,0.7544,10,2,42,0,1,d,orange,5ecc5a663823de80ecbe966a,2021-09-27_18h15.40.094,forced_choiceRT_color,2021.2.3,Win32,59.98440405,,,,,,,,,,,,,,,,,,,,,,,
,0,f,1,0.6718,10,3,43,1,1,f,blue,5ecc5a663823de80ecbe966a,2021-09-27_18h15.40.094,forced_choiceRT_color,2021.2.3,Win32,59.98440405,,,,,,,,,,,,,,,,,,,,,,,
,0,k,1,0.8024,11,0,44,3,1,k,purple,5ecc5a663823de80ecbe966a,2021-09-27_18h15.40.094,forced_choiceRT_color,2021.2.3,Win32,59.98440405,,,,,,,,,,,,,,,,,,,,,,,
,0,j,1,0.6881,11,1,45,2,1,j,red,5ecc5a663823de80ecbe966a,2021-09-27_18h15.40.094,forced_choiceRT_color,2021.2.3,Win32,59.98440405,,,,,,,,,,,,,,,,,,,,,,,
,0,f,1,0.9881,11,2,46,1,1,f,blue,5ecc5a663823de80ecbe966a,2021-09-27_18h15.40.094,forced_choiceRT_color,2021.2.3,Win32,59.98440405,,,,,,,,,,,,,,,,,,,,,,,
,0,k,1,0.7543,11,3,47,3,1,k,purple,5ecc5a663823de80ecbe966a,2021-09-27_18h15.40.094,forced_choiceRT_color,2021.2.3,Win32,59.98440405,,,,,,,,,,,,,,,,,,,,,,,
,0,k,1,0.7305,12,0,48,3,1,k,purple,5ecc5a663823de80ecbe966a,2021-09-27_18h15.40.094,forced_choiceRT_color,2021.2.3,Win32,59.98440405,,,,,,,,,,,,,,,,,,,,,,,
,0,d,1,0.7383,12,1,49,0,1,d,orange,5ecc5a663823de80ecbe966a,2021-09-27_18h15.40.094,forced_choiceRT_color,2021.2.3,Win32,59.98440405,,,,,,,,,,,,,,,,,,,,,,,
,0,d,1,0.7558,12,2,50,0,1,d,orange,5ecc5a663823de80ecbe966a,2021-09-27_18h15.40.094,forced_choiceRT_color,2021.2.3,Win32,59.98440405,,,,,,,,,,,,,,,,,,,,,,,
,0,j,1,0.8664,12,3,51,2,1,j,red,5ecc5a663823de80ecbe966a,2021-09-27_18h15.40.094,forced_choiceRT_color,2021.2.3,Win32,59.98440405,,,,,,,,,,,,,,,,,,,,,,,
,0,f,1,0.7217,13,0,52,1,1,f,blue,5ecc5a663823de80ecbe966a,2021-09-27_18h15.40.094,forced_choiceRT_color,2021.2.3,Win32,59.98440405,,,,,,,,,,,,,,,,,,,,,,,
,0,f,1,0.8377,13,1,53,1,1,f,blue,5ecc5a663823de80ecbe966a,2021-09-27_18h15.40.094,forced_choiceRT_color,2021.2.3,Win32,59.98440405,,,,,,,,,,,,,,,,,,,,,,,
,0,k,1,0.8879,13,2,54,3,1,k,purple,5ecc5a663823de80ecbe966a,2021-09-27_18h15.40.094,forced_choiceRT_color,2021.2.3,Win32,59.98440405,,,,,,,,,,,,,,,,,,,,,,,
,0,k,1,0.6177,13,3,55,3,1,k,purple,5ecc5a663823de80ecbe966a,2021-09-27_18h15.40.094,forced_choiceRT_color,2021.2.3,Win32,59.98440405,,,,,,,,,,,,,,,,,,,,,,,
,0,k,1,0.6003,14,0,56,3,1,k,purple,5ecc5a663823de80ecbe966a,2021-09-27_18h15.40.094,forced_choiceRT_color,2021.2.3,Win32,59.98440405,,,,,,,,,,,,,,,,,,,,,,,
,0,f,1,0.9841,14,1,57,1,1,f,blue,5ecc5a663823de80ecbe966a,2021-09-27_18h15.40.094,forced_choiceRT_color,2021.2.3,Win32,59.98440405,,,,,,,,,,,,,,,,,,,,,,,
,0,d,1,0.6548,14,2,58,0,1,d,orange,5ecc5a663823de80ecbe966a,2021-09-27_18h15.40.094,forced_choiceRT_color,2021.2.3,Win32,59.98440405,,,,,,,,,,,,,,,,,,,,,,,
,0,d,1,0.504,14,3,59,0,1,d,orange,5ecc5a663823de80ecbe966a,2021-09-27_18h15.40.094,forced_choiceRT_color,2021.2.3,Win32,59.98440405,,,,,,,,,,,,,,,,,,,,,,,
,,,,,,,,,,,,5ecc5a663823de80ecbe966a,2021-09-27_18h15.40.094,forced_choiceRT_color,2021.2.3,Win32,59.98440405,k,14.6015,0,0,0,0,1,,,,,,,,,,,,,,,,
,,,,,,,,,,,,5ecc5a663823de80ecbe966a,2021-09-27_18h15.40.094,forced_choiceRT_color,2021.2.3,Win32,59.98440405,d,2.566,1,0,1,0,1,,,,,,,,,,,,,,,,
,,,,,,,,,,,,5ecc5a663823de80ecbe966a,2021-09-27_18h15.40.094,forced_choiceRT_color,2021.2.3,Win32,59.98440405,d,0.8865,2,0,2,0,1,,,,,,,,,,,,,,,,
,,,,,,,,,,,,5ecc5a663823de80ecbe966a,2021-09-27_18h15.40.094,forced_choiceRT_color,2021.2.3,Win32,59.98440405,d,1.8182,3,0,3,0,1,,,,,,,,,,,,,,,,
,,,,,,,,,,,,5ecc5a663823de80ecbe966a,2021-09-27_18h15.40.094,forced_choiceRT_color,2021.2.3,Win32,59.98440405,d,2.1876,4,0,4,0,1,,,,,,,,,,,,,,,,
,,,,,,,,,,,,5ecc5a663823de80ecbe966a,2021-09-27_18h15.40.094,forced_choiceRT_color,2021.2.3,Win32,59.98440405,j,2.1023,5,0,5,0,1,,,,,,,,,,,,,,,,
,,,,,,,,,,,,5ecc5a663823de80ecbe966a,2021-09-27_18h15.40.094,forced_choiceRT_color,2021.2.3,Win32,59.98440405,k,1.7877,6,0,6,0,1,,,,,,,,,,,,,,,,
,,,,,,,,,,,,5ecc5a663823de80ecbe966a,2021-09-27_18h15.40.094,forced_choiceRT_color,2021.2.3,Win32,59.98440405,d,2.0675,7,0,7,0,1,,,,,,,,,,,,,,,,
,,,,,,,,,,,,5ecc5a663823de80ecbe966a,2021-09-27_18h15.40.094,forced_choiceRT_color,2021.2.3,Win32,59.98440405,d,2.0713,8,0,8,0,1,,,,,,,,,,,,,,,,
,,,,,,,,,,,,5ecc5a663823de80ecbe966a,2021-09-27_18h15.40.094,forced_choiceRT_color,2021.2.3,Win32,59.98440405,d,2.2454,9,0,9,0,1,,,,,,,,,,,,,,,,
,,,,,,,,,,,,5ecc5a663823de80ecbe966a,2021-09-27_18h15.40.094,forced_choiceRT_color,2021.2.3,Win32,59.98440405,d,2.0544,10,0,10,0,1,,,,,,,,,,,,,,,,
,,,,,,,,,,,,5ecc5a663823de80ecbe966a,2021-09-27_18h15.40.094,forced_choiceRT_color,2021.2.3,Win32,59.98440405,d,2.1211,11,0,11,0,1,,,,,,,,,,,,,,,,
,,,,,,,,,,,,5ecc5a663823de80ecbe966a,2021-09-27_18h15.40.094,forced_choiceRT_color,2021.2.3,Win32,59.98440405,d,2.1507,12,0,12,0,1,,,,,,,,,,,,,,,,
,,,,,,,,,,,,5ecc5a663823de80ecbe966a,2021-09-27_18h15.40.094,forced_choiceRT_color,2021.2.3,Win32,59.98440405,d,2.1208,13,0,13,0,1,,,,,,,,,,,,,,,,
,,,,,,,,,,,,5ecc5a663823de80ecbe966a,2021-09-27_18h15.40.094,forced_choiceRT_color,2021.2.3,Win32,59.98440405,d,2.1182,14,0,14,0,1,,,,,,,,,,,,,,,,
,,,,,,,,,,,,5ecc5a663823de80ecbe966a,2021-09-27_18h15.40.094,forced_choiceRT_color,2021.2.3,Win32,59.98440405,d,2.0876,15,0,15,0,1,,,,,,,,,,,,,,,,
,,,,,,,,,,,,5ecc5a663823de80ecbe966a,2021-09-27_18h15.40.094,forced_choiceRT_color,2021.2.3,Win32,59.98440405,d,2.0714,16,0,16,0,1,,,,,,,,,,,,,,,,
,,,,,,,,,,,,5ecc5a663823de80ecbe966a,2021-09-27_18h15.40.094,forced_choiceRT_color,2021.2.3,Win32,59.98440405,d,2.0554,17,0,17,0,1,,,,,,,,,,,,,,,,
,,,,,,,,,,,,5ecc5a663823de80ecbe966a,2021-09-27_18h15.40.094,forced_choiceRT_color,2021.2.3,Win32,59.98440405,d,2.0875,18,0,18,0,1,,,,,,,,,,,,,,,,
,,,,,,,,,,,,5ecc5a663823de80ecbe966a,2021-09-27_18h15.40.094,forced_choiceRT_color,2021.2.3,Win32,59.98440405,d,2.1153,19,0,19,0,1,,,,,,,,,,,,,,,,
,1.26,,,,,,,,,k,purple,5ecc5a663823de80ecbe966a,2021-09-27_18h15.40.094,forced_choiceRT_color,2021.2.3,Win32,59.98440405,,,,,,,,1,Slow,long,d,0,2.1296,0,0,0,3,1,,,,,
,1.32,,,,,,,,,j,red,5ecc5a663823de80ecbe966a,2021-09-27_18h15.40.094,forced_choiceRT_color,2021.2.3,Win32,59.98440405,,,,,,,,1,Slow,long,j,1,2.1346,0,1,1,2,1,,,,,
,1.41,,,,,,,,,j,red,5ecc5a663823de80ecbe966a,2021-09-27_18h15.40.094,forced_choiceRT_color,2021.2.3,Win32,59.98440405,,,,,,,,1,Ontime,long,j,1,1.9712,0,2,2,2,1,,,,,
,1.58,,,,,,,,,f,blue,5ecc5a663823de80ecbe966a,2021-09-27_18h15.40.094,forced_choiceRT_color,2021.2.3,Win32,59.98440405,,,,,,,,1,Slow,long,f,1,2.1048,0,3,3,1,1,,,,,
,0.01,,,,,,,,,k,purple,5ecc5a663823de80ecbe966a,2021-09-27_18h15.40.094,forced_choiceRT_color,2021.2.3,Win32,59.98440405,,,,,,,,1,Fast,long,j,0,1.3958,1,0,4,3,1,,,,,
,0.48,,,,,,,,,f,blue,5ecc5a663823de80ecbe966a,2021-09-27_18h15.40.094,forced_choiceRT_color,2021.2.3,Win32,59.98440405,,,,,,,,1,Fast,long,f,1,1.6542,1,1,5,1,1,,,,,
,1.48,,,,,,,,,d,orange,5ecc5a663823de80ecbe966a,2021-09-27_18h15.40.094,forced_choiceRT_color,2021.2.3,Win32,59.98440405,,,,,,,,1,Slow,long,j,0,2.1878,1,2,6,0,1,,,,,
,1.68,,,,,,,,,j,red,5ecc5a663823de80ecbe966a,2021-09-27_18h15.40.094,forced_choiceRT_color,2021.2.3,Win32,59.98440405,,,,,,,,1,Slow,long,k,0,2.1047,1,3,7,2,1,,,,,
,0.22,,,,,,,,,d,orange,5ecc5a663823de80ecbe966a,2021-09-27_18h15.40.094,forced_choiceRT_color,2021.2.3,Win32,59.98440405,,,,,,,,1,Slow,long,f,0,2.1048,2,0,8,0,1,,,,,
,0.65,,,,,,,,,j,red,5ecc5a663823de80ecbe966a,2021-09-27_18h15.40.094,forced_choiceRT_color,2021.2.3,Win32,59.98440405,,,,,,,,1,Ontime,long,j,1,2.0712,2,1,9,2,1,,,,,
,0.86,,,,,,,,,d,orange,5ecc5a663823de80ecbe966a,2021-09-27_18h15.40.094,forced_choiceRT_color,2021.2.3,Win32,59.98440405,,,,,,,,1,Ontime,long,d,1,2.0871,2,2,10,0,1,,,,,
,0.02,,,,,,,,,k,purple,5ecc5a663823de80ecbe966a,2021-09-27_18h15.40.094,forced_choiceRT_color,2021.2.3,Win32,59.98440405,,,,,,,,1,Slow,long,k,1,2.1045,2,3,11,3,1,,,,,
,0.83,,,,,,,,,k,purple,5ecc5a663823de80ecbe966a,2021-09-27_18h15.40.094,forced_choiceRT_color,2021.2.3,Win32,59.98440405,,,,,,,,1,Slow,long,k,1,2.118,3,0,12,3,1,,,,,
,1.77,,,,,,,,,j,red,5ecc5a663823de80ecbe966a,2021-09-27_18h15.40.094,forced_choiceRT_color,2021.2.3,Win32,59.98440405,,,,,,,,1,Slow,long,j,1,2.2217,3,1,13,2,1,,,,,
,1.79,,,,,,,,,d,orange,5ecc5a663823de80ecbe966a,2021-09-27_18h15.40.094,forced_choiceRT_color,2021.2.3,Win32,59.98440405,,,,,,,,1,Slow,long,j,0,2.238,3,2,14,0,1,,,,,
,1.1,,,,,,,,,d,orange,5ecc5a663823de80ecbe966a,2021-09-27_18h15.40.094,forced_choiceRT_color,2021.2.3,Win32,59.98440405,,,,,,,,1,Slow,long,d,1,2.1516,3,3,15,0,1,,,,,
,1.88,,,,,,,,,d,orange,5ecc5a663823de80ecbe966a,2021-09-27_18h15.40.094,forced_choiceRT_color,2021.2.3,Win32,59.98440405,,,,,,,,1,Slow,long,d,1,2.2547,4,0,16,0,1,,,,,
,1.8,,,,,,,,,f,blue,5ecc5a663823de80ecbe966a,2021-09-27_18h15.40.094,forced_choiceRT_color,2021.2.3,Win32,59.98440405,,,,,,,,1,Slow,long,j,0,2.2376,4,1,17,1,1,,,,,
,0.08,,,,,,,,,k,purple,5ecc5a663823de80ecbe966a,2021-09-27_18h15.40.094,forced_choiceRT_color,2021.2.3,Win32,59.98440405,,,,,,,,1,Fast,long,k,1,1.0679,4,2,18,3,1,,,,,
,1.2,,,,,,,,,k,purple,5ecc5a663823de80ecbe966a,2021-09-27_18h15.40.094,forced_choiceRT_color,2021.2.3,Win32,59.98440405,,,,,,,,1,Slow,long,k,1,2.1668,4,3,19,3,1,,,,,
,1.36,,,,,,,,,j,red,5ecc5a663823de80ecbe966a,2021-09-27_18h15.40.094,forced_choiceRT_color,2021.2.3,Win32,59.98440405,,,,,,,,1,Slow,long,j,1,2.1714,5,0,20,2,1,,,,,
,1.85,,,,,,,,,k,purple,5ecc5a663823de80ecbe966a,2021-09-27_18h15.40.094,forced_choiceRT_color,2021.2.3,Win32,59.98440405,,,,,,,,1,Slow,long,j,0,2.271,5,1,21,3,1,,,,,
,0.76,,,,,,,,,j,red,5ecc5a663823de80ecbe966a,2021-09-27_18h15.40.094,forced_choiceRT_color,2021.2.3,Win32,59.98440405,,,,,,,,1,Fast,long,j,1,1.6188,5,2,22,2,1,,,,,
,0.83,,,,,,,,,k,purple,5ecc5a663823de80ecbe966a,2021-09-27_18h15.40.094,forced_choiceRT_color,2021.2.3,Win32,59.98440405,,,,,,,,1,Ontime,long,k,1,2.0549,5,3,23,3,1,,,,,
,1.5,,,,,,,,,j,red,5ecc5a663823de80ecbe966a,2021-09-27_18h15.40.094,forced_choiceRT_color,2021.2.3,Win32,59.98440405,,,,,,,,1,Slow,long,j,1,2.2212,6,0,24,2,1,,,,,
,0.55,,,,,,,,,f,blue,5ecc5a663823de80ecbe966a,2021-09-27_18h15.40.094,forced_choiceRT_color,2021.2.3,Win32,59.98440405,,,,,,,,1,Ontime,long,f,1,2.0845,6,1,25,1,1,,,,,
,0.19,,,,,,,,,k,purple,5ecc5a663823de80ecbe966a,2021-09-27_18h15.40.094,forced_choiceRT_color,2021.2.3,Win32,59.98440405,,,,,,,,1,Slow,long,k,1,2.1047,6,2,26,3,1,,,,,
,1.85,,,,,,,,,j,red,5ecc5a663823de80ecbe966a,2021-09-27_18h15.40.094,forced_choiceRT_color,2021.2.3,Win32,59.98440405,,,,,,,,1,Slow,long,j,1,3.3672,6,3,27,2,1,,,,,
,1.29,,,,,,,,,d,orange,5ecc5a663823de80ecbe966a,2021-09-27_18h15.40.094,forced_choiceRT_color,2021.2.3,Win32,59.98440405,,,,,,,,1,Ontime,long,f,0,2.0052,7,0,28,0,1,,,,,
,1.54,,,,,,,,,f,blue,5ecc5a663823de80ecbe966a,2021-09-27_18h15.40.094,forced_choiceRT_color,2021.2.3,Win32,59.98440405,,,,,,,,1,Ontime,long,f,1,2.0745,7,1,29,1,1,,,,,
,1.18,,,,,,,,,j,red,5ecc5a663823de80ecbe966a,2021-09-27_18h15.40.094,forced_choiceRT_color,2021.2.3,Win32,59.98440405,,,,,,,,1,Ontime,long,k,0,2.0059,7,2,30,2,1,,,,,
,0.4,,,,,,,,,d,orange,5ecc5a663823de80ecbe966a,2021-09-27_18h15.40.094,forced_choiceRT_color,2021.2.3,Win32,59.98440405,,,,,,,,1,Ontime,long,d,1,2.0712,7,3,31,0,1,,,,,
,0.51,,,,,,,,,f,blue,5ecc5a663823de80ecbe966a,2021-09-27_18h15.40.094,forced_choiceRT_color,2021.2.3,Win32,59.98440405,,,,,,,,1,Ontime,long,f,1,2.0548,8,0,32,1,1,,,,,
,0.5,,,,,,,,,f,blue,5ecc5a663823de80ecbe966a,2021-09-27_18h15.40.094,forced_choiceRT_color,2021.2.3,Win32,59.98440405,,,,,,,,1,Ontime,long,f,1,2.038,8,1,33,1,1,,,,,
,0.73,,,,,,,,,d,orange,5ecc5a663823de80ecbe966a,2021-09-27_18h15.40.094,forced_choiceRT_color,2021.2.3,Win32,59.98440405,,,,,,,,1,Ontime,long,d,1,2.0338,8,2,34,0,1,,,,,
,0.22,,,,,,,,,f,blue,5ecc5a663823de80ecbe966a,2021-09-27_18h15.40.094,forced_choiceRT_color,2021.2.3,Win32,59.98440405,,,,,,,,1,Ontime,long,f,1,2.0673,8,3,35,1,1,,,,,
,0.48,,,,,,,,,d,orange,5ecc5a663823de80ecbe966a,2021-09-27_18h15.40.094,forced_choiceRT_color,2021.2.3,Win32,59.98440405,,,,,,,,1,Slow,long,d,1,2.1173,9,0,36,0,1,,,,,
,1.29,,,,,,,,,f,blue,5ecc5a663823de80ecbe966a,2021-09-27_18h15.40.094,forced_choiceRT_color,2021.2.3,Win32,59.98440405,,,,,,,,1,Slow,long,f,1,2.1712,9,1,37,1,1,,,,,
,0.7,,,,,,,,,k,purple,5ecc5a663823de80ecbe966a,2021-09-27_18h15.40.094,forced_choiceRT_color,2021.2.3,Win32,59.98440405,,,,,,,,1,Slow,long,k,1,2.1007,9,2,38,3,1,,,,,
,0.16,,,,,,,,,f,blue,5ecc5a663823de80ecbe966a,2021-09-27_18h15.40.094,forced_choiceRT_color,2021.2.3,Win32,59.98440405,,,,,,,,1,Slow,long,f,1,2.118,9,3,39,1,1,,,,,
,,,,,,,,,,,,5ecc5a663823de80ecbe966a,2021-09-27_18h15.40.094,forced_choiceRT_color,2021.2.3,Win32,59.98440405,,,,,,,,,,,,,,,,,,,0,0,0,0,1
,1.39,,,,,,,,,j,red,5ecc5a663823de80ecbe966a,2021-09-27_18h15.40.094,forced_choiceRT_color,2021.2.3,Win32,59.98440405,,,,,,,,2,Slow,long,j,1,2.3046,0,0,0,2,1,,,,,
,1.92,,,,,,,,,d,orange,5ecc5a663823de80ecbe966a,2021-09-27_18h15.40.094,forced_choiceRT_color,2021.2.3,Win32,59.98440405,,,,,,,,2,Slow,long,j,0,2.2488,0,1,1,0,1,,,,,
,0.92,,,,,,,,,k,purple,5ecc5a663823de80ecbe966a,2021-09-27_18h15.40.094,forced_choiceRT_color,2021.2.3,Win32,59.98440405,,,,,,,,2,Slow,long,k,1,2.1044,0,2,2,3,1,,,,,
,1.2,,,,,,,,,j,red,5ecc5a663823de80ecbe966a,2021-09-27_18h15.40.094,forced_choiceRT_color,2021.2.3,Win32,59.98440405,,,,,,,,2,Fast,long,j,1,1.8884,0,3,3,2,1,,,,,
,0.89,,,,,,,,,f,blue,5ecc5a663823de80ecbe966a,2021-09-27_18h15.40.094,forced_choiceRT_color,2021.2.3,Win32,59.98440405,,,,,,,,2,Ontime,long,f,1,2.0714,1,0,4,1,1,,,,,
,1.58,,,,,,,,,f,blue,5ecc5a663823de80ecbe966a,2021-09-27_18h15.40.094,forced_choiceRT_color,2021.2.3,Win32,59.98440405,,,,,,,,2,Slow,long,f,1,2.2665,1,1,5,1,1,,,,,
,1.57,,,,,,,,,d,orange,5ecc5a663823de80ecbe966a,2021-09-27_18h15.40.094,forced_choiceRT_color,2021.2.3,Win32,59.98440405,,,,,,,,2,Slow,long,d,1,2.1882,1,2,6,0,1,,,,,
,1.32,,,,,,,,,f,blue,5ecc5a663823de80ecbe966a,2021-09-27_18h15.40.094,forced_choiceRT_color,2021.2.3,Win32,59.98440405,,,,,,,,2,Ontime,long,f,1,2.0883,1,3,7,1,1,,,,,
,1.33,,,,,,,,,j,red,5ecc5a663823de80ecbe966a,2021-09-27_18h15.40.094,forced_choiceRT_color,2021.2.3,Win32,59.98440405,,,,,,,,2,Ontime,long,j,1,2.0381,2,0,8,2,1,,,,,
,1.73,,,,,,,,,f,blue,5ecc5a663823de80ecbe966a,2021-09-27_18h15.40.094,forced_choiceRT_color,2021.2.3,Win32,59.98440405,,,,,,,,2,Slow,long,d,0,2.2539,2,1,9,1,1,,,,,
,0.84,,,,,,,,,d,orange,5ecc5a663823de80ecbe966a,2021-09-27_18h15.40.094,forced_choiceRT_color,2021.2.3,Win32,59.98440405,,,,,,,,2,Ontime,long,d,1,2.0052,2,2,10,0,1,,,,,
,0.62,,,,,,,,,f,blue,5ecc5a663823de80ecbe966a,2021-09-27_18h15.40.094,forced_choiceRT_color,2021.2.3,Win32,59.98440405,,,,,,,,2,Ontime,long,f,1,2.0544,2,3,11,1,1,,,,,
,0.37,,,,,,,,,d,orange,5ecc5a663823de80ecbe966a,2021-09-27_18h15.40.094,forced_choiceRT_color,2021.2.3,Win32,59.98440405,,,,,,,,2,Slow,long,d,1,2.1047,3,0,12,0,1,,,,,
,1.57,,,,,,,,,j,red,5ecc5a663823de80ecbe966a,2021-09-27_18h15.40.094,forced_choiceRT_color,2021.2.3,Win32,59.98440405,,,,,,,,2,Slow,long,j,1,2.188,3,1,13,2,1,,,,,
,0.28,,,,,,,,,j,red,5ecc5a663823de80ecbe966a,2021-09-27_18h15.40.094,forced_choiceRT_color,2021.2.3,Win32,59.98440405,,,,,,,,2,Ontime,long,j,1,2.0844,3,2,14,2,1,,,,,
,0.88,,,,,,,,,d,orange,5ecc5a663823de80ecbe966a,2021-09-27_18h15.40.094,forced_choiceRT_color,2021.2.3,Win32,59.98440405,,,,,,,,2,Ontime,long,d,1,2.0978,3,3,15,0,1,,,,,
,0.36,,,,,,,,,k,purple,5ecc5a663823de80ecbe966a,2021-09-27_18h15.40.094,forced_choiceRT_color,2021.2.3,Win32,59.98440405,,,,,,,,2,Slow,long,k,1,2.1213,4,0,16,3,1,,,,,
,1.31,,,,,,,,,k,purple,5ecc5a663823de80ecbe966a,2021-09-27_18h15.40.094,forced_choiceRT_color,2021.2.3,Win32,59.98440405,,,,,,,,2,Slow,long,k,1,2.1381,4,1,17,3,1,,,,,
,1.01,,,,,,,,,d,orange,5ecc5a663823de80ecbe966a,2021-09-27_18h15.40.094,forced_choiceRT_color,2021.2.3,Win32,59.98440405,,,,,,,,2,Slow,long,d,1,2.1033,4,2,18,0,1,,,,,
,1.68,,,,,,,,,f,blue,5ecc5a663823de80ecbe966a,2021-09-27_18h15.40.094,forced_choiceRT_color,2021.2.3,Win32,59.98440405,,,,,,,,2,Slow,long,k,0,2.1344,4,3,19,1,1,,,,,
,0.08,,,,,,,,,j,red,5ecc5a663823de80ecbe966a,2021-09-27_18h15.40.094,forced_choiceRT_color,2021.2.3,Win32,59.98440405,,,,,,,,2,Ontime,long,j,1,2.0859,5,0,20,2,1,,,,,
,0.76,,,,,,,,,f,blue,5ecc5a663823de80ecbe966a,2021-09-27_18h15.40.094,forced_choiceRT_color,2021.2.3,Win32,59.98440405,,,,,,,,2,Ontime,long,f,1,2.0356,5,1,21,1,1,,,,,
,0.46,,,,,,,,,k,purple,5ecc5a663823de80ecbe966a,2021-09-27_18h15.40.094,forced_choiceRT_color,2021.2.3,Win32,59.98440405,,,,,,,,2,Slow,long,k,1,2.1848,5,2,22,3,1,,,,,
,0.25,,,,,,,,,d,orange,5ecc5a663823de80ecbe966a,2021-09-27_18h15.40.094,forced_choiceRT_color,2021.2.3,Win32,59.98440405,,,,,,,,2,Slow,long,d,1,2.1213,5,3,23,0,1,,,,,
,1.41,,,,,,,,,k,purple,5ecc5a663823de80ecbe966a,2021-09-27_18h15.40.094,forced_choiceRT_color,2021.2.3,Win32,59.98440405,,,,,,,,2,Slow,long,k,1,2.2688,6,0,24,3,1,,,,,
,1.08,,,,,,,,,d,orange,5ecc5a663823de80ecbe966a,2021-09-27_18h15.40.094,forced_choiceRT_color,2021.2.3,Win32,59.98440405,,,,,,,,2,Slow,long,d,1,2.1027,6,1,25,0,1,,,,,
,1.05,,,,,,,,,j,red,5ecc5a663823de80ecbe966a,2021-09-27_18h15.40.094,forced_choiceRT_color,2021.2.3,Win32,59.98440405,,,,,,,,2,Slow,long,j,1,2.1046,6,2,26,2,1,,,,,
,0.6,,,,,,,,,d,orange,5ecc5a663823de80ecbe966a,2021-09-27_18h15.40.094,forced_choiceRT_color,2021.2.3,Win32,59.98440405,,,,,,,,2,Ontime,long,d,1,2.0212,6,3,27,0,1,,,,,
,0.26,,,,,,,,,j,red,5ecc5a663823de80ecbe966a,2021-09-27_18h15.40.094,forced_choiceRT_color,2021.2.3,Win32,59.98440405,,,,,,,,2,Ontime,long,j,1,2.0604,7,0,28,2,1,,,,,
,1.52,,,,,,,,,d,orange,5ecc5a663823de80ecbe966a,2021-09-27_18h15.40.094,forced_choiceRT_color,2021.2.3,Win32,59.98440405,,,,,,,,2,Slow,long,d,1,2.1503,7,1,29,0,1,,,,,
,1.39,,,,,,,,,k,purple,5ecc5a663823de80ecbe966a,2021-09-27_18h15.40.094,forced_choiceRT_color,2021.2.3,Win32,59.98440405,,,,,,,,2,Ontime,long,k,1,1.921,7,2,30,3,1,,,,,
,1.97,,,,,,,,,k,purple,5ecc5a663823de80ecbe966a,2021-09-27_18h15.40.094,forced_choiceRT_color,2021.2.3,Win32,59.98440405,,,,,,,,2,Slow,long,k,1,2.3209,7,3,31,3,1,,,,,
,0.5,,,,,,,,,f,blue,5ecc5a663823de80ecbe966a,2021-09-27_18h15.40.094,forced_choiceRT_color,2021.2.3,Win32,59.98440405,,,,,,,,2,Fast,long,f,1,1.7211,8,0,32,1,1,,,,,
,1.33,,,,,,,,,f,blue,5ecc5a663823de80ecbe966a,2021-09-27_18h15.40.094,forced_choiceRT_color,2021.2.3,Win32,59.98440405,,,,,,,,2,Ontime,long,f,1,2.0216,8,1,33,1,1,,,,,
,0.82,,,,,,,,,k,purple,5ecc5a663823de80ecbe966a,2021-09-27_18h15.40.094,forced_choiceRT_color,2021.2.3,Win32,59.98440405,,,,,,,,2,Slow,long,k,1,2.1211,8,2,34,3,1,,,,,
,0.9,,,,,,,,,f,blue,5ecc5a663823de80ecbe966a,2021-09-27_18h15.40.094,forced_choiceRT_color,2021.2.3,Win32,59.98440405,,,,,,,,2,Slow,long,f,1,2.1134,8,3,35,1,1,,,,,
,0.59,,,,,,,,,j,red,5ecc5a663823de80ecbe966a,2021-09-27_18h15.40.094,forced_choiceRT_color,2021.2.3,Win32,59.98440405,,,,,,,,2,Ontime,long,j,1,2.0884,9,0,36,2,1,,,,,
,0.53,,,,,,,,,k,purple,5ecc5a663823de80ecbe966a,2021-09-27_18h15.40.094,forced_choiceRT_color,2021.2.3,Win32,59.98440405,,,,,,,,2,Ontime,long,k,1,2.0878,9,1,37,3,1,,,,,
,0.77,,,,,,,,,k,purple,5ecc5a663823de80ecbe966a,2021-09-27_18h15.40.094,forced_choiceRT_color,2021.2.3,Win32,59.98440405,,,,,,,,2,Slow,long,k,1,2.1545,9,2,38,3,1,,,,,
,0.23,,,,,,,,,j,red,5ecc5a663823de80ecbe966a,2021-09-27_18h15.40.094,forced_choiceRT_color,2021.2.3,Win32,59.98440405,,,,,,,,2,Ontime,long,j,1,2.0779,9,3,39,2,1,,,,,
,,,,,,,,,,,,5ecc5a663823de80ecbe966a,2021-09-27_18h15.40.094,forced_choiceRT_color,2021.2.3,Win32,59.98440405,,,,,,,,,,,,,,,,,,,1,0,1,0,1
,0.94,,,,,,,,,k,purple,5ecc5a663823de80ecbe966a,2021-09-27_18h15.40.094,forced_choiceRT_color,2021.2.3,Win32,59.98440405,,,,,,,,3,Slow,long,j,0,7.8009,0,0,0,3,1,,,,,
,0.25,,,,,,,,,f,blue,5ecc5a663823de80ecbe966a,2021-09-27_18h15.40.094,forced_choiceRT_color,2021.2.3,Win32,59.98440405,,,,,,,,3,Slow,long,f,1,2.1188,0,1,1,1,1,,,,,
,1.14,,,,,,,,,k,purple,5ecc5a663823de80ecbe966a,2021-09-27_18h15.40.094,forced_choiceRT_color,2021.2.3,Win32,59.98440405,,,,,,,,3,Slow,long,k,1,2.1046,0,2,2,3,1,,,,,
,1.72,,,,,,,,,j,red,5ecc5a663823de80ecbe966a,2021-09-27_18h15.40.094,forced_choiceRT_color,2021.2.3,Win32,59.98440405,,,,,,,,3,Slow,long,f,0,2.2048,0,3,3,2,1,,,,,
,0.77,,,,,,,,,d,orange,5ecc5a663823de80ecbe966a,2021-09-27_18h15.40.094,forced_choiceRT_color,2021.2.3,Win32,59.98440405,,,,,,,,3,Slow,long,d,1,2.1338,1,0,4,0,1,,,,,
,0.81,,,,,,,,,f,blue,5ecc5a663823de80ecbe966a,2021-09-27_18h15.40.094,forced_choiceRT_color,2021.2.3,Win32,59.98440405,,,,,,,,3,Slow,long,f,1,2.1173,1,1,5,1,1,,,,,
,1.02,,,,,,,,,d,orange,5ecc5a663823de80ecbe966a,2021-09-27_18h15.40.094,forced_choiceRT_color,2021.2.3,Win32,59.98440405,,,,,,,,3,Slow,long,d,1,2.1211,1,2,6,0,1,,,,,
,0.3,,,,,,,,,j,red,5ecc5a663823de80ecbe966a,2021-09-27_18h15.40.094,forced_choiceRT_color,2021.2.3,Win32,59.98440405,,,,,,,,3,Ontime,long,j,1,2.0549,1,3,7,2,1,,,,,
,0.04,,,,,,,,,d,orange,5ecc5a663823de80ecbe966a,2021-09-27_18h15.40.094,forced_choiceRT_color,2021.2.3,Win32,59.98440405,,,,,,,,3,Slow,long,d,1,2.1379,2,0,8,0,1,,,,,
,0.53,,,,,,,,,j,red,5ecc5a663823de80ecbe966a,2021-09-27_18h15.40.094,forced_choiceRT_color,2021.2.3,Win32,59.98440405,,,,,,,,3,Ontime,long,j,1,2.0381,2,1,9,2,1,,,,,
,1.4,,,,,,,,,d,orange,5ecc5a663823de80ecbe966a,2021-09-27_18h15.40.094,forced_choiceRT_color,2021.2.3,Win32,59.98440405,,,,,,,,3,Slow,long,d,1,2.1378,2,2,10,0,1,,,,,
,1.33,,,,,,,,,d,orange,5ecc5a663823de80ecbe966a,2021-09-27_18h15.40.094,forced_choiceRT_color,2021.2.3,Win32,59.98440405,,,,,,,,3,Slow,long,d,1,2.1379,2,3,11,0,1,,,,,
,1.89,,,,,,,,,f,blue,5ecc5a663823de80ecbe966a,2021-09-27_18h15.40.094,forced_choiceRT_color,2021.2.3,Win32,59.98440405,,,,,,,,3,Slow,long,d,0,2.8212,3,0,12,1,1,,,,,
,1.62,,,,,,,,,j,red,5ecc5a663823de80ecbe966a,2021-09-27_18h15.40.094,forced_choiceRT_color,2021.2.3,Win32,59.98440405,,,,,,,,3,Slow,long,d,0,2.1211,3,1,13,2,1,,,,,
,0.86,,,,,,,,,j,red,5ecc5a663823de80ecbe966a,2021-09-27_18h15.40.094,forced_choiceRT_color,2021.2.3,Win32,59.98440405,,,,,,,,3,Ontime,long,j,1,2.0374,3,2,14,2,1,,,,,
,0.53,,,,,,,,,k,purple,5ecc5a663823de80ecbe966a,2021-09-27_18h15.40.094,forced_choiceRT_color,2021.2.3,Win32,59.98440405,,,,,,,,3,Ontime,long,k,1,2.0177,3,3,15,3,1,,,,,
,1.66,,,,,,,,,k,purple,5ecc5a663823de80ecbe966a,2021-09-27_18h15.40.094,forced_choiceRT_color,2021.2.3,Win32,59.98440405,,,,,,,,3,Slow,long,k,1,2.1045,4,0,16,3,1,,,,,
,1.98,,,,,,,,,k,purple,5ecc5a663823de80ecbe966a,2021-09-27_18h15.40.094,forced_choiceRT_color,2021.2.3,Win32,59.98440405,,,,,,,,3,Slow,long,k,1,2.3001,4,1,17,3,1,,,,,
,1.46,,,,,,,,,k,purple,5ecc5a663823de80ecbe966a,2021-09-27_18h15.40.094,forced_choiceRT_color,2021.2.3,Win32,59.98440405,,,,,,,,3,Fast,long,k,1,1.8535,4,2,18,3,1,,,,,
,0.58,,,,,,,,,k,purple,5ecc5a663823de80ecbe966a,2021-09-27_18h15.40.094,forced_choiceRT_color,2021.2.3,Win32,59.98440405,,,,,,,,3,Ontime,long,k,1,1.985,4,3,19,3,1,,,,,
,0.19,,,,,,,,,d,orange,5ecc5a663823de80ecbe966a,2021-09-27_18h15.40.094,forced_choiceRT_color,2021.2.3,Win32,59.98440405,,,,,,,,3,Slow,long,d,1,2.1042,5,0,20,0,1,,,,,
,1.05,,,,,,,,,j,red,5ecc5a663823de80ecbe966a,2021-09-27_18h15.40.094,forced_choiceRT_color,2021.2.3,Win32,59.98440405,,,,,,,,3,Slow,long,j,1,2.1049,5,1,21,2,1,,,,,
,0.95,,,,,,,,,f,blue,5ecc5a663823de80ecbe966a,2021-09-27_18h15.40.094,forced_choiceRT_color,2021.2.3,Win32,59.98440405,,,,,,,,3,Ontime,long,f,1,2.0052,5,2,22,1,1,,,,,
,1.73,,,,,,,,,d,orange,5ecc5a663823de80ecbe966a,2021-09-27_18h15.40.094,forced_choiceRT_color,2021.2.3,Win32,59.98440405,,,,,,,,3,Ontime,long,k,0,2.0546,5,3,23,0,1,,,,,
,0.39,,,,,,,,,j,red,5ecc5a663823de80ecbe966a,2021-09-27_18h15.40.094,forced_choiceRT_color,2021.2.3,Win32,59.98440405,,,,,,,,3,Ontime,long,d,0,1.9878,6,0,24,2,1,,,,,
,1.61,,,,,,,,,f,blue,5ecc5a663823de80ecbe966a,2021-09-27_18h15.40.094,forced_choiceRT_color,2021.2.3,Win32,59.98440405,,,,,,,,3,Ontime,long,d,0,2.0216,6,1,25,1,1,,,,,
,0.59,,,,,,,,,f,blue,5ecc5a663823de80ecbe966a,2021-09-27_18h15.40.094,forced_choiceRT_color,2021.2.3,Win32,59.98440405,,,,,,,,3,Fast,long,f,1,1.8546,6,2,26,1,1,,,,,
,1.01,,,,,,,,,k,purple,5ecc5a663823de80ecbe966a,2021-09-27_18h15.40.094,forced_choiceRT_color,2021.2.3,Win32,59.98440405,,,,,,,,3,Slow,long,k,1,2.1939,6,3,27,3,1,,,,,
,0.95,,,,,,,,,d,orange,5ecc5a663823de80ecbe966a,2021-09-27_18h15.40.094,forced_choiceRT_color,2021.2.3,Win32,59.98440405,,,,,,,,3,Ontime,long,d,1,2.0876,7,0,28,0,1,,,,,
,0.96,,,,,,,,,k,purple,5ecc5a663823de80ecbe966a,2021-09-27_18h15.40.094,forced_choiceRT_color,2021.2.3,Win32,59.98440405,,,,,,,,3,Ontime,long,d,0,2.0549,7,1,29,3,1,,,,,
,1.6,,,,,,,,,j,red,5ecc5a663823de80ecbe966a,2021-09-27_18h15.40.094,forced_choiceRT_color,2021.2.3,Win32,59.98440405,,,,,,,,3,Ontime,long,d,0,2.0382,7,2,30,2,1,,,,,
,0.48,,,,,,,,,j,red,5ecc5a663823de80ecbe966a,2021-09-27_18h15.40.094,forced_choiceRT_color,2021.2.3,Win32,59.98440405,,,,,,,,3,Ontime,long,d,0,2.0988,7,3,31,2,1,,,,,
,1.32,,,,,,,,,f,blue,5ecc5a663823de80ecbe966a,2021-09-27_18h15.40.094,forced_choiceRT_color,2021.2.3,Win32,59.98440405,,,,,,,,3,Ontime,long,f,1,1.9881,8,0,32,1,1,,,,,
,1.86,,,,,,,,,d,orange,5ecc5a663823de80ecbe966a,2021-09-27_18h15.40.094,forced_choiceRT_color,2021.2.3,Win32,59.98440405,,,,,,,,3,Slow,long,j,0,2.1546,8,1,33,0,1,,,,,
,1.65,,,,,,,,,f,blue,5ecc5a663823de80ecbe966a,2021-09-27_18h15.40.094,forced_choiceRT_color,2021.2.3,Win32,59.98440405,,,,,,,,3,Slow,long,j,0,2.1046,8,2,34,1,1,,,,,
,1.05,,,,,,,,,f,blue,5ecc5a663823de80ecbe966a,2021-09-27_18h15.40.094,forced_choiceRT_color,2021.2.3,Win32,59.98440405,,,,,,,,3,Fast,long,f,1,1.8169,8,3,35,1,1,,,,,
,1.84,,,,,,,,,d,orange,5ecc5a663823de80ecbe966a,2021-09-27_18h15.40.094,forced_choiceRT_color,2021.2.3,Win32,59.98440405,,,,,,,,3,Slow,long,d,1,2.1176,9,0,36,0,1,,,,,
,0.25,,,,,,,,,k,purple,5ecc5a663823de80ecbe966a,2021-09-27_18h15.40.094,forced_choiceRT_color,2021.2.3,Win32,59.98440405,,,,,,,,3,Ontime,long,k,1,1.9713,9,1,37,3,1,,,,,
,0.51,,,,,,,,,j,red,5ecc5a663823de80ecbe966a,2021-09-27_18h15.40.094,forced_choiceRT_color,2021.2.3,Win32,59.98440405,,,,,,,,3,Ontime,long,j,1,2.0214,9,2,38,2,1,,,,,
,0.7,,,,,,,,,f,blue,5ecc5a663823de80ecbe966a,2021-09-27_18h15.40.094,forced_choiceRT_color,2021.2.3,Win32,59.98440405,,,,,,,,3,Fast,long,f,1,1.8215,9,3,39,1,1,,,,,
,,,,,,,,,,,,5ecc5a663823de80ecbe966a,2021-09-27_18h15.40.094,forced_choiceRT_color,2021.2.3,Win32,59.98440405,,,,,,,,,,,,,,,,,,,2,0,2,0,1
,1.03,,,,,,,,,f,blue,5ecc5a663823de80ecbe966a,2021-09-27_18h15.40.094,forced_choiceRT_color,2021.2.3,Win32,59.98440405,,,,,,,,4,Ontime,long,f,1,1.9923,0,0,0,1,1,,,,,
,0.55,,,,,,,,,k,purple,5ecc5a663823de80ecbe966a,2021-09-27_18h15.40.094,forced_choiceRT_color,2021.2.3,Win32,59.98440405,,,,,,,,4,Ontime,long,k,1,1.944,0,1,1,3,1,,,,,
,1.24,,,,,,,,,d,orange,5ecc5a663823de80ecbe966a,2021-09-27_18h15.40.094,forced_choiceRT_color,2021.2.3,Win32,59.98440405,,,,,,,,4,Ontime,long,d,1,2.005,0,2,2,0,1,,,,,
,0.91,,,,,,,,,k,purple,5ecc5a663823de80ecbe966a,2021-09-27_18h15.40.094,forced_choiceRT_color,2021.2.3,Win32,59.98440405,,,,,,,,4,Slow,long,k,1,2.1045,0,3,3,3,1,,,,,
,1.14,,,,,,,,,f,blue,5ecc5a663823de80ecbe966a,2021-09-27_18h15.40.094,forced_choiceRT_color,2021.2.3,Win32,59.98440405,,,,,,,,4,Slow,long,f,1,2.1379,1,0,4,1,1,,,,,
,0,,,,,,,,,k,purple,5ecc5a663823de80ecbe966a,2021-09-27_18h15.40.094,forced_choiceRT_color,2021.2.3,Win32,59.98440405,,,,,,,,4,Ontime,long,k,1,2.0219,1,1,5,3,1,,,,,
,0.65,,,,,,,,,d,orange,5ecc5a663823de80ecbe966a,2021-09-27_18h15.40.094,forced_choiceRT_color,2021.2.3,Win32,59.98440405,,,,,,,,4,Ontime,long,d,1,2.055,1,2,6,0,1,,,,,
,1.78,,,,,,,,,d,orange,5ecc5a663823de80ecbe966a,2021-09-27_18h15.40.094,forced_choiceRT_color,2021.2.3,Win32,59.98440405,,,,,,,,4,Slow,long,d,1,2.2376,1,3,7,0,1,,,,,
,0.55,,,,,,,,,j,red,5ecc5a663823de80ecbe966a,2021-09-27_18h15.40.094,forced_choiceRT_color,2021.2.3,Win32,59.98440405,,,,,,,,4,Ontime,long,j,1,1.9879,2,0,8,2,1,,,,,
,0.52,,,,,,,,,d,orange,5ecc5a663823de80ecbe966a,2021-09-27_18h15.40.094,forced_choiceRT_color,2021.2.3,Win32,59.98440405,,,,,,,,4,Ontime,long,d,1,2.0672,2,1,9,0,1,,,,,
,0,,,,,,,,,j,red,5ecc5a663823de80ecbe966a,2021-09-27_18h15.40.094,forced_choiceRT_color,2021.2.3,Win32,59.98440405,,,,,,,,4,Ontime,long,j,1,2.0784,2,2,10,2,1,,,,,
,0.56,,,,,,,,,j,red,5ecc5a663823de80ecbe966a,2021-09-27_18h15.40.094,forced_choiceRT_color,2021.2.3,Win32,59.98440405,,,,,,,,4,Ontime,long,j,1,2.0709,2,3,11,2,1,,,,,
,1.48,,,,,,,,,d,orange,5ecc5a663823de80ecbe966a,2021-09-27_18h15.40.094,forced_choiceRT_color,2021.2.3,Win32,59.98440405,,,,,,,,4,Slow,long,d,1,2.1623,3,0,12,0,1,,,,,
,0.46,,,,,,,,,j,red,5ecc5a663823de80ecbe966a,2021-09-27_18h15.40.094,forced_choiceRT_color,2021.2.3,Win32,59.98440405,,,,,,,,4,Ontime,long,j,1,2.0339,3,1,13,2,1,,,,,
,1.47,,,,,,,,,f,blue,5ecc5a663823de80ecbe966a,2021-09-27_18h15.40.094,forced_choiceRT_color,2021.2.3,Win32,59.98440405,,,,,,,,4,Ontime,long,k,0,2.0023,3,2,14,1,1,,,,,
,0.2,,,,,,,,,k,purple,5ecc5a663823de80ecbe966a,2021-09-27_18h15.40.094,forced_choiceRT_color,2021.2.3,Win32,59.98440405,,,,,,,,4,Ontime,long,k,1,2.005,3,3,15,3,1,,,,,
,1.84,,,,,,,,,j,red,5ecc5a663823de80ecbe966a,2021-09-27_18h15.40.094,forced_choiceRT_color,2021.2.3,Win32,59.98440405,,,,,,,,4,Slow,long,j,1,2.2608,4,0,16,2,1,,,,,
,1.03,,,,,,,,,k,purple,5ecc5a663823de80ecbe966a,2021-09-27_18h15.40.094,forced_choiceRT_color,2021.2.3,Win32,59.98440405,,,,,,,,4,Ontime,long,k,1,2.0381,4,1,17,3,1,,,,,
,0.49,,,,,,,,,f,blue,5ecc5a663823de80ecbe966a,2021-09-27_18h15.40.094,forced_choiceRT_color,2021.2.3,Win32,59.98440405,,,,,,,,4,Ontime,long,f,1,2.0377,4,2,18,1,1,,,,,
,1.02,,,,,,,,,d,orange,5ecc5a663823de80ecbe966a,2021-09-27_18h15.40.094,forced_choiceRT_color,2021.2.3,Win32,59.98440405,,,,,,,,4,Ontime,long,d,1,2.0174,4,3,19,0,1,,,,,
,0.32,,,,,,,,,j,red,5ecc5a663823de80ecbe966a,2021-09-27_18h15.40.094,forced_choiceRT_color,2021.2.3,Win32,59.98440405,,,,,,,,4,Ontime,long,j,1,2.0214,5,0,20,2,1,,,,,
,0.88,,,,,,,,,f,blue,5ecc5a663823de80ecbe966a,2021-09-27_18h15.40.094,forced_choiceRT_color,2021.2.3,Win32,59.98440405,,,,,,,,4,Ontime,long,f,1,1.9381,5,1,21,1,1,,,,,
,1.38,,,,,,,,,d,orange,5ecc5a663823de80ecbe966a,2021-09-27_18h15.40.094,forced_choiceRT_color,2021.2.3,Win32,59.98440405,,,,,,,,4,Ontime,long,d,1,2.0048,5,2,22,0,1,,,,,
,1.23,,,,,,,,,f,blue,5ecc5a663823de80ecbe966a,2021-09-27_18h15.40.094,forced_choiceRT_color,2021.2.3,Win32,59.98440405,,,,,,,,4,Slow,long,f,1,2.1046,5,3,23,1,1,,,,,
,1.33,,,,,,,,,f,blue,5ecc5a663823de80ecbe966a,2021-09-27_18h15.40.094,forced_choiceRT_color,2021.2.3,Win32,59.98440405,,,,,,,,4,Ontime,long,f,1,2.0049,6,0,24,1,1,,,,,
,1.69,,,,,,,,,f,blue,5ecc5a663823de80ecbe966a,2021-09-27_18h15.40.094,forced_choiceRT_color,2021.2.3,Win32,59.98440405,,,,,,,,4,Slow,long,f,1,2.1181,6,1,25,1,1,,,,,
,0.05,,,,,,,,,f,blue,5ecc5a663823de80ecbe966a,2021-09-27_18h15.40.094,forced_choiceRT_color,2021.2.3,Win32,59.98440405,,,,,,,,4,Ontime,long,f,1,2.0864,6,2,26,1,1,,,,,
,0.05,,,,,,,,,j,red,5ecc5a663823de80ecbe966a,2021-09-27_18h15.40.094,forced_choiceRT_color,2021.2.3,Win32,59.98440405,,,,,,,,4,Ontime,long,j,1,1.9882,6,3,27,2,1,,,,,
,1.27,,,,,,,,,d,orange,5ecc5a663823de80ecbe966a,2021-09-27_18h15.40.094,forced_choiceRT_color,2021.2.3,Win32,59.98440405,,,,,,,,4,Ontime,long,d,1,2.0853,7,0,28,0,1,,,,,
,0.15,,,,,,,,,d,orange,5ecc5a663823de80ecbe966a,2021-09-27_18h15.40.094,forced_choiceRT_color,2021.2.3,Win32,59.98440405,,,,,,,,4,Ontime,long,d,1,2.0048,7,1,29,0,1,,,,,
,0.19,,,,,,,,,k,purple,5ecc5a663823de80ecbe966a,2021-09-27_18h15.40.094,forced_choiceRT_color,2021.2.3,Win32,59.98440405,,,,,,,,4,Ontime,long,k,1,2.0749,7,2,30,3,1,,,,,
,1.66,,,,,,,,,j,red,5ecc5a663823de80ecbe966a,2021-09-27_18h15.40.094,forced_choiceRT_color,2021.2.3,Win32,59.98440405,,,,,,,,4,Ontime,long,j,1,2.0879,7,3,31,2,1,,,,,
,0.95,,,,,,,,,k,purple,5ecc5a663823de80ecbe966a,2021-09-27_18h15.40.094,forced_choiceRT_color,2021.2.3,Win32,59.98440405,,,,,,,,4,Ontime,long,k,1,2.0546,8,0,32,3,1,,,,,
,0.67,,,,,,,,,d,orange,5ecc5a663823de80ecbe966a,2021-09-27_18h15.40.094,forced_choiceRT_color,2021.2.3,Win32,59.98440405,,,,,,,,4,Ontime,long,d,1,2.0047,8,1,33,0,1,,,,,
,1.64,,,,,,,,,j,red,5ecc5a663823de80ecbe966a,2021-09-27_18h15.40.094,forced_choiceRT_color,2021.2.3,Win32,59.98440405,,,,,,,,4,Slow,long,j,1,2.1545,8,2,34,2,1,,,,,
,1.73,,,,,,,,,k,purple,5ecc5a663823de80ecbe966a,2021-09-27_18h15.40.094,forced_choiceRT_color,2021.2.3,Win32,59.98440405,,,,,,,,4,Slow,long,k,1,2.3382,8,3,35,3,1,,,,,
,0.21,,,,,,,,,k,purple,5ecc5a663823de80ecbe966a,2021-09-27_18h15.40.094,forced_choiceRT_color,2021.2.3,Win32,59.98440405,,,,,,,,4,Ontime,long,k,1,2.0503,9,0,36,3,1,,,,,
,1.68,,,,,,,,,k,purple,5ecc5a663823de80ecbe966a,2021-09-27_18h15.40.094,forced_choiceRT_color,2021.2.3,Win32,59.98440405,,,,,,,,4,Slow,long,j,0,2.1212,9,1,37,3,1,,,,,
,0.29,,,,,,,,,f,blue,5ecc5a663823de80ecbe966a,2021-09-27_18h15.40.094,forced_choiceRT_color,2021.2.3,Win32,59.98440405,,,,,,,,4,Ontime,long,f,1,2.0549,9,2,38,1,1,,,,,
,1.87,,,,,,,,,j,red,5ecc5a663823de80ecbe966a,2021-09-27_18h15.40.094,forced_choiceRT_color,2021.2.3,Win32,59.98440405,,,,,,,,4,Slow,long,f,0,2.2879,9,3,39,2,1,,,,,
,,,,,,,,,,,,5ecc5a663823de80ecbe966a,2021-09-27_18h15.40.094,forced_choiceRT_color,2021.2.3,Win32,59.98440405,,,,,,,,,,,,,,,,,,,3,0,3,0,1
,0.81,,,,,,,,,k,purple,5ecc5a663823de80ecbe966a,2021-09-27_18h15.40.094,forced_choiceRT_color,2021.2.3,Win32,59.98440405,,,,,,,,5,Fast,long,k,1,1.6584,0,0,0,3,1,,,,,
,0.3,,,,,,,,,j,red,5ecc5a663823de80ecbe966a,2021-09-27_18h15.40.094,forced_choiceRT_color,2021.2.3,Win32,59.98440405,,,,,,,,5,Ontime,long,j,1,2.02,0,1,1,2,1,,,,,
,1.32,,,,,,,,,j,red,5ecc5a663823de80ecbe966a,2021-09-27_18h15.40.094,forced_choiceRT_color,2021.2.3,Win32,59.98440405,,,,,,,,5,Ontime,long,j,1,1.9192,0,2,2,2,1,,,,,
,0.35,,,,,,,,,j,red,5ecc5a663823de80ecbe966a,2021-09-27_18h15.40.094,forced_choiceRT_color,2021.2.3,Win32,59.98440405,,,,,,,,5,Ontime,long,j,1,2.0362,0,3,3,2,1,,,,,
,0.32,,,,,,,,,d,orange,5ecc5a663823de80ecbe966a,2021-09-27_18h15.40.094,forced_choiceRT_color,2021.2.3,Win32,59.98440405,,,,,,,,5,Ontime,long,d,1,2.035,1,0,4,0,1,,,,,
,1.84,,,,,,,,,j,red,5ecc5a663823de80ecbe966a,2021-09-27_18h15.40.094,forced_choiceRT_color,2021.2.3,Win32,59.98440405,,,,,,,,5,Slow,long,d,0,2.2217,1,1,5,2,1,,,,,
,1.08,,,,,,,,,j,red,5ecc5a663823de80ecbe966a,2021-09-27_18h15.40.094,forced_choiceRT_color,2021.2.3,Win32,59.98440405,,,,,,,,5,Fast,long,j,1,1.7765,1,2,6,2,1,,,,,
,1.64,,,,,,,,,k,purple,5ecc5a663823de80ecbe966a,2021-09-27_18h15.40.094,forced_choiceRT_color,2021.2.3,Win32,59.98440405,,,,,,,,5,Slow,long,k,1,2.1876,1,3,7,3,1,,,,,
,1.95,,,,,,,,,d,orange,5ecc5a663823de80ecbe966a,2021-09-27_18h15.40.094,forced_choiceRT_color,2021.2.3,Win32,59.98440405,,,,,,,,5,Slow,long,d,1,2.3275,2,0,8,0,1,,,,,
,1.2,,,,,,,,,k,purple,5ecc5a663823de80ecbe966a,2021-09-27_18h15.40.094,forced_choiceRT_color,2021.2.3,Win32,59.98440405,,,,,,,,5,Fast,long,k,1,1.8879,2,1,9,3,1,,,,,
,0.2,,,,,,,,,d,orange,5ecc5a663823de80ecbe966a,2021-09-27_18h15.40.094,forced_choiceRT_color,2021.2.3,Win32,59.98440405,,,,,,,,5,Ontime,long,d,1,2.0636,2,2,10,0,1,,,,,
,0.58,,,,,,,,,j,red,5ecc5a663823de80ecbe966a,2021-09-27_18h15.40.094,forced_choiceRT_color,2021.2.3,Win32,59.98440405,,,,,,,,5,Ontime,long,j,1,2.0049,2,3,11,2,1,,,,,
,1.53,,,,,,,,,f,blue,5ecc5a663823de80ecbe966a,2021-09-27_18h15.40.094,forced_choiceRT_color,2021.2.3,Win32,59.98440405,,,,,,,,5,Ontime,long,k,0,1.9714,3,0,12,1,1,,,,,
,1.49,,,,,,,,,f,blue,5ecc5a663823de80ecbe966a,2021-09-27_18h15.40.094,forced_choiceRT_color,2021.2.3,Win32,59.98440405,,,,,,,,5,Ontime,long,k,0,2.0049,3,1,13,1,1,,,,,
,1.75,,,,,,,,,k,purple,5ecc5a663823de80ecbe966a,2021-09-27_18h15.40.094,forced_choiceRT_color,2021.2.3,Win32,59.98440405,,,,,,,,5,Slow,long,k,1,2.2544,3,2,14,3,1,,,,,
,0.47,,,,,,,,,d,orange,5ecc5a663823de80ecbe966a,2021-09-27_18h15.40.094,forced_choiceRT_color,2021.2.3,Win32,59.98440405,,,,,,,,5,Ontime,long,d,1,1.9533,3,3,15,0,1,,,,,
,1.21,,,,,,,,,f,blue,5ecc5a663823de80ecbe966a,2021-09-27_18h15.40.094,forced_choiceRT_color,2021.2.3,Win32,59.98440405,,,,,,,,5,Ontime,long,f,1,1.9501,4,0,16,1,1,,,,,
,1.97,,,,,,,,,j,red,5ecc5a663823de80ecbe966a,2021-09-27_18h15.40.094,forced_choiceRT_color,2021.2.3,Win32,59.98440405,,,,,,,,5,Slow,long,k,0,2.3347,4,1,17,2,1,,,,,
,1.99,,,,,,,,,f,blue,5ecc5a663823de80ecbe966a,2021-09-27_18h15.40.094,forced_choiceRT_color,2021.2.3,Win32,59.98440405,,,,,,,,5,Slow,long,d,0,2.3284,4,2,18,1,1,,,,,
,0.84,,,,,,,,,k,purple,5ecc5a663823de80ecbe966a,2021-09-27_18h15.40.094,forced_choiceRT_color,2021.2.3,Win32,59.98440405,,,,,,,,5,Ontime,long,k,1,1.938,4,3,19,3,1,,,,,
,0.02,,,,,,,,,k,purple,5ecc5a663823de80ecbe966a,2021-09-27_18h15.40.094,forced_choiceRT_color,2021.2.3,Win32,59.98440405,,,,,,,,5,Ontime,long,k,1,2.0547,5,0,20,3,1,,,,,
,1.27,,,,,,,,,k,purple,5ecc5a663823de80ecbe966a,2021-09-27_18h15.40.094,forced_choiceRT_color,2021.2.3,Win32,59.98440405,,,,,,,,5,Ontime,long,k,1,2.0215,5,1,21,3,1,,,,,
,1.77,,,,,,,,,f,blue,5ecc5a663823de80ecbe966a,2021-09-27_18h15.40.094,forced_choiceRT_color,2021.2.3,Win32,59.98440405,,,,,,,,5,Slow,long,d,0,2.2128,5,2,22,1,1,,,,,
,1.29,,,,,,,,,f,blue,5ecc5a663823de80ecbe966a,2021-09-27_18h15.40.094,forced_choiceRT_color,2021.2.3,Win32,59.98440405,,,,,,,,5,Ontime,long,f,1,2.0023,5,3,23,1,1,,,,,
,0.04,,,,,,,,,k,purple,5ecc5a663823de80ecbe966a,2021-09-27_18h15.40.094,forced_choiceRT_color,2021.2.3,Win32,59.98440405,,,,,,,,5,Ontime,long,k,1,1.9711,6,0,24,3,1,,,,,
,0.14,,,,,,,,,k,purple,5ecc5a663823de80ecbe966a,2021-09-27_18h15.40.094,forced_choiceRT_color,2021.2.3,Win32,59.98440405,,,,,,,,5,Ontime,long,k,1,1.968,6,1,25,3,1,,,,,
,0.95,,,,,,,,,d,orange,5ecc5a663823de80ecbe966a,2021-09-27_18h15.40.094,forced_choiceRT_color,2021.2.3,Win32,59.98440405,,,,,,,,5,Ontime,long,d,1,2.0524,6,2,26,0,1,,,,,
,1.06,,,,,,,,,j,red,5ecc5a663823de80ecbe966a,2021-09-27_18h15.40.094,forced_choiceRT_color,2021.2.3,Win32,59.98440405,,,,,,,,5,Ontime,long,j,1,2.0369,6,3,27,2,1,,,,,
,0.07,,,,,,,,,j,red,5ecc5a663823de80ecbe966a,2021-09-27_18h15.40.094,forced_choiceRT_color,2021.2.3,Win32,59.98440405,,,,,,,,5,Ontime,long,j,1,2.0382,7,0,28,2,1,,,,,
,1.79,,,,,,,,,f,blue,5ecc5a663823de80ecbe966a,2021-09-27_18h15.40.094,forced_choiceRT_color,2021.2.3,Win32,59.98440405,,,,,,,,5,Slow,long,k,0,2.1379,7,1,29,1,1,,,,,
,1.4,,,,,,,,,d,orange,5ecc5a663823de80ecbe966a,2021-09-27_18h15.40.094,forced_choiceRT_color,2021.2.3,Win32,59.98440405,,,,,,,,5,Slow,long,d,1,2.1342,7,2,30,0,1,,,,,
,1.08,,,,,,,,,f,blue,5ecc5a663823de80ecbe966a,2021-09-27_18h15.40.094,forced_choiceRT_color,2021.2.3,Win32,59.98440405,,,,,,,,5,Ontime,long,f,1,1.9548,7,3,31,1,1,,,,,
,0.3,,,,,,,,,d,orange,5ecc5a663823de80ecbe966a,2021-09-27_18h15.40.094,forced_choiceRT_color,2021.2.3,Win32,59.98440405,,,,,,,,5,Ontime,long,d,1,2.0218,8,0,32,0,1,,,,,
,1.7,,,,,,,,,j,red,5ecc5a663823de80ecbe966a,2021-09-27_18h15.40.094,forced_choiceRT_color,2021.2.3,Win32,59.98440405,,,,,,,,5,Slow,long,k,0,2.1018,8,1,33,2,1,,,,,
,0.32,,,,,,,,,k,purple,5ecc5a663823de80ecbe966a,2021-09-27_18h15.40.094,forced_choiceRT_color,2021.2.3,Win32,59.98440405,,,,,,,,5,Ontime,long,k,1,2.0213,8,2,34,3,1,,,,,
,0.33,,,,,,,,,f,blue,5ecc5a663823de80ecbe966a,2021-09-27_18h15.40.094,forced_choiceRT_color,2021.2.3,Win32,59.98440405,,,,,,,,5,Ontime,long,f,1,2.0214,8,3,35,1,1,,,,,
,1.34,,,,,,,,,f,blue,5ecc5a663823de80ecbe966a,2021-09-27_18h15.40.094,forced_choiceRT_color,2021.2.3,Win32,59.98440405,,,,,,,,5,Ontime,long,f,1,2.0179,9,0,36,1,1,,,,,
,0.79,,,,,,,,,d,orange,5ecc5a663823de80ecbe966a,2021-09-27_18h15.40.094,forced_choiceRT_color,2021.2.3,Win32,59.98440405,,,,,,,,5,Ontime,long,d,1,2.0297,9,1,37,0,1,,,,,
,1.14,,,,,,,,,d,orange,5ecc5a663823de80ecbe966a,2021-09-27_18h15.40.094,forced_choiceRT_color,2021.2.3,Win32,59.98440405,,,,,,,,5,Ontime,long,d,1,2.0174,9,2,38,0,1,,,,,
,1.7,,,,,,,,,d,orange,5ecc5a663823de80ecbe966a,2021-09-27_18h15.40.094,forced_choiceRT_color,2021.2.3,Win32,59.98440405,,,,,,,,5,Ontime,long,k,0,2.0331,9,3,39,0,1,,,,,
,,,,,,,,,,,,5ecc5a663823de80ecbe966a,2021-09-27_18h15.40.094,forced_choiceRT_color,2021.2.3,Win32,59.98440405,,,,,,,,,,,,,,,,,,,4,0,4,0,1
,0.6,,,,,,,,,d,orange,5ecc5a663823de80ecbe966a,2021-09-27_18h15.40.094,forced_choiceRT_color,2021.2.3,Win32,59.98440405,,,,,,,,6,Ontime,long,d,1,2.0081,0,0,0,0,1,,,,,
,0.07,,,,,,,,,k,purple,5ecc5a663823de80ecbe966a,2021-09-27_18h15.40.094,forced_choiceRT_color,2021.2.3,Win32,59.98440405,,,,,,,,6,Ontime,long,k,1,1.9859,0,1,1,3,1,,,,,
,0.38,,,,,,,,,f,blue,5ecc5a663823de80ecbe966a,2021-09-27_18h15.40.094,forced_choiceRT_color,2021.2.3,Win32,59.98440405,,,,,,,,6,Ontime,long,f,1,2.0023,0,2,2,1,1,,,,,
,0.71,,,,,,,,,j,red,5ecc5a663823de80ecbe966a,2021-09-27_18h15.40.094,forced_choiceRT_color,2021.2.3,Win32,59.98440405,,,,,,,,6,Ontime,long,j,1,2.0243,0,3,3,2,1,,,,,
,0.61,,,,,,,,,f,blue,5ecc5a663823de80ecbe966a,2021-09-27_18h15.40.094,forced_choiceRT_color,2021.2.3,Win32,59.98440405,,,,,,,,6,Ontime,long,f,1,2.0381,1,0,4,1,1,,,,,
,1.26,,,,,,,,,k,purple,5ecc5a663823de80ecbe966a,2021-09-27_18h15.40.094,forced_choiceRT_color,2021.2.3,Win32,59.98440405,,,,,,,,6,Slow,long,k,1,2.1271,1,1,5,3,1,,,,,
,0.99,,,,,,,,,d,orange,5ecc5a663823de80ecbe966a,2021-09-27_18h15.40.094,forced_choiceRT_color,2021.2.3,Win32,59.98440405,,,,,,,,6,Ontime,long,d,1,2.0216,1,2,6,0,1,,,,,
,1.61,,,,,,,,,k,purple,5ecc5a663823de80ecbe966a,2021-09-27_18h15.40.094,forced_choiceRT_color,2021.2.3,Win32,59.98440405,,,,,,,,6,Ontime,long,j,0,1.9715,1,3,7,3,1,,,,,
,0.1,,,,,,,,,j,red,5ecc5a663823de80ecbe966a,2021-09-27_18h15.40.094,forced_choiceRT_color,2021.2.3,Win32,59.98440405,,,,,,,,6,Ontime,long,j,1,1.9214,2,0,8,2,1,,,,,
,1.28,,,,,,,,,d,orange,5ecc5a663823de80ecbe966a,2021-09-27_18h15.40.094,forced_choiceRT_color,2021.2.3,Win32,59.98440405,,,,,,,,6,Ontime,long,d,1,1.9698,2,1,9,0,1,,,,,
,0.39,,,,,,,,,d,orange,5ecc5a663823de80ecbe966a,2021-09-27_18h15.40.094,forced_choiceRT_color,2021.2.3,Win32,59.98440405,,,,,,,,6,Ontime,long,d,1,1.9879,2,2,10,0,1,,,,,
,0.81,,,,,,,,,d,orange,5ecc5a663823de80ecbe966a,2021-09-27_18h15.40.094,forced_choiceRT_color,2021.2.3,Win32,59.98440405,,,,,,,,6,Ontime,long,d,1,2.0047,2,3,11,0,1,,,,,
,0.88,,,,,,,,,j,red,5ecc5a663823de80ecbe966a,2021-09-27_18h15.40.094,forced_choiceRT_color,2021.2.3,Win32,59.98440405,,,,,,,,6,Ontime,long,j,1,2.0381,3,0,12,2,1,,,,,
,1.77,,,,,,,,,j,red,5ecc5a663823de80ecbe966a,2021-09-27_18h15.40.094,forced_choiceRT_color,2021.2.3,Win32,59.98440405,,,,,,,,6,Ontime,long,k,0,2.0844,3,1,13,2,1,,,,,
,0.71,,,,,,,,,d,orange,5ecc5a663823de80ecbe966a,2021-09-27_18h15.40.094,forced_choiceRT_color,2021.2.3,Win32,59.98440405,,,,,,,,6,Ontime,long,d,1,2.053,3,2,14,0,1,,,,,
,1.68,,,,,,,,,k,purple,5ecc5a663823de80ecbe966a,2021-09-27_18h15.40.094,forced_choiceRT_color,2021.2.3,Win32,59.98440405,,,,,,,,6,Ontime,long,k,1,2.0048,3,3,15,3,1,,,,,
,1.31,,,,,,,,,d,orange,5ecc5a663823de80ecbe966a,2021-09-27_18h15.40.094,forced_choiceRT_color,2021.2.3,Win32,59.98440405,,,,,,,,6,Slow,long,d,1,2.1372,4,0,16,0,1,,,,,
,0.86,,,,,,,,,j,red,5ecc5a663823de80ecbe966a,2021-09-27_18h15.40.094,forced_choiceRT_color,2021.2.3,Win32,59.98440405,,,,,,,,6,Ontime,long,j,1,1.9552,4,1,17,2,1,,,,,
,1.68,,,,,,,,,d,orange,5ecc5a663823de80ecbe966a,2021-09-27_18h15.40.094,forced_choiceRT_color,2021.2.3,Win32,59.98440405,,,,,,,,6,Slow,long,d,1,2.2879,4,2,18,0,1,,,,,
,1.88,,,,,,,,,k,purple,5ecc5a663823de80ecbe966a,2021-09-27_18h15.40.094,forced_choiceRT_color,2021.2.3,Win32,59.98440405,,,,,,,,6,Slow,long,k,1,2.2452,4,3,19,3,1,,,,,
,0.94,,,,,,,,,f,blue,5ecc5a663823de80ecbe966a,2021-09-27_18h15.40.094,forced_choiceRT_color,2021.2.3,Win32,59.98440405,,,,,,,,6,Fast,long,f,1,1.8312,5,0,20,1,1,,,,,
,1.36,,,,,,,,,d,orange,5ecc5a663823de80ecbe966a,2021-09-27_18h15.40.094,forced_choiceRT_color,2021.2.3,Win32,59.98440405,,,,,,,,6,Ontime,long,f,0,1.9841,5,1,21,0,1,,,,,
,0.77,,,,,,,,,j,red,5ecc5a663823de80ecbe966a,2021-09-27_18h15.40.094,forced_choiceRT_color,2021.2.3,Win32,59.98440405,,,,,,,,6,Ontime,long,j,1,1.9382,5,2,22,2,1,,,,,
,1.91,,,,,,,,,d,orange,5ecc5a663823de80ecbe966a,2021-09-27_18h15.40.094,forced_choiceRT_color,2021.2.3,Win32,59.98440405,,,,,,,,6,Slow,long,d,1,2.1545,5,3,23,0,1,,,,,
,1.5,,,,,,,,,f,blue,5ecc5a663823de80ecbe966a,2021-09-27_18h15.40.094,forced_choiceRT_color,2021.2.3,Win32,59.98440405,,,,,,,,6,Ontime,long,j,0,1.9881,6,0,24,1,1,,,,,
,0.03,,,,,,,,,f,blue,5ecc5a663823de80ecbe966a,2021-09-27_18h15.40.094,forced_choiceRT_color,2021.2.3,Win32,59.98440405,,,,,,,,6,Ontime,long,f,1,1.988,6,1,25,1,1,,,,,
,1.41,,,,,,,,,f,blue,5ecc5a663823de80ecbe966a,2021-09-27_18h15.40.094,forced_choiceRT_color,2021.2.3,Win32,59.98440405,,,,,,,,6,Ontime,long,f,1,1.9857,6,2,26,1,1,,,,,
,0.37,,,,,,,,,f,blue,5ecc5a663823de80ecbe966a,2021-09-27_18h15.40.094,forced_choiceRT_color,2021.2.3,Win32,59.98440405,,,,,,,,6,Ontime,long,f,1,2.0382,6,3,27,1,1,,,,,
,1.22,,,,,,,,,k,purple,5ecc5a663823de80ecbe966a,2021-09-27_18h15.40.094,forced_choiceRT_color,2021.2.3,Win32,59.98440405,,,,,,,,6,Ontime,long,k,1,2.038,7,0,28,3,1,,,,,
,1.65,,,,,,,,,k,purple,5ecc5a663823de80ecbe966a,2021-09-27_18h15.40.094,forced_choiceRT_color,2021.2.3,Win32,59.98440405,,,,,,,,6,Slow,long,k,1,2.1044,7,1,29,3,1,,,,,
,1.27,,,,,,,,,f,blue,5ecc5a663823de80ecbe966a,2021-09-27_18h15.40.094,forced_choiceRT_color,2021.2.3,Win32,59.98440405,,,,,,,,6,Slow,long,f,1,2.1172,7,2,30,1,1,,,,,
,0.74,,,,,,,,,j,red,5ecc5a663823de80ecbe966a,2021-09-27_18h15.40.094,forced_choiceRT_color,2021.2.3,Win32,59.98440405,,,,,,,,6,Ontime,long,j,1,1.9374,7,3,31,2,1,,,,,
,0.8,,,,,,,,,j,red,5ecc5a663823de80ecbe966a,2021-09-27_18h15.40.094,forced_choiceRT_color,2021.2.3,Win32,59.98440405,,,,,,,,6,Ontime,long,j,1,2.0197,8,0,32,2,1,,,,,
,0.5,,,,,,,,,k,purple,5ecc5a663823de80ecbe966a,2021-09-27_18h15.40.094,forced_choiceRT_color,2021.2.3,Win32,59.98440405,,,,,,,,6,Ontime,long,k,1,1.9695,8,1,33,3,1,,,,,
,1.19,,,,,,,,,k,purple,5ecc5a663823de80ecbe966a,2021-09-27_18h15.40.094,forced_choiceRT_color,2021.2.3,Win32,59.98440405,,,,,,,,6,Ontime,long,k,1,2.0018,8,2,34,3,1,,,,,
,1.07,,,,,,,,,j,red,5ecc5a663823de80ecbe966a,2021-09-27_18h15.40.094,forced_choiceRT_color,2021.2.3,Win32,59.98440405,,,,,,,,6,Ontime,long,j,1,2.0545,8,3,35,2,1,,,,,
,1.63,,,,,,,,,k,purple,5ecc5a663823de80ecbe966a,2021-09-27_18h15.40.094,forced_choiceRT_color,2021.2.3,Win32,59.98440405,,,,,,,,6,Slow,long,j,0,2.1381,9,0,36,3,1,,,,,
,1.56,,,,,,,,,j,red,5ecc5a663823de80ecbe966a,2021-09-27_18h15.40.094,forced_choiceRT_color,2021.2.3,Win32,59.98440405,,,,,,,,6,Slow,long,j,1,2.1381,9,1,37,2,1,,,,,
,1.28,,,,,,,,,f,blue,5ecc5a663823de80ecbe966a,2021-09-27_18h15.40.094,forced_choiceRT_color,2021.2.3,Win32,59.98440405,,,,,,,,6,Ontime,long,f,1,1.9709,9,2,38,1,1,,,,,
,0.8,,,,,,,,,f,blue,5ecc5a663823de80ecbe966a,2021-09-27_18h15.40.094,forced_choiceRT_color,2021.2.3,Win32,59.98440405,,,,,,,,6,Ontime,long,f,1,1.9939,9,3,39,1,1,,,,,
,,,,,,,,,,,,5ecc5a663823de80ecbe966a,2021-09-27_18h15.40.094,forced_choiceRT_color,2021.2.3,Win32,59.98440405,,,,,,,,,,,,,,,,,,,5,0,5,0,1
,0.83,,,,,,,,,d,orange,5ecc5a663823de80ecbe966a,2021-09-27_18h15.40.094,forced_choiceRT_color,2021.2.3,Win32,59.98440405,,,,,,,,7,Ontime,long,d,1,2.029,0,0,0,0,1,,,,,
,1.22,,,,,,,,,f,blue,5ecc5a663823de80ecbe966a,2021-09-27_18h15.40.094,forced_choiceRT_color,2021.2.3,Win32,59.98440405,,,,,,,,7,Fast,long,f,1,1.8381,0,1,1,1,1,,,,,
,1.56,,,,,,,,,j,red,5ecc5a663823de80ecbe966a,2021-09-27_18h15.40.094,forced_choiceRT_color,2021.2.3,Win32,59.98440405,,,,,,,,7,Slow,long,j,1,2.1545,0,2,2,2,1,,,,,
,1.94,,,,,,,,,j,red,5ecc5a663823de80ecbe966a,2021-09-27_18h15.40.094,forced_choiceRT_color,2021.2.3,Win32,59.98440405,,,,,,,,7,Slow,long,k,0,2.4046,0,3,3,2,1,,,,,
,0.42,,,,,,,,,k,purple,5ecc5a663823de80ecbe966a,2021-09-27_18h15.40.094,forced_choiceRT_color,2021.2.3,Win32,59.98440405,,,,,,,,7,Ontime,long,k,1,1.9915,1,0,4,3,1,,,,,
,1.77,,,,,,,,,f,blue,5ecc5a663823de80ecbe966a,2021-09-27_18h15.40.094,forced_choiceRT_color,2021.2.3,Win32,59.98440405,,,,,,,,7,Slow,long,f,1,2.2195,1,1,5,1,1,,,,,
,0.61,,,,,,,,,k,purple,5ecc5a663823de80ecbe966a,2021-09-27_18h15.40.094,forced_choiceRT_color,2021.2.3,Win32,59.98440405,,,,,,,,7,Ontime,long,k,1,1.963,1,2,6,3,1,,,,,
,0.72,,,,,,,,,k,purple,5ecc5a663823de80ecbe966a,2021-09-27_18h15.40.094,forced_choiceRT_color,2021.2.3,Win32,59.98440405,,,,,,,,7,Ontime,long,k,1,1.955,1,3,7,3,1,,,,,
,0.19,,,,,,,,,d,orange,5ecc5a663823de80ecbe966a,2021-09-27_18h15.40.094,forced_choiceRT_color,2021.2.3,Win32,59.98440405,,,,,,,,7,Slow,long,d,1,2.1181,2,0,8,0,1,,,,,
,1.52,,,,,,,,,f,blue,5ecc5a663823de80ecbe966a,2021-09-27_18h15.40.094,forced_choiceRT_color,2021.2.3,Win32,59.98440405,,,,,,,,7,Ontime,long,f,1,2.0879,2,1,9,1,1,,,,,
,1.93,,,,,,,,,k,purple,5ecc5a663823de80ecbe966a,2021-09-27_18h15.40.094,forced_choiceRT_color,2021.2.3,Win32,59.98440405,,,,,,,,7,Slow,long,k,1,2.3046,2,2,10,3,1,,,,,
,0.91,,,,,,,,,f,blue,5ecc5a663823de80ecbe966a,2021-09-27_18h15.40.094,forced_choiceRT_color,2021.2.3,Win32,59.98440405,,,,,,,,7,Ontime,long,f,1,2.0542,2,3,11,1,1,,,,,
,1.8,,,,,,,,,j,red,5ecc5a663823de80ecbe966a,2021-09-27_18h15.40.094,forced_choiceRT_color,2021.2.3,Win32,59.98440405,,,,,,,,7,Slow,long,j,1,2.1349,3,0,12,2,1,,,,,
,0.6,,,,,,,,,f,blue,5ecc5a663823de80ecbe966a,2021-09-27_18h15.40.094,forced_choiceRT_color,2021.2.3,Win32,59.98440405,,,,,,,,7,Fast,long,f,1,1.8299,3,1,13,1,1,,,,,
,1.42,,,,,,,,,k,purple,5ecc5a663823de80ecbe966a,2021-09-27_18h15.40.094,forced_choiceRT_color,2021.2.3,Win32,59.98440405,,,,,,,,7,Slow,long,k,1,2.1882,3,2,14,3,1,,,,,
,1.98,,,,,,,,,d,orange,5ecc5a663823de80ecbe966a,2021-09-27_18h15.40.094,forced_choiceRT_color,2021.2.3,Win32,59.98440405,,,,,,,,7,Slow,long,k,0,2.2215,3,3,15,0,1,,,,,
,1.96,,,,,,,,,f,blue,5ecc5a663823de80ecbe966a,2021-09-27_18h15.40.094,forced_choiceRT_color,2021.2.3,Win32,59.98440405,,,,,,,,7,Ontime,long,j,0,2.0976,4,0,16,1,1,,,,,
,0.47,,,,,,,,,d,orange,5ecc5a663823de80ecbe966a,2021-09-27_18h15.40.094,forced_choiceRT_color,2021.2.3,Win32,59.98440405,,,,,,,,7,Ontime,long,d,1,2.0214,4,1,17,0,1,,,,,
,0.38,,,,,,,,,j,red,5ecc5a663823de80ecbe966a,2021-09-27_18h15.40.094,forced_choiceRT_color,2021.2.3,Win32,59.98440405,,,,,,,,7,Ontime,long,j,1,1.9852,4,2,18,2,1,,,,,
,1.42,,,,,,,,,d,orange,5ecc5a663823de80ecbe966a,2021-09-27_18h15.40.094,forced_choiceRT_color,2021.2.3,Win32,59.98440405,,,,,,,,7,Slow,long,d,1,2.1181,4,3,19,0,1,,,,,
,1.21,,,,,,,,,j,red,5ecc5a663823de80ecbe966a,2021-09-27_18h15.40.094,forced_choiceRT_color,2021.2.3,Win32,59.98440405,,,,,,,,7,Fast,long,j,1,1.7711,5,0,20,2,1,,,,,
,1.1,,,,,,,,,f,blue,5ecc5a663823de80ecbe966a,2021-09-27_18h15.40.094,forced_choiceRT_color,2021.2.3,Win32,59.98440405,,,,,,,,7,Ontime,long,f,1,1.955,5,1,21,1,1,,,,,
,0.53,,,,,,,,,d,orange,5ecc5a663823de80ecbe966a,2021-09-27_18h15.40.094,forced_choiceRT_color,2021.2.3,Win32,59.98440405,,,,,,,,7,Ontime,long,d,1,1.9547,5,2,22,0,1,,,,,
,1.7,,,,,,,,,k,purple,5ecc5a663823de80ecbe966a,2021-09-27_18h15.40.094,forced_choiceRT_color,2021.2.3,Win32,59.98440405,,,,,,,,7,Ontime,long,k,1,1.9972,5,3,23,3,1,,,,,
,1.87,,,,,,,,,k,purple,5ecc5a663823de80ecbe966a,2021-09-27_18h15.40.094,forced_choiceRT_color,2021.2.3,Win32,59.98440405,,,,,,,,7,Ontime,long,j,0,2.0691,6,0,24,3,1,,,,,
,1.99,,,,,,,,,d,orange,5ecc5a663823de80ecbe966a,2021-09-27_18h15.40.094,forced_choiceRT_color,2021.2.3,Win32,59.98440405,,,,,,,,7,Slow,long,f,0,2.2882,6,1,25,0,1,,,,,
,0.49,,,,,,,,,d,orange,5ecc5a663823de80ecbe966a,2021-09-27_18h15.40.094,forced_choiceRT_color,2021.2.3,Win32,59.98440405,,,,,,,,7,Ontime,long,d,1,2.0711,6,2,26,0,1,,,,,
,0.72,,,,,,,,,k,purple,5ecc5a663823de80ecbe966a,2021-09-27_18h15.40.094,forced_choiceRT_color,2021.2.3,Win32,59.98440405,,,,,,,,7,Ontime,long,k,1,1.9508,6,3,27,3,1,,,,,
,0.12,,,,,,,,,j,red,5ecc5a663823de80ecbe966a,2021-09-27_18h15.40.094,forced_choiceRT_color,2021.2.3,Win32,59.98440405,,,,,,,,7,Ontime,long,j,1,2.0215,7,0,28,2,1,,,,,
,1.92,,,,,,,,,k,purple,5ecc5a663823de80ecbe966a,2021-09-27_18h15.40.094,forced_choiceRT_color,2021.2.3,Win32,59.98440405,,,,,,,,7,Slow,long,d,0,2.1825,7,1,29,3,1,,,,,
,0.92,,,,,,,,,j,red,5ecc5a663823de80ecbe966a,2021-09-27_18h15.40.094,forced_choiceRT_color,2021.2.3,Win32,59.98440405,,,,,,,,7,Ontime,long,j,1,2.0213,7,2,30,2,1,,,,,
,0.06,,,,,,,,,d,orange,5ecc5a663823de80ecbe966a,2021-09-27_18h15.40.094,forced_choiceRT_color,2021.2.3,Win32,59.98440405,,,,,,,,7,Slow,long,d,1,2.1046,7,3,31,0,1,,,,,
,1.73,,,,,,,,,j,red,5ecc5a663823de80ecbe966a,2021-09-27_18h15.40.094,forced_choiceRT_color,2021.2.3,Win32,59.98440405,,,,,,,,7,Ontime,long,j,1,2.0878,8,0,32,2,1,,,,,
,0.55,,,,,,,,,d,orange,5ecc5a663823de80ecbe966a,2021-09-27_18h15.40.094,forced_choiceRT_color,2021.2.3,Win32,59.98440405,,,,,,,,7,Ontime,long,d,1,1.9375,8,1,33,0,1,,,,,
,0.93,,,,,,,,,f,blue,5ecc5a663823de80ecbe966a,2021-09-27_18h15.40.094,forced_choiceRT_color,2021.2.3,Win32,59.98440405,,,,,,,,7,Ontime,long,f,1,2.021,8,2,34,1,1,,,,,
,1.45,,,,,,,,,j,red,5ecc5a663823de80ecbe966a,2021-09-27_18h15.40.094,forced_choiceRT_color,2021.2.3,Win32,59.98440405,,,,,,,,7,Slow,long,f,0,2.1044,8,3,35,2,1,,,,,
,0.05,,,,,,,,,f,blue,5ecc5a663823de80ecbe966a,2021-09-27_18h15.40.094,forced_choiceRT_color,2021.2.3,Win32,59.98440405,,,,,,,,7,Ontime,long,f,1,2.0049,9,0,36,1,1,,,,,
,1.02,,,,,,,,,f,blue,5ecc5a663823de80ecbe966a,2021-09-27_18h15.40.094,forced_choiceRT_color,2021.2.3,Win32,59.98440405,,,,,,,,7,Ontime,long,f,1,2.0381,9,1,37,1,1,,,,,
,1.53,,,,,,,,,k,purple,5ecc5a663823de80ecbe966a,2021-09-27_18h15.40.094,forced_choiceRT_color,2021.2.3,Win32,59.98440405,,,,,,,,7,Slow,long,k,1,2.1379,9,2,38,3,1,,,,,
,0.41,,,,,,,,,j,red,5ecc5a663823de80ecbe966a,2021-09-27_18h15.40.094,forced_choiceRT_color,2021.2.3,Win32,59.98440405,,,,,,,,7,Ontime,long,j,1,2.0317,9,3,39,2,1,,,,,
,,,,,,,,,,,,5ecc5a663823de80ecbe966a,2021-09-27_18h15.40.094,forced_choiceRT_color,2021.2.3,Win32,59.98440405,,,,,,,,,,,,,,,,,,,6,0,6,0,1
,1.68,,,,,,,,,k,purple,5ecc5a663823de80ecbe966a,2021-09-27_18h15.40.094,forced_choiceRT_color,2021.2.3,Win32,59.98440405,,,,,,,,8,Ontime,long,j,0,2.0974,0,0,0,3,1,,,,,
,0.73,,,,,,,,,j,red,5ecc5a663823de80ecbe966a,2021-09-27_18h15.40.094,forced_choiceRT_color,2021.2.3,Win32,59.98440405,,,,,,,,8,Fast,long,j,1,1.7601,0,1,1,2,1,,,,,
,0.55,,,,,,,,,j,red,5ecc5a663823de80ecbe966a,2021-09-27_18h15.40.094,forced_choiceRT_color,2021.2.3,Win32,59.98440405,,,,,,,,8,Ontime,long,j,1,2.0546,0,2,2,2,1,,,,,
,0.33,,,,,,,,,f,blue,5ecc5a663823de80ecbe966a,2021-09-27_18h15.40.094,forced_choiceRT_color,2021.2.3,Win32,59.98440405,,,,,,,,8,Ontime,long,f,1,2.0713,0,3,3,1,1,,,,,
,0.97,,,,,,,,,j,red,5ecc5a663823de80ecbe966a,2021-09-27_18h15.40.094,forced_choiceRT_color,2021.2.3,Win32,59.98440405,,,,,,,,8,Ontime,long,j,1,2.0546,1,0,4,2,1,,,,,
,1.79,,,,,,,,,k,purple,5ecc5a663823de80ecbe966a,2021-09-27_18h15.40.094,forced_choiceRT_color,2021.2.3,Win32,59.98440405,,,,,,,,8,Ontime,long,d,0,2.0627,1,1,5,3,1,,,,,
,1.27,,,,,,,,,f,blue,5ecc5a663823de80ecbe966a,2021-09-27_18h15.40.094,forced_choiceRT_color,2021.2.3,Win32,59.98440405,,,,,,,,8,Ontime,long,f,1,2.0052,1,2,6,1,1,,,,,
,1.86,,,,,,,,,d,orange,5ecc5a663823de80ecbe966a,2021-09-27_18h15.40.094,forced_choiceRT_color,2021.2.3,Win32,59.98440405,,,,,,,,8,Slow,long,k,0,2.1706,1,3,7,0,1,,,,,
,1.84,,,,,,,,,j,red,5ecc5a663823de80ecbe966a,2021-09-27_18h15.40.094,forced_choiceRT_color,2021.2.3,Win32,59.98440405,,,,,,,,8,Slow,long,k,0,2.3216,2,0,8,2,1,,,,,
,1.63,,,,,,,,,k,purple,5ecc5a663823de80ecbe966a,2021-09-27_18h15.40.094,forced_choiceRT_color,2021.2.3,Win32,59.98440405,,,,,,,,8,Ontime,long,f,0,2.0209,2,1,9,3,1,,,,,
,1.59,,,,,,,,,k,purple,5ecc5a663823de80ecbe966a,2021-09-27_18h15.40.094,forced_choiceRT_color,2021.2.3,Win32,59.98440405,,,,,,,,8,Ontime,long,k,1,1.9713,2,2,10,3,1,,,,,
,1.1,,,,,,,,,d,orange,5ecc5a663823de80ecbe966a,2021-09-27_18h15.40.094,forced_choiceRT_color,2021.2.3,Win32,59.98440405,,,,,,,,8,Ontime,long,d,1,1.9712,2,3,11,0,1,,,,,
,0.21,,,,,,,,,j,red,5ecc5a663823de80ecbe966a,2021-09-27_18h15.40.094,forced_choiceRT_color,2021.2.3,Win32,59.98440405,,,,,,,,8,Ontime,long,j,1,2.0543,3,0,12,2,1,,,,,
,1.54,,,,,,,,,j,red,5ecc5a663823de80ecbe966a,2021-09-27_18h15.40.094,forced_choiceRT_color,2021.2.3,Win32,59.98440405,,,,,,,,8,Ontime,long,k,0,2.0698,3,1,13,2,1,,,,,
,0.95,,,,,,,,,d,orange,5ecc5a663823de80ecbe966a,2021-09-27_18h15.40.094,forced_choiceRT_color,2021.2.3,Win32,59.98440405,,,,,,,,8,Ontime,long,d,1,2.0841,3,2,14,0,1,,,,,
,0.23,,,,,,,,,j,red,5ecc5a663823de80ecbe966a,2021-09-27_18h15.40.094,forced_choiceRT_color,2021.2.3,Win32,59.98440405,,,,,,,,8,Ontime,long,j,1,2.0839,3,3,15,2,1,,,,,
,1.69,,,,,,,,,d,orange,5ecc5a663823de80ecbe966a,2021-09-27_18h15.40.094,forced_choiceRT_color,2021.2.3,Win32,59.98440405,,,,,,,,8,Slow,long,d,1,2.1442,4,0,16,0,1,,,,,
,1.43,,,,,,,,,k,purple,5ecc5a663823de80ecbe966a,2021-09-27_18h15.40.094,forced_choiceRT_color,2021.2.3,Win32,59.98440405,,,,,,,,8,Ontime,long,k,1,2.0212,4,1,17,3,1,,,,,
,1.07,,,,,,,,,k,purple,5ecc5a663823de80ecbe966a,2021-09-27_18h15.40.094,forced_choiceRT_color,2021.2.3,Win32,59.98440405,,,,,,,,8,Ontime,long,k,1,2.0715,4,2,18,3,1,,,,,
,0.45,,,,,,,,,j,red,5ecc5a663823de80ecbe966a,2021-09-27_18h15.40.094,forced_choiceRT_color,2021.2.3,Win32,59.98440405,,,,,,,,8,Ontime,long,j,1,1.9707,4,3,19,2,1,,,,,
,1.07,,,,,,,,,f,blue,5ecc5a663823de80ecbe966a,2021-09-27_18h15.40.094,forced_choiceRT_color,2021.2.3,Win32,59.98440405,,,,,,,,8,Ontime,long,f,1,1.9883,5,0,20,1,1,,,,,
,1.66,,,,,,,,,d,orange,5ecc5a663823de80ecbe966a,2021-09-27_18h15.40.094,forced_choiceRT_color,2021.2.3,Win32,59.98440405,,,,,,,,8,Ontime,long,f,0,2.038,5,1,21,0,1,,,,,
,1.01,,,,,,,,,j,red,5ecc5a663823de80ecbe966a,2021-09-27_18h15.40.094,forced_choiceRT_color,2021.2.3,Win32,59.98440405,,,,,,,,8,Ontime,long,j,1,1.9674,5,2,22,2,1,,,,,
,1.23,,,,,,,,,f,blue,5ecc5a663823de80ecbe966a,2021-09-27_18h15.40.094,forced_choiceRT_color,2021.2.3,Win32,59.98440405,,,,,,,,8,Ontime,long,f,1,1.9711,5,3,23,1,1,,,,,
,0.2,,,,,,,,,f,blue,5ecc5a663823de80ecbe966a,2021-09-27_18h15.40.094,forced_choiceRT_color,2021.2.3,Win32,59.98440405,,,,,,,,8,Ontime,long,f,1,2.048,6,0,24,1,1,,,,,
,1.1,,,,,,,,,d,orange,5ecc5a663823de80ecbe966a,2021-09-27_18h15.40.094,forced_choiceRT_color,2021.2.3,Win32,59.98440405,,,,,,,,8,Ontime,long,d,1,2.0219,6,1,25,0,1,,,,,
,0.75,,,,,,,,,k,purple,5ecc5a663823de80ecbe966a,2021-09-27_18h15.40.094,forced_choiceRT_color,2021.2.3,Win32,59.98440405,,,,,,,,8,Ontime,long,k,1,2.0047,6,2,26,3,1,,,,,
,1.71,,,,,,,,,f,blue,5ecc5a663823de80ecbe966a,2021-09-27_18h15.40.094,forced_choiceRT_color,2021.2.3,Win32,59.98440405,,,,,,,,8,Slow,long,k,0,2.2498,6,3,27,1,1,,,,,
,1.44,,,,,,,,,k,purple,5ecc5a663823de80ecbe966a,2021-09-27_18h15.40.094,forced_choiceRT_color,2021.2.3,Win32,59.98440405,,,,,,,,8,Slow,long,k,1,2.1546,7,0,28,3,1,,,,,
,0.09,,,,,,,,,d,orange,5ecc5a663823de80ecbe966a,2021-09-27_18h15.40.094,forced_choiceRT_color,2021.2.3,Win32,59.98440405,,,,,,,,8,Ontime,long,d,1,2.0717,7,1,29,0,1,,,,,
,0.83,,,,,,,,,f,blue,5ecc5a663823de80ecbe966a,2021-09-27_18h15.40.094,forced_choiceRT_color,2021.2.3,Win32,59.98440405,,,,,,,,8,Ontime,long,f,1,2.0054,7,2,30,1,1,,,,,
,1.53,,,,,,,,,d,orange,5ecc5a663823de80ecbe966a,2021-09-27_18h15.40.094,forced_choiceRT_color,2021.2.3,Win32,59.98440405,,,,,,,,8,Ontime,long,k,0,1.9007,7,3,31,0,1,,,,,
,0.31,,,,,,,,,f,blue,5ecc5a663823de80ecbe966a,2021-09-27_18h15.40.094,forced_choiceRT_color,2021.2.3,Win32,59.98440405,,,,,,,,8,Fast,long,f,1,1.8711,8,0,32,1,1,,,,,
,0.62,,,,,,,,,k,purple,5ecc5a663823de80ecbe966a,2021-09-27_18h15.40.094,forced_choiceRT_color,2021.2.3,Win32,59.98440405,,,,,,,,8,Ontime,long,k,1,1.9668,8,1,33,3,1,,,,,
,1.12,,,,,,,,,f,blue,5ecc5a663823de80ecbe966a,2021-09-27_18h15.40.094,forced_choiceRT_color,2021.2.3,Win32,59.98440405,,,,,,,,8,Ontime,long,f,1,1.9545,8,2,34,1,1,,,,,
,0.45,,,,,,,,,k,purple,5ecc5a663823de80ecbe966a,2021-09-27_18h15.40.094,forced_choiceRT_color,2021.2.3,Win32,59.98440405,,,,,,,,8,Ontime,long,k,1,1.9875,8,3,35,3,1,,,,,
,0.32,,,,,,,,,j,red,5ecc5a663823de80ecbe966a,2021-09-27_18h15.40.094,forced_choiceRT_color,2021.2.3,Win32,59.98440405,,,,,,,,8,Ontime,long,j,1,2.0024,9,0,36,2,1,,,,,
,0.55,,,,,,,,,f,blue,5ecc5a663823de80ecbe966a,2021-09-27_18h15.40.094,forced_choiceRT_color,2021.2.3,Win32,59.98440405,,,,,,,,8,Ontime,long,f,1,2.0048,9,1,37,1,1,,,,,
,1.01,,,,,,,,,d,orange,5ecc5a663823de80ecbe966a,2021-09-27_18h15.40.094,forced_choiceRT_color,2021.2.3,Win32,59.98440405,,,,,,,,8,Ontime,long,d,1,2.0215,9,2,38,0,1,,,,,
,1.69,,,,,,,,,d,orange,5ecc5a663823de80ecbe966a,2021-09-27_18h15.40.094,forced_choiceRT_color,2021.2.3,Win32,59.98440405,,,,,,,,8,Ontime,long,k,0,1.9879,9,3,39,0,1,,,,,
,,,,,,,,,,,,5ecc5a663823de80ecbe966a,2021-09-27_18h15.40.094,forced_choiceRT_color,2021.2.3,Win32,59.98440405,,,,,,,,,,,,,,,,,,,7,0,7,0,1
,1.09,,,,,,,,,j,red,5ecc5a663823de80ecbe966a,2021-09-27_18h15.40.094,forced_choiceRT_color,2021.2.3,Win32,59.98440405,,,,,,,,9,Fast,long,j,1,1.6709,0,0,0,2,1,,,,,
,1.55,,,,,,,,,f,blue,5ecc5a663823de80ecbe966a,2021-09-27_18h15.40.094,forced_choiceRT_color,2021.2.3,Win32,59.98440405,,,,,,,,9,Ontime,long,k,0,2.0547,0,1,1,1,1,,,,,
,0.9,,,,,,,,,j,red,5ecc5a663823de80ecbe966a,2021-09-27_18h15.40.094,forced_choiceRT_color,2021.2.3,Win32,59.98440405,,,,,,,,9,Ontime,long,j,1,1.9016,0,2,2,2,1,,,,,
,0.61,,,,,,,,,j,red,5ecc5a663823de80ecbe966a,2021-09-27_18h15.40.094,forced_choiceRT_color,2021.2.3,Win32,59.98440405,,,,,,,,9,Ontime,long,j,1,1.9872,0,3,3,2,1,,,,,
,0.91,,,,,,,,,f,blue,5ecc5a663823de80ecbe966a,2021-09-27_18h15.40.094,forced_choiceRT_color,2021.2.3,Win32,59.98440405,,,,,,,,9,Ontime,long,f,1,1.9553,1,0,4,1,1,,,,,
,0.11,,,,,,,,,k,purple,5ecc5a663823de80ecbe966a,2021-09-27_18h15.40.094,forced_choiceRT_color,2021.2.3,Win32,59.98440405,,,,,,,,9,Ontime,long,k,1,2.0381,1,1,5,3,1,,,,,
,0.41,,,,,,,,,d,orange,5ecc5a663823de80ecbe966a,2021-09-27_18h15.40.094,forced_choiceRT_color,2021.2.3,Win32,59.98440405,,,,,,,,9,Ontime,long,d,1,1.9846,1,2,6,0,1,,,,,
,1.64,,,,,,,,,j,red,5ecc5a663823de80ecbe966a,2021-09-27_18h15.40.094,forced_choiceRT_color,2021.2.3,Win32,59.98440405,,,,,,,,9,Ontime,long,k,0,1.9714,1,3,7,2,1,,,,,
,0.64,,,,,,,,,j,red,5ecc5a663823de80ecbe966a,2021-09-27_18h15.40.094,forced_choiceRT_color,2021.2.3,Win32,59.98440405,,,,,,,,9,Ontime,long,j,1,2.0182,2,0,8,2,1,,,,,
,1.1,,,,,,,,,d,orange,5ecc5a663823de80ecbe966a,2021-09-27_18h15.40.094,forced_choiceRT_color,2021.2.3,Win32,59.98440405,,,,,,,,9,Slow,long,d,1,2.105,2,1,9,0,1,,,,,
,1.15,,,,,,,,,k,purple,5ecc5a663823de80ecbe966a,2021-09-27_18h15.40.094,forced_choiceRT_color,2021.2.3,Win32,59.98440405,,,,,,,,9,Ontime,long,k,1,2.0715,2,2,10,3,1,,,,,
,1.33,,,,,,,,,f,blue,5ecc5a663823de80ecbe966a,2021-09-27_18h15.40.094,forced_choiceRT_color,2021.2.3,Win32,59.98440405,,,,,,,,9,Slow,long,f,1,2.1173,2,3,11,1,1,,,,,
,1.13,,,,,,,,,k,purple,5ecc5a663823de80ecbe966a,2021-09-27_18h15.40.094,forced_choiceRT_color,2021.2.3,Win32,59.98440405,,,,,,,,9,Ontime,long,k,1,2.0298,3,0,12,3,1,,,,,
,1.46,,,,,,,,,f,blue,5ecc5a663823de80ecbe966a,2021-09-27_18h15.40.094,forced_choiceRT_color,2021.2.3,Win32,59.98440405,,,,,,,,9,Ontime,long,f,1,2.0547,3,1,13,1,1,,,,,
,0.41,,,,,,,,,k,purple,5ecc5a663823de80ecbe966a,2021-09-27_18h15.40.094,forced_choiceRT_color,2021.2.3,Win32,59.98440405,,,,,,,,9,Ontime,long,k,1,2.055,3,2,14,3,1,,,,,
,1.81,,,,,,,,,d,orange,5ecc5a663823de80ecbe966a,2021-09-27_18h15.40.094,forced_choiceRT_color,2021.2.3,Win32,59.98440405,,,,,,,,9,Slow,long,d,1,2.1026,3,3,15,0,1,,,,,
,1.37,,,,,,,,,k,purple,5ecc5a663823de80ecbe966a,2021-09-27_18h15.40.094,forced_choiceRT_color,2021.2.3,Win32,59.98440405,,,,,,,,9,Ontime,long,k,1,2.0524,4,0,16,3,1,,,,,
,1.53,,,,,,,,,d,orange,5ecc5a663823de80ecbe966a,2021-09-27_18h15.40.094,forced_choiceRT_color,2021.2.3,Win32,59.98440405,,,,,,,,9,Ontime,long,f,0,2.0885,4,1,17,0,1,,,,,
,0.69,,,,,,,,,f,blue,5ecc5a663823de80ecbe966a,2021-09-27_18h15.40.094,forced_choiceRT_color,2021.2.3,Win32,59.98440405,,,,,,,,9,Fast,long,f,1,1.7378,4,2,18,1,1,,,,,
,1.48,,,,,,,,,f,blue,5ecc5a663823de80ecbe966a,2021-09-27_18h15.40.094,forced_choiceRT_color,2021.2.3,Win32,59.98440405,,,,,,,,9,Slow,long,f,1,2.1625,4,3,19,1,1,,,,,
,1.36,,,,,,,,,d,orange,5ecc5a663823de80ecbe966a,2021-09-27_18h15.40.094,forced_choiceRT_color,2021.2.3,Win32,59.98440405,,,,,,,,9,Slow,long,d,1,2.1547,5,0,20,0,1,,,,,
,0.46,,,,,,,,,f,blue,5ecc5a663823de80ecbe966a,2021-09-27_18h15.40.094,forced_choiceRT_color,2021.2.3,Win32,59.98440405,,,,,,,,9,Ontime,long,f,1,1.9123,5,1,21,1,1,,,,,
,0.18,,,,,,,,,f,blue,5ecc5a663823de80ecbe966a,2021-09-27_18h15.40.094,forced_choiceRT_color,2021.2.3,Win32,59.98440405,,,,,,,,9,Ontime,long,f,1,2.0047,5,2,22,1,1,,,,,
,1.5,,,,,,,,,j,red,5ecc5a663823de80ecbe966a,2021-09-27_18h15.40.094,forced_choiceRT_color,2021.2.3,Win32,59.98440405,,,,,,,,9,Ontime,long,j,1,1.9873,5,3,23,2,1,,,,,
,0.01,,,,,,,,,j,red,5ecc5a663823de80ecbe966a,2021-09-27_18h15.40.094,forced_choiceRT_color,2021.2.3,Win32,59.98440405,,,,,,,,9,Ontime,long,j,1,1.9796,6,0,24,2,1,,,,,
,0.56,,,,,,,,,k,purple,5ecc5a663823de80ecbe966a,2021-09-27_18h15.40.094,forced_choiceRT_color,2021.2.3,Win32,59.98440405,,,,,,,,9,Ontime,long,k,1,2.0487,6,1,25,3,1,,,,,
,0.75,,,,,,,,,d,orange,5ecc5a663823de80ecbe966a,2021-09-27_18h15.40.094,forced_choiceRT_color,2021.2.3,Win32,59.98440405,,,,,,,,9,Ontime,long,d,1,2.0212,6,2,26,0,1,,,,,
,0.32,,,,,,,,,j,red,5ecc5a663823de80ecbe966a,2021-09-27_18h15.40.094,forced_choiceRT_color,2021.2.3,Win32,59.98440405,,,,,,,,9,Ontime,long,j,1,1.9547,6,3,27,2,1,,,,,
,1.29,,,,,,,,,f,blue,5ecc5a663823de80ecbe966a,2021-09-27_18h15.40.094,forced_choiceRT_color,2021.2.3,Win32,59.98440405,,,,,,,,9,Ontime,long,f,1,1.9712,7,0,28,1,1,,,,,
,1.85,,,,,,,,,f,blue,5ecc5a663823de80ecbe966a,2021-09-27_18h15.40.094,forced_choiceRT_color,2021.2.3,Win32,59.98440405,,,,,,,,9,Slow,long,k,0,2.1048,7,1,29,1,1,,,,,
,0.12,,,,,,,,,d,orange,5ecc5a663823de80ecbe966a,2021-09-27_18h15.40.094,forced_choiceRT_color,2021.2.3,Win32,59.98440405,,,,,,,,9,Ontime,long,d,1,1.988,7,2,30,0,1,,,,,
,1.05,,,,,,,,,d,orange,5ecc5a663823de80ecbe966a,2021-09-27_18h15.40.094,forced_choiceRT_color,2021.2.3,Win32,59.98440405,,,,,,,,9,Ontime,long,d,1,2.0839,7,3,31,0,1,,,,,
,1.4,,,,,,,,,k,purple,5ecc5a663823de80ecbe966a,2021-09-27_18h15.40.094,forced_choiceRT_color,2021.2.3,Win32,59.98440405,,,,,,,,9,Slow,long,k,1,6.2301,8,0,32,3,1,,,,,
,0.08,,,,,,,,,k,purple,5ecc5a663823de80ecbe966a,2021-09-27_18h15.40.094,forced_choiceRT_color,2021.2.3,Win32,59.98440405,,,,,,,,9,Ontime,long,k,1,1.9381,8,1,33,3,1,,,,,
,0.15,,,,,,,,,k,purple,5ecc5a663823de80ecbe966a,2021-09-27_18h15.40.094,forced_choiceRT_color,2021.2.3,Win32,59.98440405,,,,,,,,9,Ontime,long,k,1,1.9222,8,2,34,3,1,,,,,
,0.6,,,,,,,,,k,purple,5ecc5a663823de80ecbe966a,2021-09-27_18h15.40.094,forced_choiceRT_color,2021.2.3,Win32,59.98440405,,,,,,,,9,Ontime,long,k,1,1.9843,8,3,35,3,1,,,,,
,0.76,,,,,,,,,d,orange,5ecc5a663823de80ecbe966a,2021-09-27_18h15.40.094,forced_choiceRT_color,2021.2.3,Win32,59.98440405,,,,,,,,9,Ontime,long,d,1,2.0015,9,0,36,0,1,,,,,
,1.77,,,,,,,,,j,red,5ecc5a663823de80ecbe966a,2021-09-27_18h15.40.094,forced_choiceRT_color,2021.2.3,Win32,59.98440405,,,,,,,,9,Slow,long,k,0,2.2048,9,1,37,2,1,,,,,
,1.07,,,,,,,,,j,red,5ecc5a663823de80ecbe966a,2021-09-27_18h15.40.094,forced_choiceRT_color,2021.2.3,Win32,59.98440405,,,,,,,,9,Ontime,long,j,1,1.9879,9,2,38,2,1,,,,,
,1.1,,,,,,,,,d,orange,5ecc5a663823de80ecbe966a,2021-09-27_18h15.40.094,forced_choiceRT_color,2021.2.3,Win32,59.98440405,,,,,,,,9,Ontime,long,d,1,2.0006,9,3,39,0,1,,,,,
,,,,,,,,,,,,5ecc5a663823de80ecbe966a,2021-09-27_18h15.40.094,forced_choiceRT_color,2021.2.3,Win32,59.98440405,,,,,,,,,,,,,,,,,,,8,0,8,0,1
,1.17,,,,,,,,,f,blue,5ecc5a663823de80ecbe966a,2021-09-27_18h15.40.094,forced_choiceRT_color,2021.2.3,Win32,59.98440405,,,,,,,,10,Fast,long,j,0,1.8881,0,0,0,1,1,,,,,
,1.23,,,,,,,,,f,blue,5ecc5a663823de80ecbe966a,2021-09-27_18h15.40.094,forced_choiceRT_color,2021.2.3,Win32,59.98440405,,,,,,,,10,Ontime,long,f,1,1.9174,0,1,1,1,1,,,,,
,0.26,,,,,,,,,d,orange,5ecc5a663823de80ecbe966a,2021-09-27_18h15.40.094,forced_choiceRT_color,2021.2.3,Win32,59.98440405,,,,,,,,10,Fast,long,d,1,1.8363,0,2,2,0,1,,,,,
,0.71,,,,,,,,,d,orange,5ecc5a663823de80ecbe966a,2021-09-27_18h15.40.094,forced_choiceRT_color,2021.2.3,Win32,59.98440405,,,,,,,,10,Ontime,long,d,1,2.0127,0,3,3,0,1,,,,,
,1.24,,,,,,,,,f,blue,5ecc5a663823de80ecbe966a,2021-09-27_18h15.40.094,forced_choiceRT_color,2021.2.3,Win32,59.98440405,,,,,,,,10,Ontime,long,f,1,1.9006,1,0,4,1,1,,,,,
,1.19,,,,,,,,,k,purple,5ecc5a663823de80ecbe966a,2021-09-27_18h15.40.094,forced_choiceRT_color,2021.2.3,Win32,59.98440405,,,,,,,,10,Ontime,long,k,1,2.0868,1,1,5,3,1,,,,,
,0.92,,,,,,,,,d,orange,5ecc5a663823de80ecbe966a,2021-09-27_18h15.40.094,forced_choiceRT_color,2021.2.3,Win32,59.98440405,,,,,,,,10,Ontime,long,d,1,2.066,1,2,6,0,1,,,,,
,0.92,,,,,,,,,d,orange,5ecc5a663823de80ecbe966a,2021-09-27_18h15.40.094,forced_choiceRT_color,2021.2.3,Win32,59.98440405,,,,,,,,10,Ontime,long,d,1,2.0202,1,3,7,0,1,,,,,
,1.31,,,,,,,,,j,red,5ecc5a663823de80ecbe966a,2021-09-27_18h15.40.094,forced_choiceRT_color,2021.2.3,Win32,59.98440405,,,,,,,,10,Ontime,long,k,0,2.0045,2,0,8,2,1,,,,,
,0.75,,,,,,,,,k,purple,5ecc5a663823de80ecbe966a,2021-09-27_18h15.40.094,forced_choiceRT_color,2021.2.3,Win32,59.98440405,,,,,,,,10,Ontime,long,k,1,1.9523,2,1,9,3,1,,,,,
,0.99,,,,,,,,,d,orange,5ecc5a663823de80ecbe966a,2021-09-27_18h15.40.094,forced_choiceRT_color,2021.2.3,Win32,59.98440405,,,,,,,,10,Ontime,long,d,1,2.0586,2,2,10,0,1,,,,,
,0.92,,,,,,,,,k,purple,5ecc5a663823de80ecbe966a,2021-09-27_18h15.40.094,forced_choiceRT_color,2021.2.3,Win32,59.98440405,,,,,,,,10,Ontime,long,k,1,2.0549,2,3,11,3,1,,,,,
,1.48,,,,,,,,,d,orange,5ecc5a663823de80ecbe966a,2021-09-27_18h15.40.094,forced_choiceRT_color,2021.2.3,Win32,59.98440405,,,,,,,,10,Slow,long,d,1,2.2178,3,0,12,0,1,,,,,
,1.71,,,,,,,,,k,purple,5ecc5a663823de80ecbe966a,2021-09-27_18h15.40.094,forced_choiceRT_color,2021.2.3,Win32,59.98440405,,,,,,,,10,Ontime,long,k,1,2.0677,3,1,13,3,1,,,,,
,0.71,,,,,,,,,f,blue,5ecc5a663823de80ecbe966a,2021-09-27_18h15.40.094,forced_choiceRT_color,2021.2.3,Win32,59.98440405,,,,,,,,10,Ontime,long,f,1,1.9869,3,2,14,1,1,,,,,
,1.12,,,,,,,,,d,orange,5ecc5a663823de80ecbe966a,2021-09-27_18h15.40.094,forced_choiceRT_color,2021.2.3,Win32,59.98440405,,,,,,,,10,Fast,long,d,1,1.8045,3,3,15,0,1,,,,,
,0.88,,,,,,,,,k,purple,5ecc5a663823de80ecbe966a,2021-09-27_18h15.40.094,forced_choiceRT_color,2021.2.3,Win32,59.98440405,,,,,,,,10,Ontime,long,k,1,2.0048,4,0,16,3,1,,,,,
,1.05,,,,,,,,,f,blue,5ecc5a663823de80ecbe966a,2021-09-27_18h15.40.094,forced_choiceRT_color,2021.2.3,Win32,59.98440405,,,,,,,,10,Ontime,long,f,1,1.9548,4,1,17,1,1,,,,,
,1.17,,,,,,,,,j,red,5ecc5a663823de80ecbe966a,2021-09-27_18h15.40.094,forced_choiceRT_color,2021.2.3,Win32,59.98440405,,,,,,,,10,Ontime,long,j,1,1.9351,4,2,18,2,1,,,,,
,0.54,,,,,,,,,j,red,5ecc5a663823de80ecbe966a,2021-09-27_18h15.40.094,forced_choiceRT_color,2021.2.3,Win32,59.98440405,,,,,,,,10,Ontime,long,j,1,1.9174,4,3,19,2,1,,,,,
,1.67,,,,,,,,,j,red,5ecc5a663823de80ecbe966a,2021-09-27_18h15.40.094,forced_choiceRT_color,2021.2.3,Win32,59.98440405,,,,,,,,10,Slow,long,j,1,2.2118,5,0,20,2,1,,,,,
,1.84,,,,,,,,,f,blue,5ecc5a663823de80ecbe966a,2021-09-27_18h15.40.094,forced_choiceRT_color,2021.2.3,Win32,59.98440405,,,,,,,,10,Slow,long,j,0,2.2351,5,1,21,1,1,,,,,
,0.41,,,,,,,,,k,purple,5ecc5a663823de80ecbe966a,2021-09-27_18h15.40.094,forced_choiceRT_color,2021.2.3,Win32,59.98440405,,,,,,,,10,Ontime,long,k,1,2.0042,5,2,22,3,1,,,,,
,0.45,,,,,,,,,f,blue,5ecc5a663823de80ecbe966a,2021-09-27_18h15.40.094,forced_choiceRT_color,2021.2.3,Win32,59.98440405,,,,,,,,10,Ontime,long,f,1,2.0841,5,3,23,1,1,,,,,
,0.24,,,,,,,,,k,purple,5ecc5a663823de80ecbe966a,2021-09-27_18h15.40.094,forced_choiceRT_color,2021.2.3,Win32,59.98440405,,,,,,,,10,Ontime,long,k,1,2.0046,6,0,24,3,1,,,,,
,1.38,,,,,,,,,d,orange,5ecc5a663823de80ecbe966a,2021-09-27_18h15.40.094,forced_choiceRT_color,2021.2.3,Win32,59.98440405,,,,,,,,10,Ontime,long,d,1,2.0536,6,1,25,0,1,,,,,
,0.5,,,,,,,,,k,purple,5ecc5a663823de80ecbe966a,2021-09-27_18h15.40.094,forced_choiceRT_color,2021.2.3,Win32,59.98440405,,,,,,,,10,Ontime,long,k,1,1.9673,6,2,26,3,1,,,,,
,0.68,,,,,,,,,f,blue,5ecc5a663823de80ecbe966a,2021-09-27_18h15.40.094,forced_choiceRT_color,2021.2.3,Win32,59.98440405,,,,,,,,10,Fast,long,f,1,1.8777,6,3,27,1,1,,,,,
,0.96,,,,,,,,,d,orange,5ecc5a663823de80ecbe966a,2021-09-27_18h15.40.094,forced_choiceRT_color,2021.2.3,Win32,59.98440405,,,,,,,,10,Ontime,long,d,1,2.0382,7,0,28,0,1,,,,,
,1.12,,,,,,,,,j,red,5ecc5a663823de80ecbe966a,2021-09-27_18h15.40.094,forced_choiceRT_color,2021.2.3,Win32,59.98440405,,,,,,,,10,Ontime,long,j,1,1.9838,7,1,29,2,1,,,,,
,0.27,,,,,,,,,j,red,5ecc5a663823de80ecbe966a,2021-09-27_18h15.40.094,forced_choiceRT_color,2021.2.3,Win32,59.98440405,,,,,,,,10,Ontime,long,j,1,1.9291,7,2,30,2,1,,,,,
,0.09,,,,,,,,,j,red,5ecc5a663823de80ecbe966a,2021-09-27_18h15.40.094,forced_choiceRT_color,2021.2.3,Win32,59.98440405,,,,,,,,10,Ontime,long,j,1,1.9841,7,3,31,2,1,,,,,
,0.39,,,,,,,,,k,purple,5ecc5a663823de80ecbe966a,2021-09-27_18h15.40.094,forced_choiceRT_color,2021.2.3,Win32,59.98440405,,,,,,,,10,Ontime,long,k,1,1.9656,8,0,32,3,1,,,,,
,1.83,,,,,,,,,k,purple,5ecc5a663823de80ecbe966a,2021-09-27_18h15.40.094,forced_choiceRT_color,2021.2.3,Win32,59.98440405,,,,,,,,10,Slow,long,k,1,2.2548,8,1,33,3,1,,,,,
,0.96,,,,,,,,,j,red,5ecc5a663823de80ecbe966a,2021-09-27_18h15.40.094,forced_choiceRT_color,2021.2.3,Win32,59.98440405,,,,,,,,10,Ontime,long,j,1,1.9378,8,2,34,2,1,,,,,
,1.47,,,,,,,,,j,red,5ecc5a663823de80ecbe966a,2021-09-27_18h15.40.094,forced_choiceRT_color,2021.2.3,Win32,59.98440405,,,,,,,,10,Fast,long,j,1,1.851,8,3,35,2,1,,,,,
,0.31,,,,,,,,,f,blue,5ecc5a663823de80ecbe966a,2021-09-27_18h15.40.094,forced_choiceRT_color,2021.2.3,Win32,59.98440405,,,,,,,,10,Ontime,long,f,1,2.0215,9,0,36,1,1,,,,,
,1.4,,,,,,,,,j,red,5ecc5a663823de80ecbe966a,2021-09-27_18h15.40.094,forced_choiceRT_color,2021.2.3,Win32,59.98440405,,,,,,,,10,Slow,long,j,1,2.1625,9,1,37,2,1,,,,,
,1.34,,,,,,,,,f,blue,5ecc5a663823de80ecbe966a,2021-09-27_18h15.40.094,forced_choiceRT_color,2021.2.3,Win32,59.98440405,,,,,,,,10,Ontime,long,f,1,1.988,9,2,38,1,1,,,,,
,0.42,,,,,,,,,d,orange,5ecc5a663823de80ecbe966a,2021-09-27_18h15.40.094,forced_choiceRT_color,2021.2.3,Win32,59.98440405,,,,,,,,10,Ontime,long,d,1,1.9612,9,3,39,0,1,,,,,
,,,,,,,,,,,,5ecc5a663823de80ecbe966a,2021-09-27_18h15.40.094,forced_choiceRT_color,2021.2.3,Win32,59.98440405,,,,,,,,,,,,,,,,,,,9,0,9,0,1
