target_onset,trial_resp_sp.keys,trial_resp_sp.corr,trial_resp_sp.rt,trials_train_loop.thisRepN,trials_train_loop.thisTrialN,trials_train_loop.thisN,trials_train_loop.thisIndex,trials_train_loop.ran,correct_key,color,participant,date,expName,psychopyVersion,OS,frameRate,trial_resp_timing.keys,trial_resp_timing.rt,trials_train_timing.thisRepN,trials_train_timing.thisTrialN,trials_train_timing.thisN,trials_train_timing.thisIndex,trials_train_timing.ran,block_id,ontime,feedback_cond,forcedRT_resp.keys,forcedRT_resp.corr,forcedRT_resp.rt,trials.thisRepN,trials.thisTrialN,trials.thisN,trials.thisIndex,trials.ran,blocks.thisRepN,blocks.thisTrialN,blocks.thisN,blocks.thisIndex,blocks.ran
0,d,1,1.9154,0,0,0,0,1,d,orange,5ede432f75bfd1073c1501d8,2021-09-27_17h27.51.351,forced_choiceRT_color,2021.2.3,Win32,71.94762213,,,,,,,,,,,,,,,,,,,,,,,
0,k,1,3.5973,0,1,1,3,1,k,purple,5ede432f75bfd1073c1501d8,2021-09-27_17h27.51.351,forced_choiceRT_color,2021.2.3,Win32,71.94762213,,,,,,,,,,,,,,,,,,,,,,,
0,k,1,1.4653,0,2,2,3,1,k,purple,5ede432f75bfd1073c1501d8,2021-09-27_17h27.51.351,forced_choiceRT_color,2021.2.3,Win32,71.94762213,,,,,,,,,,,,,,,,,,,,,,,
0,f,1,0.9213,0,3,3,1,1,f,blue,5ede432f75bfd1073c1501d8,2021-09-27_17h27.51.351,forced_choiceRT_color,2021.2.3,Win32,71.94762213,,,,,,,,,,,,,,,,,,,,,,,
0,j,1,1.0399,1,0,4,2,1,j,red,5ede432f75bfd1073c1501d8,2021-09-27_17h27.51.351,forced_choiceRT_color,2021.2.3,Win32,71.94762213,,,,,,,,,,,,,,,,,,,,,,,
0,j,1,0.5275,1,1,5,2,1,j,red,5ede432f75bfd1073c1501d8,2021-09-27_17h27.51.351,forced_choiceRT_color,2021.2.3,Win32,71.94762213,,,,,,,,,,,,,,,,,,,,,,,
0,d,1,0.6755,1,2,6,0,1,d,orange,5ede432f75bfd1073c1501d8,2021-09-27_17h27.51.351,forced_choiceRT_color,2021.2.3,Win32,71.94762213,,,,,,,,,,,,,,,,,,,,,,,
0,k,1,0.6112,1,3,7,3,1,k,purple,5ede432f75bfd1073c1501d8,2021-09-27_17h27.51.351,forced_choiceRT_color,2021.2.3,Win32,71.94762213,,,,,,,,,,,,,,,,,,,,,,,
0,d,1,0.6019,2,0,8,0,1,d,orange,5ede432f75bfd1073c1501d8,2021-09-27_17h27.51.351,forced_choiceRT_color,2021.2.3,Win32,71.94762213,,,,,,,,,,,,,,,,,,,,,,,
0,f,1,0.7173,2,1,9,1,1,f,blue,5ede432f75bfd1073c1501d8,2021-09-27_17h27.51.351,forced_choiceRT_color,2021.2.3,Win32,71.94762213,,,,,,,,,,,,,,,,,,,,,,,
0,f,1,1.0012,2,2,10,1,1,f,blue,5ede432f75bfd1073c1501d8,2021-09-27_17h27.51.351,forced_choiceRT_color,2021.2.3,Win32,71.94762213,,,,,,,,,,,,,,,,,,,,,,,
0,d,1,0.6653,2,3,11,0,1,d,orange,5ede432f75bfd1073c1501d8,2021-09-27_17h27.51.351,forced_choiceRT_color,2021.2.3,Win32,71.94762213,,,,,,,,,,,,,,,,,,,,,,,
0,k,1,0.6201,3,0,12,3,1,k,purple,5ede432f75bfd1073c1501d8,2021-09-27_17h27.51.351,forced_choiceRT_color,2021.2.3,Win32,71.94762213,,,,,,,,,,,,,,,,,,,,,,,
0,j,1,0.7417,3,1,13,2,1,j,red,5ede432f75bfd1073c1501d8,2021-09-27_17h27.51.351,forced_choiceRT_color,2021.2.3,Win32,71.94762213,,,,,,,,,,,,,,,,,,,,,,,
0,d,1,0.6389,3,2,14,0,1,d,orange,5ede432f75bfd1073c1501d8,2021-09-27_17h27.51.351,forced_choiceRT_color,2021.2.3,Win32,71.94762213,,,,,,,,,,,,,,,,,,,,,,,
0,f,1,0.5976,3,3,15,1,1,f,blue,5ede432f75bfd1073c1501d8,2021-09-27_17h27.51.351,forced_choiceRT_color,2021.2.3,Win32,71.94762213,,,,,,,,,,,,,,,,,,,,,,,
0,f,1,0.572,4,0,16,1,1,f,blue,5ede432f75bfd1073c1501d8,2021-09-27_17h27.51.351,forced_choiceRT_color,2021.2.3,Win32,71.94762213,,,,,,,,,,,,,,,,,,,,,,,
0,k,1,0.6414,4,1,17,3,1,k,purple,5ede432f75bfd1073c1501d8,2021-09-27_17h27.51.351,forced_choiceRT_color,2021.2.3,Win32,71.94762213,,,,,,,,,,,,,,,,,,,,,,,
0,f,1,0.8476,4,2,18,1,1,f,blue,5ede432f75bfd1073c1501d8,2021-09-27_17h27.51.351,forced_choiceRT_color,2021.2.3,Win32,71.94762213,,,,,,,,,,,,,,,,,,,,,,,
0,j,1,0.8192,4,3,19,2,1,j,red,5ede432f75bfd1073c1501d8,2021-09-27_17h27.51.351,forced_choiceRT_color,2021.2.3,Win32,71.94762213,,,,,,,,,,,,,,,,,,,,,,,
0,d,1,0.6452,5,0,20,0,1,d,orange,5ede432f75bfd1073c1501d8,2021-09-27_17h27.51.351,forced_choiceRT_color,2021.2.3,Win32,71.94762213,,,,,,,,,,,,,,,,,,,,,,,
0,j,1,0.6955,5,1,21,2,1,j,red,5ede432f75bfd1073c1501d8,2021-09-27_17h27.51.351,forced_choiceRT_color,2021.2.3,Win32,71.94762213,,,,,,,,,,,,,,,,,,,,,,,
0,k,1,0.6737,5,2,22,3,1,k,purple,5ede432f75bfd1073c1501d8,2021-09-27_17h27.51.351,forced_choiceRT_color,2021.2.3,Win32,71.94762213,,,,,,,,,,,,,,,,,,,,,,,
0,d,1,0.6088,5,3,23,0,1,d,orange,5ede432f75bfd1073c1501d8,2021-09-27_17h27.51.351,forced_choiceRT_color,2021.2.3,Win32,71.94762213,,,,,,,,,,,,,,,,,,,,,,,
0,f,1,0.6881,6,0,24,1,1,f,blue,5ede432f75bfd1073c1501d8,2021-09-27_17h27.51.351,forced_choiceRT_color,2021.2.3,Win32,71.94762213,,,,,,,,,,,,,,,,,,,,,,,
0,k,1,0.6433,6,1,25,3,1,k,purple,5ede432f75bfd1073c1501d8,2021-09-27_17h27.51.351,forced_choiceRT_color,2021.2.3,Win32,71.94762213,,,,,,,,,,,,,,,,,,,,,,,
0,k,1,0.4945,6,2,26,3,1,k,purple,5ede432f75bfd1073c1501d8,2021-09-27_17h27.51.351,forced_choiceRT_color,2021.2.3,Win32,71.94762213,,,,,,,,,,,,,,,,,,,,,,,
0,d,1,0.6463,6,3,27,0,1,d,orange,5ede432f75bfd1073c1501d8,2021-09-27_17h27.51.351,forced_choiceRT_color,2021.2.3,Win32,71.94762213,,,,,,,,,,,,,,,,,,,,,,,
0,k,1,0.6684,7,0,28,3,1,k,purple,5ede432f75bfd1073c1501d8,2021-09-27_17h27.51.351,forced_choiceRT_color,2021.2.3,Win32,71.94762213,,,,,,,,,,,,,,,,,,,,,,,
0,k,1,0.5459,7,1,29,3,1,k,purple,5ede432f75bfd1073c1501d8,2021-09-27_17h27.51.351,forced_choiceRT_color,2021.2.3,Win32,71.94762213,,,,,,,,,,,,,,,,,,,,,,,
0,j,1,0.7422,7,2,30,2,1,j,red,5ede432f75bfd1073c1501d8,2021-09-27_17h27.51.351,forced_choiceRT_color,2021.2.3,Win32,71.94762213,,,,,,,,,,,,,,,,,,,,,,,
0,f,1,0.7182,7,3,31,1,1,f,blue,5ede432f75bfd1073c1501d8,2021-09-27_17h27.51.351,forced_choiceRT_color,2021.2.3,Win32,71.94762213,,,,,,,,,,,,,,,,,,,,,,,
0,k,1,0.6005,8,0,32,3,1,k,purple,5ede432f75bfd1073c1501d8,2021-09-27_17h27.51.351,forced_choiceRT_color,2021.2.3,Win32,71.94762213,,,,,,,,,,,,,,,,,,,,,,,
0,d,1,0.6056,8,1,33,0,1,d,orange,5ede432f75bfd1073c1501d8,2021-09-27_17h27.51.351,forced_choiceRT_color,2021.2.3,Win32,71.94762213,,,,,,,,,,,,,,,,,,,,,,,
0,d,1,0.5243,8,2,34,0,1,d,orange,5ede432f75bfd1073c1501d8,2021-09-27_17h27.51.351,forced_choiceRT_color,2021.2.3,Win32,71.94762213,,,,,,,,,,,,,,,,,,,,,,,
0,f,1,0.7486,8,3,35,1,1,f,blue,5ede432f75bfd1073c1501d8,2021-09-27_17h27.51.351,forced_choiceRT_color,2021.2.3,Win32,71.94762213,,,,,,,,,,,,,,,,,,,,,,,
0,f,1,0.4634,9,0,36,1,1,f,blue,5ede432f75bfd1073c1501d8,2021-09-27_17h27.51.351,forced_choiceRT_color,2021.2.3,Win32,71.94762213,,,,,,,,,,,,,,,,,,,,,,,
0,j,1,0.6075,9,1,37,2,1,j,red,5ede432f75bfd1073c1501d8,2021-09-27_17h27.51.351,forced_choiceRT_color,2021.2.3,Win32,71.94762213,,,,,,,,,,,,,,,,,,,,,,,
0,f,1,0.6433,9,2,38,1,1,f,blue,5ede432f75bfd1073c1501d8,2021-09-27_17h27.51.351,forced_choiceRT_color,2021.2.3,Win32,71.94762213,,,,,,,,,,,,,,,,,,,,,,,
0,k,1,0.5962,9,3,39,3,1,k,purple,5ede432f75bfd1073c1501d8,2021-09-27_17h27.51.351,forced_choiceRT_color,2021.2.3,Win32,71.94762213,,,,,,,,,,,,,,,,,,,,,,,
0,j,1,0.6973,10,0,40,2,1,j,red,5ede432f75bfd1073c1501d8,2021-09-27_17h27.51.351,forced_choiceRT_color,2021.2.3,Win32,71.94762213,,,,,,,,,,,,,,,,,,,,,,,
0,k,1,0.6595,10,1,41,3,1,k,purple,5ede432f75bfd1073c1501d8,2021-09-27_17h27.51.351,forced_choiceRT_color,2021.2.3,Win32,71.94762213,,,,,,,,,,,,,,,,,,,,,,,
0,j,1,0.6533,10,2,42,2,1,j,red,5ede432f75bfd1073c1501d8,2021-09-27_17h27.51.351,forced_choiceRT_color,2021.2.3,Win32,71.94762213,,,,,,,,,,,,,,,,,,,,,,,
0,j,1,0.6933,10,3,43,2,1,j,red,5ede432f75bfd1073c1501d8,2021-09-27_17h27.51.351,forced_choiceRT_color,2021.2.3,Win32,71.94762213,,,,,,,,,,,,,,,,,,,,,,,
0,d,1,0.6257,11,0,44,0,1,d,orange,5ede432f75bfd1073c1501d8,2021-09-27_17h27.51.351,forced_choiceRT_color,2021.2.3,Win32,71.94762213,,,,,,,,,,,,,,,,,,,,,,,
0,j,1,0.6665,11,1,45,2,1,j,red,5ede432f75bfd1073c1501d8,2021-09-27_17h27.51.351,forced_choiceRT_color,2021.2.3,Win32,71.94762213,,,,,,,,,,,,,,,,,,,,,,,
0,d,1,0.6114,11,2,46,0,1,d,orange,5ede432f75bfd1073c1501d8,2021-09-27_17h27.51.351,forced_choiceRT_color,2021.2.3,Win32,71.94762213,,,,,,,,,,,,,,,,,,,,,,,
0,j,1,0.6046,11,3,47,2,1,j,red,5ede432f75bfd1073c1501d8,2021-09-27_17h27.51.351,forced_choiceRT_color,2021.2.3,Win32,71.94762213,,,,,,,,,,,,,,,,,,,,,,,
0,j,1,0.4606,12,0,48,2,1,j,red,5ede432f75bfd1073c1501d8,2021-09-27_17h27.51.351,forced_choiceRT_color,2021.2.3,Win32,71.94762213,,,,,,,,,,,,,,,,,,,,,,,
0,d,1,0.7172,12,1,49,0,1,d,orange,5ede432f75bfd1073c1501d8,2021-09-27_17h27.51.351,forced_choiceRT_color,2021.2.3,Win32,71.94762213,,,,,,,,,,,,,,,,,,,,,,,
0,j,1,0.6434,12,2,50,2,1,j,red,5ede432f75bfd1073c1501d8,2021-09-27_17h27.51.351,forced_choiceRT_color,2021.2.3,Win32,71.94762213,,,,,,,,,,,,,,,,,,,,,,,
0,f,1,0.6958,12,3,51,1,1,f,blue,5ede432f75bfd1073c1501d8,2021-09-27_17h27.51.351,forced_choiceRT_color,2021.2.3,Win32,71.94762213,,,,,,,,,,,,,,,,,,,,,,,
0,d,1,0.5854,13,0,52,0,1,d,orange,5ede432f75bfd1073c1501d8,2021-09-27_17h27.51.351,forced_choiceRT_color,2021.2.3,Win32,71.94762213,,,,,,,,,,,,,,,,,,,,,,,
0,k,1,1.1192,13,1,53,3,1,k,purple,5ede432f75bfd1073c1501d8,2021-09-27_17h27.51.351,forced_choiceRT_color,2021.2.3,Win32,71.94762213,,,,,,,,,,,,,,,,,,,,,,,
0,d,1,0.6462,13,2,54,0,1,d,orange,5ede432f75bfd1073c1501d8,2021-09-27_17h27.51.351,forced_choiceRT_color,2021.2.3,Win32,71.94762213,,,,,,,,,,,,,,,,,,,,,,,
0,f,1,0.685,13,3,55,1,1,f,blue,5ede432f75bfd1073c1501d8,2021-09-27_17h27.51.351,forced_choiceRT_color,2021.2.3,Win32,71.94762213,,,,,,,,,,,,,,,,,,,,,,,
0,j,1,0.5978,14,0,56,2,1,j,red,5ede432f75bfd1073c1501d8,2021-09-27_17h27.51.351,forced_choiceRT_color,2021.2.3,Win32,71.94762213,,,,,,,,,,,,,,,,,,,,,,,
0,f,1,0.6099,14,1,57,1,1,f,blue,5ede432f75bfd1073c1501d8,2021-09-27_17h27.51.351,forced_choiceRT_color,2021.2.3,Win32,71.94762213,,,,,,,,,,,,,,,,,,,,,,,
0,k,1,0.7003,14,2,58,3,1,k,purple,5ede432f75bfd1073c1501d8,2021-09-27_17h27.51.351,forced_choiceRT_color,2021.2.3,Win32,71.94762213,,,,,,,,,,,,,,,,,,,,,,,
0,f,1,0.871,14,3,59,1,1,f,blue,5ede432f75bfd1073c1501d8,2021-09-27_17h27.51.351,forced_choiceRT_color,2021.2.3,Win32,71.94762213,,,,,,,,,,,,,,,,,,,,,,,
,,,,,,,,,,,5ede432f75bfd1073c1501d8,2021-09-27_17h27.51.351,forced_choiceRT_color,2021.2.3,Win32,71.94762213,f,2.3176,0,0,0,0,1,,,,,,,,,,,,,,,,
,,,,,,,,,,,5ede432f75bfd1073c1501d8,2021-09-27_17h27.51.351,forced_choiceRT_color,2021.2.3,Win32,71.94762213,j,2.1634,1,0,1,0,1,,,,,,,,,,,,,,,,
,,,,,,,,,,,5ede432f75bfd1073c1501d8,2021-09-27_17h27.51.351,forced_choiceRT_color,2021.2.3,Win32,71.94762213,j,2.1145,2,0,2,0,1,,,,,,,,,,,,,,,,
,,,,,,,,,,,5ede432f75bfd1073c1501d8,2021-09-27_17h27.51.351,forced_choiceRT_color,2021.2.3,Win32,71.94762213,k,2.2892,3,0,3,0,1,,,,,,,,,,,,,,,,
,,,,,,,,,,,5ede432f75bfd1073c1501d8,2021-09-27_17h27.51.351,forced_choiceRT_color,2021.2.3,Win32,71.94762213,f,2.1083,4,0,4,0,1,,,,,,,,,,,,,,,,
,,,,,,,,,,,5ede432f75bfd1073c1501d8,2021-09-27_17h27.51.351,forced_choiceRT_color,2021.2.3,Win32,71.94762213,d,2.2404,5,0,5,0,1,,,,,,,,,,,,,,,,
,,,,,,,,,,,5ede432f75bfd1073c1501d8,2021-09-27_17h27.51.351,forced_choiceRT_color,2021.2.3,Win32,71.94762213,j,2.0705,6,0,6,0,1,,,,,,,,,,,,,,,,
,,,,,,,,,,,5ede432f75bfd1073c1501d8,2021-09-27_17h27.51.351,forced_choiceRT_color,2021.2.3,Win32,71.94762213,j,1.8035,7,0,7,0,1,,,,,,,,,,,,,,,,
,,,,,,,,,,,5ede432f75bfd1073c1501d8,2021-09-27_17h27.51.351,forced_choiceRT_color,2021.2.3,Win32,71.94762213,j,2.1068,8,0,8,0,1,,,,,,,,,,,,,,,,
,,,,,,,,,,,5ede432f75bfd1073c1501d8,2021-09-27_17h27.51.351,forced_choiceRT_color,2021.2.3,Win32,71.94762213,j,2.1306,9,0,9,0,1,,,,,,,,,,,,,,,,
,,,,,,,,,,,5ede432f75bfd1073c1501d8,2021-09-27_17h27.51.351,forced_choiceRT_color,2021.2.3,Win32,71.94762213,j,2.0288,10,0,10,0,1,,,,,,,,,,,,,,,,
,,,,,,,,,,,5ede432f75bfd1073c1501d8,2021-09-27_17h27.51.351,forced_choiceRT_color,2021.2.3,Win32,71.94762213,j,2.1157,11,0,11,0,1,,,,,,,,,,,,,,,,
,,,,,,,,,,,5ede432f75bfd1073c1501d8,2021-09-27_17h27.51.351,forced_choiceRT_color,2021.2.3,Win32,71.94762213,j,1.9943,12,0,12,0,1,,,,,,,,,,,,,,,,
,,,,,,,,,,,5ede432f75bfd1073c1501d8,2021-09-27_17h27.51.351,forced_choiceRT_color,2021.2.3,Win32,71.94762213,j,1.958,13,0,13,0,1,,,,,,,,,,,,,,,,
,,,,,,,,,,,5ede432f75bfd1073c1501d8,2021-09-27_17h27.51.351,forced_choiceRT_color,2021.2.3,Win32,71.94762213,j,2.1223,14,0,14,0,1,,,,,,,,,,,,,,,,
,,,,,,,,,,,5ede432f75bfd1073c1501d8,2021-09-27_17h27.51.351,forced_choiceRT_color,2021.2.3,Win32,71.94762213,j,1.8777,15,0,15,0,1,,,,,,,,,,,,,,,,
,,,,,,,,,,,5ede432f75bfd1073c1501d8,2021-09-27_17h27.51.351,forced_choiceRT_color,2021.2.3,Win32,71.94762213,j,1.7913,16,0,16,0,1,,,,,,,,,,,,,,,,
,,,,,,,,,,,5ede432f75bfd1073c1501d8,2021-09-27_17h27.51.351,forced_choiceRT_color,2021.2.3,Win32,71.94762213,j,1.9918,17,0,17,0,1,,,,,,,,,,,,,,,,
,,,,,,,,,,,5ede432f75bfd1073c1501d8,2021-09-27_17h27.51.351,forced_choiceRT_color,2021.2.3,Win32,71.94762213,j,1.9675,18,0,18,0,1,,,,,,,,,,,,,,,,
,,,,,,,,,,,5ede432f75bfd1073c1501d8,2021-09-27_17h27.51.351,forced_choiceRT_color,2021.2.3,Win32,71.94762213,j,1.98,19,0,19,0,1,,,,,,,,,,,,,,,,
0.88,,,,,,,,,k,purple,5ede432f75bfd1073c1501d8,2021-09-27_17h27.51.351,forced_choiceRT_color,2021.2.3,Win32,71.94762213,,,,,,,,1,Slow,long,j,0,2.2458,0,0,0,3,1,,,,,
0.53,,,,,,,,,k,purple,5ede432f75bfd1073c1501d8,2021-09-27_17h27.51.351,forced_choiceRT_color,2021.2.3,Win32,71.94762213,,,,,,,,1,Ontime,long,k,1,2.0137,0,1,1,3,1,,,,,
1.4,,,,,,,,,k,purple,5ede432f75bfd1073c1501d8,2021-09-27_17h27.51.351,forced_choiceRT_color,2021.2.3,Win32,71.94762213,,,,,,,,1,Ontime,long,k,1,1.9838,0,2,2,3,1,,,,,
1.1,,,,,,,,,f,blue,5ede432f75bfd1073c1501d8,2021-09-27_17h27.51.351,forced_choiceRT_color,2021.2.3,Win32,71.94762213,,,,,,,,1,Ontime,long,d,0,2.0915,0,3,3,1,1,,,,,
0,,,,,,,,,j,red,5ede432f75bfd1073c1501d8,2021-09-27_17h27.51.351,forced_choiceRT_color,2021.2.3,Win32,71.94762213,,,,,,,,1,Ontime,long,j,1,2.0508,1,0,4,2,1,,,,,
1.04,,,,,,,,,f,blue,5ede432f75bfd1073c1501d8,2021-09-27_17h27.51.351,forced_choiceRT_color,2021.2.3,Win32,71.94762213,,,,,,,,1,Slow,long,d,0,2.1597,1,1,5,1,1,,,,,
1.03,,,,,,,,,k,purple,5ede432f75bfd1073c1501d8,2021-09-27_17h27.51.351,forced_choiceRT_color,2021.2.3,Win32,71.94762213,,,,,,,,1,Slow,long,k,1,2.2589,1,2,6,3,1,,,,,
1.62,,,,,,,,,k,purple,5ede432f75bfd1073c1501d8,2021-09-27_17h27.51.351,forced_choiceRT_color,2021.2.3,Win32,71.94762213,,,,,,,,1,Slow,long,k,1,2.3278,1,3,7,3,1,,,,,
1.14,,,,,,,,,d,orange,5ede432f75bfd1073c1501d8,2021-09-27_17h27.51.351,forced_choiceRT_color,2021.2.3,Win32,71.94762213,,,,,,,,1,Slow,long,j,0,27.9763,2,0,8,0,1,,,,,
1.9,,,,,,,,,j,red,5ede432f75bfd1073c1501d8,2021-09-27_17h27.51.351,forced_choiceRT_color,2021.2.3,Win32,71.94762213,,,,,,,,1,Slow,long,j,1,2.9211,2,1,9,2,1,,,,,
0.52,,,,,,,,,j,red,5ede432f75bfd1073c1501d8,2021-09-27_17h27.51.351,forced_choiceRT_color,2021.2.3,Win32,71.94762213,,,,,,,,1,Fast,long,j,1,1.7924,2,2,10,2,1,,,,,
0.81,,,,,,,,,d,orange,5ede432f75bfd1073c1501d8,2021-09-27_17h27.51.351,forced_choiceRT_color,2021.2.3,Win32,71.94762213,,,,,,,,1,Slow,long,d,1,10.6475,2,3,11,0,1,,,,,
0.63,,,,,,,,,k,purple,5ede432f75bfd1073c1501d8,2021-09-27_17h27.51.351,forced_choiceRT_color,2021.2.3,Win32,71.94762213,,,,,,,,1,Slow,long,k,1,2.2021,3,0,12,3,1,,,,,
1.64,,,,,,,,,j,red,5ede432f75bfd1073c1501d8,2021-09-27_17h27.51.351,forced_choiceRT_color,2021.2.3,Win32,71.94762213,,,,,,,,1,Slow,long,j,1,2.3504,3,1,13,2,1,,,,,
1.51,,,,,,,,,k,purple,5ede432f75bfd1073c1501d8,2021-09-27_17h27.51.351,forced_choiceRT_color,2021.2.3,Win32,71.94762213,,,,,,,,1,Slow,long,k,1,2.1545,3,2,14,3,1,,,,,
1.61,,,,,,,,,f,blue,5ede432f75bfd1073c1501d8,2021-09-27_17h27.51.351,forced_choiceRT_color,2021.2.3,Win32,71.94762213,,,,,,,,1,Slow,long,d,0,2.2747,3,3,15,1,1,,,,,
0.08,,,,,,,,,d,orange,5ede432f75bfd1073c1501d8,2021-09-27_17h27.51.351,forced_choiceRT_color,2021.2.3,Win32,71.94762213,,,,,,,,1,Slow,long,j,0,10.7309,4,0,16,0,1,,,,,
0.25,,,,,,,,,f,blue,5ede432f75bfd1073c1501d8,2021-09-27_17h27.51.351,forced_choiceRT_color,2021.2.3,Win32,71.94762213,,,,,,,,1,Fast,long,d,0,1.8941,4,1,17,1,1,,,,,
1.05,,,,,,,,,d,orange,5ede432f75bfd1073c1501d8,2021-09-27_17h27.51.351,forced_choiceRT_color,2021.2.3,Win32,71.94762213,,,,,,,,1,Slow,long,d,1,10.3176,4,2,18,0,1,,,,,
1.78,,,,,,,,,f,blue,5ede432f75bfd1073c1501d8,2021-09-27_17h27.51.351,forced_choiceRT_color,2021.2.3,Win32,71.94762213,,,,,,,,1,Slow,long,j,0,2.3612,4,3,19,1,1,,,,,
0.55,,,,,,,,,j,red,5ede432f75bfd1073c1501d8,2021-09-27_17h27.51.351,forced_choiceRT_color,2021.2.3,Win32,71.94762213,,,,,,,,1,Ontime,long,j,1,2.0353,5,0,20,2,1,,,,,
0.56,,,,,,,,,d,orange,5ede432f75bfd1073c1501d8,2021-09-27_17h27.51.351,forced_choiceRT_color,2021.2.3,Win32,71.94762213,,,,,,,,1,Slow,long,d,1,11.1708,5,1,21,0,1,,,,,
1.21,,,,,,,,,d,orange,5ede432f75bfd1073c1501d8,2021-09-27_17h27.51.351,forced_choiceRT_color,2021.2.3,Win32,71.94762213,,,,,,,,1,Slow,long,d,1,22.9393,5,2,22,0,1,,,,,
1.55,,,,,,,,,d,orange,5ede432f75bfd1073c1501d8,2021-09-27_17h27.51.351,forced_choiceRT_color,2021.2.3,Win32,71.94762213,,,,,,,,1,Slow,long,d,1,2.2323,5,3,23,0,1,,,,,
1.3,,,,,,,,,j,red,5ede432f75bfd1073c1501d8,2021-09-27_17h27.51.351,forced_choiceRT_color,2021.2.3,Win32,71.94762213,,,,,,,,1,Ontime,long,j,1,2.0188,6,0,24,2,1,,,,,
0.11,,,,,,,,,j,red,5ede432f75bfd1073c1501d8,2021-09-27_17h27.51.351,forced_choiceRT_color,2021.2.3,Win32,71.94762213,,,,,,,,1,Ontime,long,j,1,2.0545,6,1,25,2,1,,,,,
0.47,,,,,,,,,f,blue,5ede432f75bfd1073c1501d8,2021-09-27_17h27.51.351,forced_choiceRT_color,2021.2.3,Win32,71.94762213,,,,,,,,1,Ontime,long,d,0,1.9833,6,2,26,1,1,,,,,
1.93,,,,,,,,,j,red,5ede432f75bfd1073c1501d8,2021-09-27_17h27.51.351,forced_choiceRT_color,2021.2.3,Win32,71.94762213,,,,,,,,1,Slow,long,d,0,2.4424,6,3,27,2,1,,,,,
0.55,,,,,,,,,f,blue,5ede432f75bfd1073c1501d8,2021-09-27_17h27.51.351,forced_choiceRT_color,2021.2.3,Win32,71.94762213,,,,,,,,1,Ontime,long,d,0,1.9668,7,0,28,1,1,,,,,
1.38,,,,,,,,,f,blue,5ede432f75bfd1073c1501d8,2021-09-27_17h27.51.351,forced_choiceRT_color,2021.2.3,Win32,71.94762213,,,,,,,,1,Slow,long,d,0,2.1556,7,1,29,1,1,,,,,
0.55,,,,,,,,,d,orange,5ede432f75bfd1073c1501d8,2021-09-27_17h27.51.351,forced_choiceRT_color,2021.2.3,Win32,71.94762213,,,,,,,,1,Slow,long,j,0,21.8397,7,2,30,0,1,,,,,
1.02,,,,,,,,,d,orange,5ede432f75bfd1073c1501d8,2021-09-27_17h27.51.351,forced_choiceRT_color,2021.2.3,Win32,71.94762213,,,,,,,,1,Slow,long,d,1,14.0978,7,3,31,0,1,,,,,
1.75,,,,,,,,,j,red,5ede432f75bfd1073c1501d8,2021-09-27_17h27.51.351,forced_choiceRT_color,2021.2.3,Win32,71.94762213,,,,,,,,1,Slow,long,j,1,2.3042,8,0,32,2,1,,,,,
1.68,,,,,,,,,f,blue,5ede432f75bfd1073c1501d8,2021-09-27_17h27.51.351,forced_choiceRT_color,2021.2.3,Win32,71.94762213,,,,,,,,1,Slow,long,d,0,2.3302,8,1,33,1,1,,,,,
0.85,,,,,,,,,k,purple,5ede432f75bfd1073c1501d8,2021-09-27_17h27.51.351,forced_choiceRT_color,2021.2.3,Win32,71.94762213,,,,,,,,1,Fast,long,k,1,1.7805,8,2,34,3,1,,,,,
1,,,,,,,,,d,orange,5ede432f75bfd1073c1501d8,2021-09-27_17h27.51.351,forced_choiceRT_color,2021.2.3,Win32,71.94762213,,,,,,,,1,Slow,long,d,1,10.684,8,3,35,0,1,,,,,
0.21,,,,,,,,,j,red,5ede432f75bfd1073c1501d8,2021-09-27_17h27.51.351,forced_choiceRT_color,2021.2.3,Win32,71.94762213,,,,,,,,1,Fast,long,j,1,1.7883,9,0,36,2,1,,,,,
1.81,,,,,,,,,k,purple,5ede432f75bfd1073c1501d8,2021-09-27_17h27.51.351,forced_choiceRT_color,2021.2.3,Win32,71.94762213,,,,,,,,1,Slow,long,k,1,2.308,9,1,37,3,1,,,,,
0.94,,,,,,,,,f,blue,5ede432f75bfd1073c1501d8,2021-09-27_17h27.51.351,forced_choiceRT_color,2021.2.3,Win32,71.94762213,,,,,,,,1,Ontime,long,d,0,2.0202,9,2,38,1,1,,,,,
1.71,,,,,,,,,k,purple,5ede432f75bfd1073c1501d8,2021-09-27_17h27.51.351,forced_choiceRT_color,2021.2.3,Win32,71.94762213,,,,,,,,1,Slow,long,j,0,2.4133,9,3,39,3,1,,,,,
,,,,,,,,,,,5ede432f75bfd1073c1501d8,2021-09-27_17h27.51.351,forced_choiceRT_color,2021.2.3,Win32,71.94762213,,,,,,,,,,,,,,,,,,,0,0,0,0,1
1.79,,,,,,,,,d,orange,5ede432f75bfd1073c1501d8,2021-09-27_17h27.51.351,forced_choiceRT_color,2021.2.3,Win32,71.94762213,,,,,,,,2,Slow,long,j,0,2.4269,0,0,0,0,1,,,,,
0.56,,,,,,,,,f,blue,5ede432f75bfd1073c1501d8,2021-09-27_17h27.51.351,forced_choiceRT_color,2021.2.3,Win32,71.94762213,,,,,,,,2,Fast,long,f,1,1.865,0,1,1,1,1,,,,,
0.71,,,,,,,,,j,red,5ede432f75bfd1073c1501d8,2021-09-27_17h27.51.351,forced_choiceRT_color,2021.2.3,Win32,71.94762213,,,,,,,,2,Slow,long,j,1,2.1588,0,2,2,2,1,,,,,
0.72,,,,,,,,,k,purple,5ede432f75bfd1073c1501d8,2021-09-27_17h27.51.351,forced_choiceRT_color,2021.2.3,Win32,71.94762213,,,,,,,,2,Ontime,long,k,1,1.9587,0,3,3,3,1,,,,,
1.68,,,,,,,,,f,blue,5ede432f75bfd1073c1501d8,2021-09-27_17h27.51.351,forced_choiceRT_color,2021.2.3,Win32,71.94762213,,,,,,,,2,Slow,long,f,1,2.1569,1,0,4,1,1,,,,,
1.16,,,,,,,,,j,red,5ede432f75bfd1073c1501d8,2021-09-27_17h27.51.351,forced_choiceRT_color,2021.2.3,Win32,71.94762213,,,,,,,,2,Ontime,long,j,1,1.9044,1,1,5,2,1,,,,,
1.24,,,,,,,,,k,purple,5ede432f75bfd1073c1501d8,2021-09-27_17h27.51.351,forced_choiceRT_color,2021.2.3,Win32,71.94762213,,,,,,,,2,Ontime,long,k,1,1.966,1,2,6,3,1,,,,,
1.14,,,,,,,,,j,red,5ede432f75bfd1073c1501d8,2021-09-27_17h27.51.351,forced_choiceRT_color,2021.2.3,Win32,71.94762213,,,,,,,,2,Fast,long,j,1,1.8907,1,3,7,2,1,,,,,
1.28,,,,,,,,,d,orange,5ede432f75bfd1073c1501d8,2021-09-27_17h27.51.351,forced_choiceRT_color,2021.2.3,Win32,71.94762213,,,,,,,,2,Slow,long,d,1,2.1018,2,0,8,0,1,,,,,
0.56,,,,,,,,,k,purple,5ede432f75bfd1073c1501d8,2021-09-27_17h27.51.351,forced_choiceRT_color,2021.2.3,Win32,71.94762213,,,,,,,,2,Ontime,long,k,1,1.9316,2,1,9,3,1,,,,,
1.85,,,,,,,,,f,blue,5ede432f75bfd1073c1501d8,2021-09-27_17h27.51.351,forced_choiceRT_color,2021.2.3,Win32,71.94762213,,,,,,,,2,Slow,long,j,0,2.267,2,2,10,1,1,,,,,
1.96,,,,,,,,,j,red,5ede432f75bfd1073c1501d8,2021-09-27_17h27.51.351,forced_choiceRT_color,2021.2.3,Win32,71.94762213,,,,,,,,2,Slow,long,f,0,2.3457,2,3,11,2,1,,,,,
1.26,,,,,,,,,f,blue,5ede432f75bfd1073c1501d8,2021-09-27_17h27.51.351,forced_choiceRT_color,2021.2.3,Win32,71.94762213,,,,,,,,2,Ontime,long,f,1,2.0694,3,0,12,1,1,,,,,
1.12,,,,,,,,,j,red,5ede432f75bfd1073c1501d8,2021-09-27_17h27.51.351,forced_choiceRT_color,2021.2.3,Win32,71.94762213,,,,,,,,2,Ontime,long,j,1,1.9312,3,1,13,2,1,,,,,
1.16,,,,,,,,,d,orange,5ede432f75bfd1073c1501d8,2021-09-27_17h27.51.351,forced_choiceRT_color,2021.2.3,Win32,71.94762213,,,,,,,,2,Slow,long,d,1,2.1044,3,2,14,0,1,,,,,
1.74,,,,,,,,,f,blue,5ede432f75bfd1073c1501d8,2021-09-27_17h27.51.351,forced_choiceRT_color,2021.2.3,Win32,71.94762213,,,,,,,,2,Slow,long,f,1,2.2896,3,3,15,1,1,,,,,
1.11,,,,,,,,,d,orange,5ede432f75bfd1073c1501d8,2021-09-27_17h27.51.351,forced_choiceRT_color,2021.2.3,Win32,71.94762213,,,,,,,,2,Ontime,long,d,1,1.9362,4,0,16,0,1,,,,,
0.3,,,,,,,,,f,blue,5ede432f75bfd1073c1501d8,2021-09-27_17h27.51.351,forced_choiceRT_color,2021.2.3,Win32,71.94762213,,,,,,,,2,Fast,long,f,1,1.7139,4,1,17,1,1,,,,,
1.15,,,,,,,,,k,purple,5ede432f75bfd1073c1501d8,2021-09-27_17h27.51.351,forced_choiceRT_color,2021.2.3,Win32,71.94762213,,,,,,,,2,Ontime,long,k,1,2.0635,4,2,18,3,1,,,,,
0.88,,,,,,,,,k,purple,5ede432f75bfd1073c1501d8,2021-09-27_17h27.51.351,forced_choiceRT_color,2021.2.3,Win32,71.94762213,,,,,,,,2,Fast,long,k,1,1.87,4,3,19,3,1,,,,,
1.84,,,,,,,,,j,red,5ede432f75bfd1073c1501d8,2021-09-27_17h27.51.351,forced_choiceRT_color,2021.2.3,Win32,71.94762213,,,,,,,,2,Slow,long,j,1,2.2818,5,0,20,2,1,,,,,
1.49,,,,,,,,,k,purple,5ede432f75bfd1073c1501d8,2021-09-27_17h27.51.351,forced_choiceRT_color,2021.2.3,Win32,71.94762213,,,,,,,,2,Ontime,long,k,1,2.077,5,1,21,3,1,,,,,
0.49,,,,,,,,,k,purple,5ede432f75bfd1073c1501d8,2021-09-27_17h27.51.351,forced_choiceRT_color,2021.2.3,Win32,71.94762213,,,,,,,,2,Fast,long,k,1,1.6842,5,2,22,3,1,,,,,
1.51,,,,,,,,,j,red,5ede432f75bfd1073c1501d8,2021-09-27_17h27.51.351,forced_choiceRT_color,2021.2.3,Win32,71.94762213,,,,,,,,2,Ontime,long,j,1,1.9736,5,3,23,2,1,,,,,
1.69,,,,,,,,,d,orange,5ede432f75bfd1073c1501d8,2021-09-27_17h27.51.351,forced_choiceRT_color,2021.2.3,Win32,71.94762213,,,,,,,,2,Slow,long,f,0,2.2373,6,0,24,0,1,,,,,
0.12,,,,,,,,,f,blue,5ede432f75bfd1073c1501d8,2021-09-27_17h27.51.351,forced_choiceRT_color,2021.2.3,Win32,71.94762213,,,,,,,,2,Fast,long,f,1,1.7902,6,1,25,1,1,,,,,
0,,,,,,,,,k,purple,5ede432f75bfd1073c1501d8,2021-09-27_17h27.51.351,forced_choiceRT_color,2021.2.3,Win32,71.94762213,,,,,,,,2,Ontime,long,k,1,1.9339,6,2,26,3,1,,,,,
0.11,,,,,,,,,f,blue,5ede432f75bfd1073c1501d8,2021-09-27_17h27.51.351,forced_choiceRT_color,2021.2.3,Win32,71.94762213,,,,,,,,2,Fast,long,f,1,1.7568,6,3,27,1,1,,,,,
0.07,,,,,,,,,d,orange,5ede432f75bfd1073c1501d8,2021-09-27_17h27.51.351,forced_choiceRT_color,2021.2.3,Win32,71.94762213,,,,,,,,2,Ontime,long,d,1,2.063,7,0,28,0,1,,,,,
0.11,,,,,,,,,d,orange,5ede432f75bfd1073c1501d8,2021-09-27_17h27.51.351,forced_choiceRT_color,2021.2.3,Win32,71.94762213,,,,,,,,2,Ontime,long,d,1,2.0189,7,1,29,0,1,,,,,
1.71,,,,,,,,,k,purple,5ede432f75bfd1073c1501d8,2021-09-27_17h27.51.351,forced_choiceRT_color,2021.2.3,Win32,71.94762213,,,,,,,,2,Slow,long,j,0,2.195,7,2,30,3,1,,,,,
1.21,,,,,,,,,f,blue,5ede432f75bfd1073c1501d8,2021-09-27_17h27.51.351,forced_choiceRT_color,2021.2.3,Win32,71.94762213,,,,,,,,2,Ontime,long,f,1,2.0168,7,3,31,1,1,,,,,
1.71,,,,,,,,,d,orange,5ede432f75bfd1073c1501d8,2021-09-27_17h27.51.351,forced_choiceRT_color,2021.2.3,Win32,71.94762213,,,,,,,,2,Slow,long,j,0,2.2147,8,0,32,0,1,,,,,
1.74,,,,,,,,,j,red,5ede432f75bfd1073c1501d8,2021-09-27_17h27.51.351,forced_choiceRT_color,2021.2.3,Win32,71.94762213,,,,,,,,2,Slow,long,k,0,2.2002,8,1,33,2,1,,,,,
0.89,,,,,,,,,j,red,5ede432f75bfd1073c1501d8,2021-09-27_17h27.51.351,forced_choiceRT_color,2021.2.3,Win32,71.94762213,,,,,,,,2,Fast,long,j,1,1.7875,8,2,34,2,1,,,,,
0.41,,,,,,,,,d,orange,5ede432f75bfd1073c1501d8,2021-09-27_17h27.51.351,forced_choiceRT_color,2021.2.3,Win32,71.94762213,,,,,,,,2,Ontime,long,d,1,1.9629,8,3,35,0,1,,,,,
0.28,,,,,,,,,k,purple,5ede432f75bfd1073c1501d8,2021-09-27_17h27.51.351,forced_choiceRT_color,2021.2.3,Win32,71.94762213,,,,,,,,2,Fast,long,k,1,1.6888,9,0,36,3,1,,,,,
0.57,,,,,,,,,d,orange,5ede432f75bfd1073c1501d8,2021-09-27_17h27.51.351,forced_choiceRT_color,2021.2.3,Win32,71.94762213,,,,,,,,2,Ontime,long,d,1,1.9693,9,1,37,0,1,,,,,
0.86,,,,,,,,,j,red,5ede432f75bfd1073c1501d8,2021-09-27_17h27.51.351,forced_choiceRT_color,2021.2.3,Win32,71.94762213,,,,,,,,2,Fast,long,j,1,1.8554,9,2,38,2,1,,,,,
1.89,,,,,,,,,f,blue,5ede432f75bfd1073c1501d8,2021-09-27_17h27.51.351,forced_choiceRT_color,2021.2.3,Win32,71.94762213,,,,,,,,2,Slow,long,f,1,2.747,9,3,39,1,1,,,,,
,,,,,,,,,,,5ede432f75bfd1073c1501d8,2021-09-27_17h27.51.351,forced_choiceRT_color,2021.2.3,Win32,71.94762213,,,,,,,,,,,,,,,,,,,1,0,1,0,1
1.48,,,,,,,,,k,purple,5ede432f75bfd1073c1501d8,2021-09-27_17h27.51.351,forced_choiceRT_color,2021.2.3,Win32,71.94762213,,,,,,,,3,Slow,long,k,1,2.2828,0,0,0,3,1,,,,,
0.23,,,,,,,,,j,red,5ede432f75bfd1073c1501d8,2021-09-27_17h27.51.351,forced_choiceRT_color,2021.2.3,Win32,71.94762213,,,,,,,,3,Ontime,long,j,1,2.0231,0,1,1,2,1,,,,,
0.27,,,,,,,,,f,blue,5ede432f75bfd1073c1501d8,2021-09-27_17h27.51.351,forced_choiceRT_color,2021.2.3,Win32,71.94762213,,,,,,,,3,Ontime,long,f,1,2.0348,0,2,2,1,1,,,,,
0.37,,,,,,,,,d,orange,5ede432f75bfd1073c1501d8,2021-09-27_17h27.51.351,forced_choiceRT_color,2021.2.3,Win32,71.94762213,,,,,,,,3,Ontime,long,d,1,2.0682,0,3,3,0,1,,,,,
1.4,,,,,,,,,f,blue,5ede432f75bfd1073c1501d8,2021-09-27_17h27.51.351,forced_choiceRT_color,2021.2.3,Win32,71.94762213,,,,,,,,3,Ontime,long,f,1,2.0721,1,0,4,1,1,,,,,
0.2,,,,,,,,,f,blue,5ede432f75bfd1073c1501d8,2021-09-27_17h27.51.351,forced_choiceRT_color,2021.2.3,Win32,71.94762213,,,,,,,,3,Slow,long,f,1,2.1301,1,1,5,1,1,,,,,
0.68,,,,,,,,,f,blue,5ede432f75bfd1073c1501d8,2021-09-27_17h27.51.351,forced_choiceRT_color,2021.2.3,Win32,71.94762213,,,,,,,,3,Ontime,long,f,1,1.947,1,2,6,1,1,,,,,
1.58,,,,,,,,,j,red,5ede432f75bfd1073c1501d8,2021-09-27_17h27.51.351,forced_choiceRT_color,2021.2.3,Win32,71.94762213,,,,,,,,3,Ontime,long,j,1,1.976,1,3,7,2,1,,,,,
1.51,,,,,,,,,j,red,5ede432f75bfd1073c1501d8,2021-09-27_17h27.51.351,forced_choiceRT_color,2021.2.3,Win32,71.94762213,,,,,,,,3,Ontime,long,j,1,1.9723,2,0,8,2,1,,,,,
1.32,,,,,,,,,j,red,5ede432f75bfd1073c1501d8,2021-09-27_17h27.51.351,forced_choiceRT_color,2021.2.3,Win32,71.94762213,,,,,,,,3,Ontime,long,f,0,2.0793,2,1,9,2,1,,,,,
0.55,,,,,,,,,d,orange,5ede432f75bfd1073c1501d8,2021-09-27_17h27.51.351,forced_choiceRT_color,2021.2.3,Win32,71.94762213,,,,,,,,3,Ontime,long,d,1,1.9877,2,2,10,0,1,,,,,
0.46,,,,,,,,,j,red,5ede432f75bfd1073c1501d8,2021-09-27_17h27.51.351,forced_choiceRT_color,2021.2.3,Win32,71.94762213,,,,,,,,3,Ontime,long,j,1,2.008,2,3,11,2,1,,,,,
0.4,,,,,,,,,f,blue,5ede432f75bfd1073c1501d8,2021-09-27_17h27.51.351,forced_choiceRT_color,2021.2.3,Win32,71.94762213,,,,,,,,3,Ontime,long,f,1,1.965,3,0,12,1,1,,,,,
1.81,,,,,,,,,f,blue,5ede432f75bfd1073c1501d8,2021-09-27_17h27.51.351,forced_choiceRT_color,2021.2.3,Win32,71.94762213,,,,,,,,3,Slow,long,k,0,2.1352,3,1,13,1,1,,,,,
1.97,,,,,,,,,k,purple,5ede432f75bfd1073c1501d8,2021-09-27_17h27.51.351,forced_choiceRT_color,2021.2.3,Win32,71.94762213,,,,,,,,3,Slow,long,j,0,2.4411,3,2,14,3,1,,,,,
0.71,,,,,,,,,j,red,5ede432f75bfd1073c1501d8,2021-09-27_17h27.51.351,forced_choiceRT_color,2021.2.3,Win32,71.94762213,,,,,,,,3,Fast,long,j,1,1.8786,3,3,15,2,1,,,,,
1.01,,,,,,,,,d,orange,5ede432f75bfd1073c1501d8,2021-09-27_17h27.51.351,forced_choiceRT_color,2021.2.3,Win32,71.94762213,,,,,,,,3,Ontime,long,d,1,2.0577,4,0,16,0,1,,,,,
0.36,,,,,,,,,k,purple,5ede432f75bfd1073c1501d8,2021-09-27_17h27.51.351,forced_choiceRT_color,2021.2.3,Win32,71.94762213,,,,,,,,3,Ontime,long,k,1,1.9721,4,1,17,3,1,,,,,
0.03,,,,,,,,,k,purple,5ede432f75bfd1073c1501d8,2021-09-27_17h27.51.351,forced_choiceRT_color,2021.2.3,Win32,71.94762213,,,,,,,,3,Fast,long,k,1,1.7661,4,2,18,3,1,,,,,
1.65,,,,,,,,,j,red,5ede432f75bfd1073c1501d8,2021-09-27_17h27.51.351,forced_choiceRT_color,2021.2.3,Win32,71.94762213,,,,,,,,3,Slow,long,j,1,2.157,4,3,19,2,1,,,,,
0.78,,,,,,,,,d,orange,5ede432f75bfd1073c1501d8,2021-09-27_17h27.51.351,forced_choiceRT_color,2021.2.3,Win32,71.94762213,,,,,,,,3,Ontime,long,d,1,1.98,5,0,20,0,1,,,,,
1.22,,,,,,,,,f,blue,5ede432f75bfd1073c1501d8,2021-09-27_17h27.51.351,forced_choiceRT_color,2021.2.3,Win32,71.94762213,,,,,,,,3,Fast,long,f,1,1.877,5,1,21,1,1,,,,,
1.16,,,,,,,,,f,blue,5ede432f75bfd1073c1501d8,2021-09-27_17h27.51.351,forced_choiceRT_color,2021.2.3,Win32,71.94762213,,,,,,,,3,Fast,long,f,1,1.9,5,2,22,1,1,,,,,
0.08,,,,,,,,,k,purple,5ede432f75bfd1073c1501d8,2021-09-27_17h27.51.351,forced_choiceRT_color,2021.2.3,Win32,71.94762213,,,,,,,,3,Fast,long,k,1,1.7807,5,3,23,3,1,,,,,
0.26,,,,,,,,,d,orange,5ede432f75bfd1073c1501d8,2021-09-27_17h27.51.351,forced_choiceRT_color,2021.2.3,Win32,71.94762213,,,,,,,,3,Fast,long,d,1,1.8438,6,0,24,0,1,,,,,
0.46,,,,,,,,,f,blue,5ede432f75bfd1073c1501d8,2021-09-27_17h27.51.351,forced_choiceRT_color,2021.2.3,Win32,71.94762213,,,,,,,,3,Fast,long,f,1,1.8893,6,1,25,1,1,,,,,
1.11,,,,,,,,,k,purple,5ede432f75bfd1073c1501d8,2021-09-27_17h27.51.351,forced_choiceRT_color,2021.2.3,Win32,71.94762213,,,,,,,,3,Slow,long,k,1,2.1126,6,2,26,3,1,,,,,
0.47,,,,,,,,,k,purple,5ede432f75bfd1073c1501d8,2021-09-27_17h27.51.351,forced_choiceRT_color,2021.2.3,Win32,71.94762213,,,,,,,,3,Ontime,long,k,1,1.9936,6,3,27,3,1,,,,,
1.9,,,,,,,,,j,red,5ede432f75bfd1073c1501d8,2021-09-27_17h27.51.351,forced_choiceRT_color,2021.2.3,Win32,71.94762213,,,,,,,,3,Slow,long,k,0,2.1247,7,0,28,2,1,,,,,
0.87,,,,,,,,,j,red,5ede432f75bfd1073c1501d8,2021-09-27_17h27.51.351,forced_choiceRT_color,2021.2.3,Win32,71.94762213,,,,,,,,3,Ontime,long,j,1,2.0463,7,1,29,2,1,,,,,
0.94,,,,,,,,,j,red,5ede432f75bfd1073c1501d8,2021-09-27_17h27.51.351,forced_choiceRT_color,2021.2.3,Win32,71.94762213,,,,,,,,3,Fast,long,j,1,1.8261,7,2,30,2,1,,,,,
1.62,,,,,,,,,d,orange,5ede432f75bfd1073c1501d8,2021-09-27_17h27.51.351,forced_choiceRT_color,2021.2.3,Win32,71.94762213,,,,,,,,3,Slow,long,f,0,2.1234,7,3,31,0,1,,,,,
1.56,,,,,,,,,d,orange,5ede432f75bfd1073c1501d8,2021-09-27_17h27.51.351,forced_choiceRT_color,2021.2.3,Win32,71.94762213,,,,,,,,3,Slow,long,d,1,2.1708,8,0,32,0,1,,,,,
1.53,,,,,,,,,f,blue,5ede432f75bfd1073c1501d8,2021-09-27_17h27.51.351,forced_choiceRT_color,2021.2.3,Win32,71.94762213,,,,,,,,3,Ontime,long,f,1,2.07,8,1,33,1,1,,,,,
1.5,,,,,,,,,d,orange,5ede432f75bfd1073c1501d8,2021-09-27_17h27.51.351,forced_choiceRT_color,2021.2.3,Win32,71.94762213,,,,,,,,3,Fast,long,d,1,1.8981,8,2,34,0,1,,,,,
0.7,,,,,,,,,k,purple,5ede432f75bfd1073c1501d8,2021-09-27_17h27.51.351,forced_choiceRT_color,2021.2.3,Win32,71.94762213,,,,,,,,3,Slow,long,k,1,2.1127,8,3,35,3,1,,,,,
1.81,,,,,,,,,k,purple,5ede432f75bfd1073c1501d8,2021-09-27_17h27.51.351,forced_choiceRT_color,2021.2.3,Win32,71.94762213,,,,,,,,3,Slow,long,k,1,2.1772,9,0,36,3,1,,,,,
0.99,,,,,,,,,d,orange,5ede432f75bfd1073c1501d8,2021-09-27_17h27.51.351,forced_choiceRT_color,2021.2.3,Win32,71.94762213,,,,,,,,3,Ontime,long,d,1,1.9788,9,1,37,0,1,,,,,
1.66,,,,,,,,,d,orange,5ede432f75bfd1073c1501d8,2021-09-27_17h27.51.351,forced_choiceRT_color,2021.2.3,Win32,71.94762213,,,,,,,,3,Ontime,long,d,1,1.9228,9,2,38,0,1,,,,,
1.46,,,,,,,,,k,purple,5ede432f75bfd1073c1501d8,2021-09-27_17h27.51.351,forced_choiceRT_color,2021.2.3,Win32,71.94762213,,,,,,,,3,Ontime,long,d,0,2.0607,9,3,39,3,1,,,,,
,,,,,,,,,,,5ede432f75bfd1073c1501d8,2021-09-27_17h27.51.351,forced_choiceRT_color,2021.2.3,Win32,71.94762213,,,,,,,,,,,,,,,,,,,2,0,2,0,1
1.22,,,,,,,,,k,purple,5ede432f75bfd1073c1501d8,2021-09-27_17h27.51.351,forced_choiceRT_color,2021.2.3,Win32,71.94762213,,,,,,,,4,Ontime,long,k,1,1.9952,0,0,0,3,1,,,,,
0.28,,,,,,,,,k,purple,5ede432f75bfd1073c1501d8,2021-09-27_17h27.51.351,forced_choiceRT_color,2021.2.3,Win32,71.94762213,,,,,,,,4,Fast,long,k,1,1.8242,0,1,1,3,1,,,,,
1.97,,,,,,,,,k,purple,5ede432f75bfd1073c1501d8,2021-09-27_17h27.51.351,forced_choiceRT_color,2021.2.3,Win32,71.94762213,,,,,,,,4,Slow,long,k,1,2.1123,0,2,2,3,1,,,,,
0.62,,,,,,,,,f,blue,5ede432f75bfd1073c1501d8,2021-09-27_17h27.51.351,forced_choiceRT_color,2021.2.3,Win32,71.94762213,,,,,,,,4,Fast,long,f,1,1.8694,0,3,3,1,1,,,,,
1.93,,,,,,,,,d,orange,5ede432f75bfd1073c1501d8,2021-09-27_17h27.51.351,forced_choiceRT_color,2021.2.3,Win32,71.94762213,,,,,,,,4,Slow,long,f,0,2.1307,1,0,4,0,1,,,,,
1.54,,,,,,,,,f,blue,5ede432f75bfd1073c1501d8,2021-09-27_17h27.51.351,forced_choiceRT_color,2021.2.3,Win32,71.94762213,,,,,,,,4,Slow,long,j,0,2.1728,1,1,5,1,1,,,,,
0.65,,,,,,,,,f,blue,5ede432f75bfd1073c1501d8,2021-09-27_17h27.51.351,forced_choiceRT_color,2021.2.3,Win32,71.94762213,,,,,,,,4,Fast,long,f,1,1.8864,1,2,6,1,1,,,,,
1.93,,,,,,,,,j,red,5ede432f75bfd1073c1501d8,2021-09-27_17h27.51.351,forced_choiceRT_color,2021.2.3,Win32,71.94762213,,,,,,,,4,Ontime,long,f,0,2.0576,1,3,7,2,1,,,,,
1.48,,,,,,,,,d,orange,5ede432f75bfd1073c1501d8,2021-09-27_17h27.51.351,forced_choiceRT_color,2021.2.3,Win32,71.94762213,,,,,,,,4,Slow,long,d,1,2.134,2,0,8,0,1,,,,,
0.71,,,,,,,,,k,purple,5ede432f75bfd1073c1501d8,2021-09-27_17h27.51.351,forced_choiceRT_color,2021.2.3,Win32,71.94762213,,,,,,,,4,Ontime,long,k,1,1.9122,2,1,9,3,1,,,,,
0.43,,,,,,,,,j,red,5ede432f75bfd1073c1501d8,2021-09-27_17h27.51.351,forced_choiceRT_color,2021.2.3,Win32,71.94762213,,,,,,,,4,Fast,long,j,1,1.8129,2,2,10,2,1,,,,,
1.65,,,,,,,,,f,blue,5ede432f75bfd1073c1501d8,2021-09-27_17h27.51.351,forced_choiceRT_color,2021.2.3,Win32,71.94762213,,,,,,,,4,Ontime,long,f,1,1.9716,2,3,11,1,1,,,,,
1.99,,,,,,,,,d,orange,5ede432f75bfd1073c1501d8,2021-09-27_17h27.51.351,forced_choiceRT_color,2021.2.3,Win32,71.94762213,,,,,,,,4,Ontime,long,d,1,2.0884,3,0,12,0,1,,,,,
1.24,,,,,,,,,k,purple,5ede432f75bfd1073c1501d8,2021-09-27_17h27.51.351,forced_choiceRT_color,2021.2.3,Win32,71.94762213,,,,,,,,4,Fast,long,k,1,1.899,3,1,13,3,1,,,,,
1.23,,,,,,,,,k,purple,5ede432f75bfd1073c1501d8,2021-09-27_17h27.51.351,forced_choiceRT_color,2021.2.3,Win32,71.94762213,,,,,,,,4,Fast,long,k,1,1.8415,3,2,14,3,1,,,,,
0.69,,,,,,,,,j,red,5ede432f75bfd1073c1501d8,2021-09-27_17h27.51.351,forced_choiceRT_color,2021.2.3,Win32,71.94762213,,,,,,,,4,Fast,long,j,1,1.8145,3,3,15,2,1,,,,,
1.37,,,,,,,,,k,purple,5ede432f75bfd1073c1501d8,2021-09-27_17h27.51.351,forced_choiceRT_color,2021.2.3,Win32,71.94762213,,,,,,,,4,Slow,long,k,1,2.1027,4,0,16,3,1,,,,,
0.88,,,,,,,,,j,red,5ede432f75bfd1073c1501d8,2021-09-27_17h27.51.351,forced_choiceRT_color,2021.2.3,Win32,71.94762213,,,,,,,,4,Fast,long,j,1,1.775,4,1,17,2,1,,,,,
0.95,,,,,,,,,d,orange,5ede432f75bfd1073c1501d8,2021-09-27_17h27.51.351,forced_choiceRT_color,2021.2.3,Win32,71.94762213,,,,,,,,4,Fast,long,d,1,1.8799,4,2,18,0,1,,,,,
0.38,,,,,,,,,f,blue,5ede432f75bfd1073c1501d8,2021-09-27_17h27.51.351,forced_choiceRT_color,2021.2.3,Win32,71.94762213,,,,,,,,4,Ontime,long,f,1,2.0937,4,3,19,1,1,,,,,
1.17,,,,,,,,,k,purple,5ede432f75bfd1073c1501d8,2021-09-27_17h27.51.351,forced_choiceRT_color,2021.2.3,Win32,71.94762213,,,,,,,,4,Slow,long,k,1,2.1122,5,0,20,3,1,,,,,
1.44,,,,,,,,,f,blue,5ede432f75bfd1073c1501d8,2021-09-27_17h27.51.351,forced_choiceRT_color,2021.2.3,Win32,71.94762213,,,,,,,,4,Ontime,long,f,1,2.0753,5,1,21,1,1,,,,,
1.93,,,,,,,,,j,red,5ede432f75bfd1073c1501d8,2021-09-27_17h27.51.351,forced_choiceRT_color,2021.2.3,Win32,71.94762213,,,,,,,,4,Slow,long,j,1,2.2275,5,2,22,2,1,,,,,
1.05,,,,,,,,,j,red,5ede432f75bfd1073c1501d8,2021-09-27_17h27.51.351,forced_choiceRT_color,2021.2.3,Win32,71.94762213,,,,,,,,4,Ontime,long,j,1,1.9505,5,3,23,2,1,,,,,
0.98,,,,,,,,,d,orange,5ede432f75bfd1073c1501d8,2021-09-27_17h27.51.351,forced_choiceRT_color,2021.2.3,Win32,71.94762213,,,,,,,,4,Fast,long,d,1,1.8258,6,0,24,0,1,,,,,
0.16,,,,,,,,,j,red,5ede432f75bfd1073c1501d8,2021-09-27_17h27.51.351,forced_choiceRT_color,2021.2.3,Win32,71.94762213,,,,,,,,4,Ontime,long,j,1,2.0404,6,1,25,2,1,,,,,
1.42,,,,,,,,,k,purple,5ede432f75bfd1073c1501d8,2021-09-27_17h27.51.351,forced_choiceRT_color,2021.2.3,Win32,71.94762213,,,,,,,,4,Ontime,long,k,1,2.0933,6,2,26,3,1,,,,,
1.05,,,,,,,,,d,orange,5ede432f75bfd1073c1501d8,2021-09-27_17h27.51.351,forced_choiceRT_color,2021.2.3,Win32,71.94762213,,,,,,,,4,Ontime,long,d,1,1.9188,6,3,27,0,1,,,,,
1.31,,,,,,,,,f,blue,5ede432f75bfd1073c1501d8,2021-09-27_17h27.51.351,forced_choiceRT_color,2021.2.3,Win32,71.94762213,,,,,,,,4,Fast,long,f,1,1.824,7,0,28,1,1,,,,,
1.43,,,,,,,,,f,blue,5ede432f75bfd1073c1501d8,2021-09-27_17h27.51.351,forced_choiceRT_color,2021.2.3,Win32,71.94762213,,,,,,,,4,Ontime,long,f,1,1.9168,7,1,29,1,1,,,,,
1.57,,,,,,,,,j,red,5ede432f75bfd1073c1501d8,2021-09-27_17h27.51.351,forced_choiceRT_color,2021.2.3,Win32,71.94762213,,,,,,,,4,Ontime,long,j,1,2.0382,7,2,30,2,1,,,,,
0.24,,,,,,,,,d,orange,5ede432f75bfd1073c1501d8,2021-09-27_17h27.51.351,forced_choiceRT_color,2021.2.3,Win32,71.94762213,,,,,,,,4,Ontime,long,d,1,1.9446,7,3,31,0,1,,,,,
0.57,,,,,,,,,j,red,5ede432f75bfd1073c1501d8,2021-09-27_17h27.51.351,forced_choiceRT_color,2021.2.3,Win32,71.94762213,,,,,,,,4,Fast,long,f,0,1.7794,8,0,32,2,1,,,,,
1.63,,,,,,,,,d,orange,5ede432f75bfd1073c1501d8,2021-09-27_17h27.51.351,forced_choiceRT_color,2021.2.3,Win32,71.94762213,,,,,,,,4,Slow,long,f,0,2.1393,8,1,33,0,1,,,,,
0.95,,,,,,,,,d,orange,5ede432f75bfd1073c1501d8,2021-09-27_17h27.51.351,forced_choiceRT_color,2021.2.3,Win32,71.94762213,,,,,,,,4,Fast,long,d,1,1.8466,8,2,34,0,1,,,,,
0.37,,,,,,,,,d,orange,5ede432f75bfd1073c1501d8,2021-09-27_17h27.51.351,forced_choiceRT_color,2021.2.3,Win32,71.94762213,,,,,,,,4,Ontime,long,d,1,2.0522,8,3,35,0,1,,,,,
1.57,,,,,,,,,k,purple,5ede432f75bfd1073c1501d8,2021-09-27_17h27.51.351,forced_choiceRT_color,2021.2.3,Win32,71.94762213,,,,,,,,4,Slow,long,k,1,2.1563,9,0,36,3,1,,,,,
0.76,,,,,,,,,j,red,5ede432f75bfd1073c1501d8,2021-09-27_17h27.51.351,forced_choiceRT_color,2021.2.3,Win32,71.94762213,,,,,,,,4,Ontime,long,j,1,1.9546,9,1,37,2,1,,,,,
1.46,,,,,,,,,f,blue,5ede432f75bfd1073c1501d8,2021-09-27_17h27.51.351,forced_choiceRT_color,2021.2.3,Win32,71.94762213,,,,,,,,4,Fast,long,f,1,1.8375,9,2,38,1,1,,,,,
1.52,,,,,,,,,f,blue,5ede432f75bfd1073c1501d8,2021-09-27_17h27.51.351,forced_choiceRT_color,2021.2.3,Win32,71.94762213,,,,,,,,4,Ontime,long,f,1,2.0376,9,3,39,1,1,,,,,
,,,,,,,,,,,5ede432f75bfd1073c1501d8,2021-09-27_17h27.51.351,forced_choiceRT_color,2021.2.3,Win32,71.94762213,,,,,,,,,,,,,,,,,,,3,0,3,0,1
1.6,,,,,,,,,k,purple,5ede432f75bfd1073c1501d8,2021-09-27_17h27.51.351,forced_choiceRT_color,2021.2.3,Win32,71.94762213,,,,,,,,5,Ontime,long,f,0,2.0781,0,0,0,3,1,,,,,
0.98,,,,,,,,,k,purple,5ede432f75bfd1073c1501d8,2021-09-27_17h27.51.351,forced_choiceRT_color,2021.2.3,Win32,71.94762213,,,,,,,,5,Fast,long,k,1,1.8094,0,1,1,3,1,,,,,
0.13,,,,,,,,,d,orange,5ede432f75bfd1073c1501d8,2021-09-27_17h27.51.351,forced_choiceRT_color,2021.2.3,Win32,71.94762213,,,,,,,,5,Ontime,long,d,1,2.0398,0,2,2,0,1,,,,,
1.89,,,,,,,,,k,purple,5ede432f75bfd1073c1501d8,2021-09-27_17h27.51.351,forced_choiceRT_color,2021.2.3,Win32,71.94762213,,,,,,,,5,Slow,long,f,0,2.2892,0,3,3,3,1,,,,,
1.93,,,,,,,,,j,red,5ede432f75bfd1073c1501d8,2021-09-27_17h27.51.351,forced_choiceRT_color,2021.2.3,Win32,71.94762213,,,,,,,,5,Slow,long,k,0,2.2571,1,0,4,2,1,,,,,
1.99,,,,,,,,,k,purple,5ede432f75bfd1073c1501d8,2021-09-27_17h27.51.351,forced_choiceRT_color,2021.2.3,Win32,71.94762213,,,,,,,,5,Slow,long,k,1,2.4938,1,1,5,3,1,,,,,
1.04,,,,,,,,,f,blue,5ede432f75bfd1073c1501d8,2021-09-27_17h27.51.351,forced_choiceRT_color,2021.2.3,Win32,71.94762213,,,,,,,,5,Fast,long,f,1,1.884,1,2,6,1,1,,,,,
0.74,,,,,,,,,k,purple,5ede432f75bfd1073c1501d8,2021-09-27_17h27.51.351,forced_choiceRT_color,2021.2.3,Win32,71.94762213,,,,,,,,5,Ontime,long,k,1,1.9297,1,3,7,3,1,,,,,
0.27,,,,,,,,,d,orange,5ede432f75bfd1073c1501d8,2021-09-27_17h27.51.351,forced_choiceRT_color,2021.2.3,Win32,71.94762213,,,,,,,,5,Fast,long,d,1,1.789,2,0,8,0,1,,,,,
1.07,,,,,,,,,j,red,5ede432f75bfd1073c1501d8,2021-09-27_17h27.51.351,forced_choiceRT_color,2021.2.3,Win32,71.94762213,,,,,,,,5,Fast,long,j,1,1.877,2,1,9,2,1,,,,,
1.87,,,,,,,,,k,purple,5ede432f75bfd1073c1501d8,2021-09-27_17h27.51.351,forced_choiceRT_color,2021.2.3,Win32,71.94762213,,,,,,,,5,Slow,long,f,0,2.1677,2,2,10,3,1,,,,,
1.66,,,,,,,,,j,red,5ede432f75bfd1073c1501d8,2021-09-27_17h27.51.351,forced_choiceRT_color,2021.2.3,Win32,71.94762213,,,,,,,,5,Ontime,long,k,0,1.9863,2,3,11,2,1,,,,,
1.57,,,,,,,,,j,red,5ede432f75bfd1073c1501d8,2021-09-27_17h27.51.351,forced_choiceRT_color,2021.2.3,Win32,71.94762213,,,,,,,,5,Ontime,long,j,1,2.0705,3,0,12,2,1,,,,,
1.98,,,,,,,,,d,orange,5ede432f75bfd1073c1501d8,2021-09-27_17h27.51.351,forced_choiceRT_color,2021.2.3,Win32,71.94762213,,,,,,,,5,Slow,long,j,0,2.3857,3,1,13,0,1,,,,,
0.91,,,,,,,,,f,blue,5ede432f75bfd1073c1501d8,2021-09-27_17h27.51.351,forced_choiceRT_color,2021.2.3,Win32,71.94762213,,,,,,,,5,Fast,long,f,1,1.8173,3,2,14,1,1,,,,,
1.64,,,,,,,,,f,blue,5ede432f75bfd1073c1501d8,2021-09-27_17h27.51.351,forced_choiceRT_color,2021.2.3,Win32,71.94762213,,,,,,,,5,Slow,long,f,1,2.1087,3,3,15,1,1,,,,,
1.64,,,,,,,,,j,red,5ede432f75bfd1073c1501d8,2021-09-27_17h27.51.351,forced_choiceRT_color,2021.2.3,Win32,71.94762213,,,,,,,,5,Slow,long,d,0,2.1298,4,0,16,2,1,,,,,
1.47,,,,,,,,,f,blue,5ede432f75bfd1073c1501d8,2021-09-27_17h27.51.351,forced_choiceRT_color,2021.2.3,Win32,71.94762213,,,,,,,,5,Ontime,long,f,1,1.9926,4,1,17,1,1,,,,,
0.31,,,,,,,,,j,red,5ede432f75bfd1073c1501d8,2021-09-27_17h27.51.351,forced_choiceRT_color,2021.2.3,Win32,71.94762213,,,,,,,,5,Ontime,long,j,1,1.9261,4,2,18,2,1,,,,,
0.34,,,,,,,,,f,blue,5ede432f75bfd1073c1501d8,2021-09-27_17h27.51.351,forced_choiceRT_color,2021.2.3,Win32,71.94762213,,,,,,,,5,Fast,long,f,1,1.7961,4,3,19,1,1,,,,,
0.26,,,,,,,,,f,blue,5ede432f75bfd1073c1501d8,2021-09-27_17h27.51.351,forced_choiceRT_color,2021.2.3,Win32,71.94762213,,,,,,,,5,Ontime,long,f,1,1.9722,5,0,20,1,1,,,,,
1.1,,,,,,,,,f,blue,5ede432f75bfd1073c1501d8,2021-09-27_17h27.51.351,forced_choiceRT_color,2021.2.3,Win32,71.94762213,,,,,,,,5,Fast,long,f,1,1.8378,5,1,21,1,1,,,,,
0.28,,,,,,,,,k,purple,5ede432f75bfd1073c1501d8,2021-09-27_17h27.51.351,forced_choiceRT_color,2021.2.3,Win32,71.94762213,,,,,,,,5,Fast,long,k,1,1.6456,5,2,22,3,1,,,,,
0.49,,,,,,,,,j,red,5ede432f75bfd1073c1501d8,2021-09-27_17h27.51.351,forced_choiceRT_color,2021.2.3,Win32,71.94762213,,,,,,,,5,Fast,long,j,1,1.8761,5,3,23,2,1,,,,,
1.8,,,,,,,,,d,orange,5ede432f75bfd1073c1501d8,2021-09-27_17h27.51.351,forced_choiceRT_color,2021.2.3,Win32,71.94762213,,,,,,,,5,Slow,long,f,0,2.1057,6,0,24,0,1,,,,,
0.8,,,,,,,,,d,orange,5ede432f75bfd1073c1501d8,2021-09-27_17h27.51.351,forced_choiceRT_color,2021.2.3,Win32,71.94762213,,,,,,,,5,Ontime,long,d,1,1.9553,6,1,25,0,1,,,,,
1.46,,,,,,,,,j,red,5ede432f75bfd1073c1501d8,2021-09-27_17h27.51.351,forced_choiceRT_color,2021.2.3,Win32,71.94762213,,,,,,,,5,Ontime,long,j,1,1.999,6,2,26,2,1,,,,,
1.33,,,,,,,,,d,orange,5ede432f75bfd1073c1501d8,2021-09-27_17h27.51.351,forced_choiceRT_color,2021.2.3,Win32,71.94762213,,,,,,,,5,Ontime,long,d,1,1.9636,6,3,27,0,1,,,,,
0.32,,,,,,,,,j,red,5ede432f75bfd1073c1501d8,2021-09-27_17h27.51.351,forced_choiceRT_color,2021.2.3,Win32,71.94762213,,,,,,,,5,Fast,long,j,1,1.8193,7,0,28,2,1,,,,,
1.1,,,,,,,,,f,blue,5ede432f75bfd1073c1501d8,2021-09-27_17h27.51.351,forced_choiceRT_color,2021.2.3,Win32,71.94762213,,,,,,,,5,Fast,long,f,1,1.8435,7,1,29,1,1,,,,,
0.28,,,,,,,,,f,blue,5ede432f75bfd1073c1501d8,2021-09-27_17h27.51.351,forced_choiceRT_color,2021.2.3,Win32,71.94762213,,,,,,,,5,Ontime,long,f,1,1.9582,7,2,30,1,1,,,,,
1.8,,,,,,,,,f,blue,5ede432f75bfd1073c1501d8,2021-09-27_17h27.51.351,forced_choiceRT_color,2021.2.3,Win32,71.94762213,,,,,,,,5,Slow,long,j,0,2.1697,7,3,31,1,1,,,,,
1.68,,,,,,,,,k,purple,5ede432f75bfd1073c1501d8,2021-09-27_17h27.51.351,forced_choiceRT_color,2021.2.3,Win32,71.94762213,,,,,,,,5,Slow,long,k,1,2.2415,8,0,32,3,1,,,,,
1.09,,,,,,,,,k,purple,5ede432f75bfd1073c1501d8,2021-09-27_17h27.51.351,forced_choiceRT_color,2021.2.3,Win32,71.94762213,,,,,,,,5,Fast,long,k,1,1.8207,8,1,33,3,1,,,,,
1.32,,,,,,,,,d,orange,5ede432f75bfd1073c1501d8,2021-09-27_17h27.51.351,forced_choiceRT_color,2021.2.3,Win32,71.94762213,,,,,,,,5,Fast,long,j,0,1.8331,8,2,34,0,1,,,,,
1.19,,,,,,,,,d,orange,5ede432f75bfd1073c1501d8,2021-09-27_17h27.51.351,forced_choiceRT_color,2021.2.3,Win32,71.94762213,,,,,,,,5,Ontime,long,d,1,2.0539,8,3,35,0,1,,,,,
1.81,,,,,,,,,k,purple,5ede432f75bfd1073c1501d8,2021-09-27_17h27.51.351,forced_choiceRT_color,2021.2.3,Win32,71.94762213,,,,,,,,5,Slow,long,f,0,2.275,9,0,36,3,1,,,,,
0.9,,,,,,,,,d,orange,5ede432f75bfd1073c1501d8,2021-09-27_17h27.51.351,forced_choiceRT_color,2021.2.3,Win32,71.94762213,,,,,,,,5,Fast,long,d,1,1.8824,9,1,37,0,1,,,,,
1.09,,,,,,,,,j,red,5ede432f75bfd1073c1501d8,2021-09-27_17h27.51.351,forced_choiceRT_color,2021.2.3,Win32,71.94762213,,,,,,,,5,Fast,long,j,1,1.8588,9,2,38,2,1,,,,,
1.22,,,,,,,,,d,orange,5ede432f75bfd1073c1501d8,2021-09-27_17h27.51.351,forced_choiceRT_color,2021.2.3,Win32,71.94762213,,,,,,,,5,Ontime,long,d,1,2.0355,9,3,39,0,1,,,,,
,,,,,,,,,,,5ede432f75bfd1073c1501d8,2021-09-27_17h27.51.351,forced_choiceRT_color,2021.2.3,Win32,71.94762213,,,,,,,,,,,,,,,,,,,4,0,4,0,1
1.82,,,,,,,,,k,purple,5ede432f75bfd1073c1501d8,2021-09-27_17h27.51.351,forced_choiceRT_color,2021.2.3,Win32,71.94762213,,,,,,,,6,Slow,long,j,0,2.1822,0,0,0,3,1,,,,,
1.55,,,,,,,,,f,blue,5ede432f75bfd1073c1501d8,2021-09-27_17h27.51.351,forced_choiceRT_color,2021.2.3,Win32,71.94762213,,,,,,,,6,Ontime,long,f,1,2.0419,0,1,1,1,1,,,,,
1.22,,,,,,,,,d,orange,5ede432f75bfd1073c1501d8,2021-09-27_17h27.51.351,forced_choiceRT_color,2021.2.3,Win32,71.94762213,,,,,,,,6,Fast,long,d,1,1.8323,0,2,2,0,1,,,,,
1.67,,,,,,,,,d,orange,5ede432f75bfd1073c1501d8,2021-09-27_17h27.51.351,forced_choiceRT_color,2021.2.3,Win32,71.94762213,,,,,,,,6,Slow,long,d,1,2.178,0,3,3,0,1,,,,,
1.26,,,,,,,,,j,red,5ede432f75bfd1073c1501d8,2021-09-27_17h27.51.351,forced_choiceRT_color,2021.2.3,Win32,71.94762213,,,,,,,,6,Ontime,long,j,1,1.9726,1,0,4,2,1,,,,,
0.95,,,,,,,,,d,orange,5ede432f75bfd1073c1501d8,2021-09-27_17h27.51.351,forced_choiceRT_color,2021.2.3,Win32,71.94762213,,,,,,,,6,Ontime,long,d,1,1.9345,1,1,5,0,1,,,,,
1.63,,,,,,,,,j,red,5ede432f75bfd1073c1501d8,2021-09-27_17h27.51.351,forced_choiceRT_color,2021.2.3,Win32,71.94762213,,,,,,,,6,Ontime,long,f,0,2.0682,1,2,6,2,1,,,,,
0.77,,,,,,,,,k,purple,5ede432f75bfd1073c1501d8,2021-09-27_17h27.51.351,forced_choiceRT_color,2021.2.3,Win32,71.94762213,,,,,,,,6,Ontime,long,k,1,2.0607,1,3,7,3,1,,,,,
0.13,,,,,,,,,k,purple,5ede432f75bfd1073c1501d8,2021-09-27_17h27.51.351,forced_choiceRT_color,2021.2.3,Win32,71.94762213,,,,,,,,6,Ontime,long,k,1,1.9581,2,0,8,3,1,,,,,
0.57,,,,,,,,,j,red,5ede432f75bfd1073c1501d8,2021-09-27_17h27.51.351,forced_choiceRT_color,2021.2.3,Win32,71.94762213,,,,,,,,6,Fast,long,j,1,1.796,2,1,9,2,1,,,,,
1.36,,,,,,,,,d,orange,5ede432f75bfd1073c1501d8,2021-09-27_17h27.51.351,forced_choiceRT_color,2021.2.3,Win32,71.94762213,,,,,,,,6,Fast,long,f,0,1.8821,2,2,10,0,1,,,,,
0.49,,,,,,,,,j,red,5ede432f75bfd1073c1501d8,2021-09-27_17h27.51.351,forced_choiceRT_color,2021.2.3,Win32,71.94762213,,,,,,,,6,Ontime,long,j,1,2.007,2,3,11,2,1,,,,,
1.64,,,,,,,,,k,purple,5ede432f75bfd1073c1501d8,2021-09-27_17h27.51.351,forced_choiceRT_color,2021.2.3,Win32,71.94762213,,,,,,,,6,Ontime,long,d,0,1.987,3,0,12,3,1,,,,,
0.76,,,,,,,,,d,orange,5ede432f75bfd1073c1501d8,2021-09-27_17h27.51.351,forced_choiceRT_color,2021.2.3,Win32,71.94762213,,,,,,,,6,Ontime,long,d,1,2.0065,3,1,13,0,1,,,,,
0.82,,,,,,,,,j,red,5ede432f75bfd1073c1501d8,2021-09-27_17h27.51.351,forced_choiceRT_color,2021.2.3,Win32,71.94762213,,,,,,,,6,Fast,long,j,1,1.79,3,2,14,2,1,,,,,
0.41,,,,,,,,,f,blue,5ede432f75bfd1073c1501d8,2021-09-27_17h27.51.351,forced_choiceRT_color,2021.2.3,Win32,71.94762213,,,,,,,,6,Fast,long,f,1,1.8748,3,3,15,1,1,,,,,
0.67,,,,,,,,,d,orange,5ede432f75bfd1073c1501d8,2021-09-27_17h27.51.351,forced_choiceRT_color,2021.2.3,Win32,71.94762213,,,,,,,,6,Ontime,long,d,1,1.9454,4,0,16,0,1,,,,,
0.21,,,,,,,,,d,orange,5ede432f75bfd1073c1501d8,2021-09-27_17h27.51.351,forced_choiceRT_color,2021.2.3,Win32,71.94762213,,,,,,,,6,Ontime,long,d,1,1.9463,4,1,17,0,1,,,,,
1.35,,,,,,,,,k,purple,5ede432f75bfd1073c1501d8,2021-09-27_17h27.51.351,forced_choiceRT_color,2021.2.3,Win32,71.94762213,,,,,,,,6,Ontime,long,k,1,1.9695,4,2,18,3,1,,,,,
0.16,,,,,,,,,f,blue,5ede432f75bfd1073c1501d8,2021-09-27_17h27.51.351,forced_choiceRT_color,2021.2.3,Win32,71.94762213,,,,,,,,6,Fast,long,j,0,1.8805,4,3,19,1,1,,,,,
1.19,,,,,,,,,f,blue,5ede432f75bfd1073c1501d8,2021-09-27_17h27.51.351,forced_choiceRT_color,2021.2.3,Win32,71.94762213,,,,,,,,6,Fast,long,f,1,1.8852,5,0,20,1,1,,,,,
0.19,,,,,,,,,j,red,5ede432f75bfd1073c1501d8,2021-09-27_17h27.51.351,forced_choiceRT_color,2021.2.3,Win32,71.94762213,,,,,,,,6,Ontime,long,j,1,2.0568,5,1,21,2,1,,,,,
1.48,,,,,,,,,k,purple,5ede432f75bfd1073c1501d8,2021-09-27_17h27.51.351,forced_choiceRT_color,2021.2.3,Win32,71.94762213,,,,,,,,6,Ontime,long,k,1,2.0906,5,2,22,3,1,,,,,
0.93,,,,,,,,,j,red,5ede432f75bfd1073c1501d8,2021-09-27_17h27.51.351,forced_choiceRT_color,2021.2.3,Win32,71.94762213,,,,,,,,6,Ontime,long,j,1,2.0533,5,3,23,2,1,,,,,
0.62,,,,,,,,,j,red,5ede432f75bfd1073c1501d8,2021-09-27_17h27.51.351,forced_choiceRT_color,2021.2.3,Win32,71.94762213,,,,,,,,6,Slow,long,j,1,2.1436,6,0,24,2,1,,,,,
1.64,,,,,,,,,j,red,5ede432f75bfd1073c1501d8,2021-09-27_17h27.51.351,forced_choiceRT_color,2021.2.3,Win32,71.94762213,,,,,,,,6,Slow,long,j,1,2.1201,6,1,25,2,1,,,,,
0.63,,,,,,,,,f,blue,5ede432f75bfd1073c1501d8,2021-09-27_17h27.51.351,forced_choiceRT_color,2021.2.3,Win32,71.94762213,,,,,,,,6,Fast,long,f,1,1.8745,6,2,26,1,1,,,,,
1.89,,,,,,,,,d,orange,5ede432f75bfd1073c1501d8,2021-09-27_17h27.51.351,forced_choiceRT_color,2021.2.3,Win32,71.94762213,,,,,,,,6,Slow,long,f,0,2.205,6,3,27,0,1,,,,,
0.58,,,,,,,,,k,purple,5ede432f75bfd1073c1501d8,2021-09-27_17h27.51.351,forced_choiceRT_color,2021.2.3,Win32,71.94762213,,,,,,,,6,Ontime,long,k,1,1.9677,7,0,28,3,1,,,,,
0.69,,,,,,,,,d,orange,5ede432f75bfd1073c1501d8,2021-09-27_17h27.51.351,forced_choiceRT_color,2021.2.3,Win32,71.94762213,,,,,,,,6,Fast,long,d,1,1.8457,7,1,29,0,1,,,,,
0.43,,,,,,,,,f,blue,5ede432f75bfd1073c1501d8,2021-09-27_17h27.51.351,forced_choiceRT_color,2021.2.3,Win32,71.94762213,,,,,,,,6,Ontime,long,f,1,2.0366,7,2,30,1,1,,,,,
1.32,,,,,,,,,d,orange,5ede432f75bfd1073c1501d8,2021-09-27_17h27.51.351,forced_choiceRT_color,2021.2.3,Win32,71.94762213,,,,,,,,6,Slow,long,d,1,2.1214,7,3,31,0,1,,,,,
1.02,,,,,,,,,f,blue,5ede432f75bfd1073c1501d8,2021-09-27_17h27.51.351,forced_choiceRT_color,2021.2.3,Win32,71.94762213,,,,,,,,6,Fast,long,f,1,1.8075,8,0,32,1,1,,,,,
1.86,,,,,,,,,j,red,5ede432f75bfd1073c1501d8,2021-09-27_17h27.51.351,forced_choiceRT_color,2021.2.3,Win32,71.94762213,,,,,,,,6,Ontime,long,j,1,2.0773,8,1,33,2,1,,,,,
1.68,,,,,,,,,k,purple,5ede432f75bfd1073c1501d8,2021-09-27_17h27.51.351,forced_choiceRT_color,2021.2.3,Win32,71.94762213,,,,,,,,6,Ontime,long,k,1,2.0776,8,2,34,3,1,,,,,
0.09,,,,,,,,,k,purple,5ede432f75bfd1073c1501d8,2021-09-27_17h27.51.351,forced_choiceRT_color,2021.2.3,Win32,71.94762213,,,,,,,,6,Ontime,long,k,1,2.0308,8,3,35,3,1,,,,,
1.14,,,,,,,,,f,blue,5ede432f75bfd1073c1501d8,2021-09-27_17h27.51.351,forced_choiceRT_color,2021.2.3,Win32,71.94762213,,,,,,,,6,Ontime,long,f,1,1.9872,9,0,36,1,1,,,,,
1.05,,,,,,,,,f,blue,5ede432f75bfd1073c1501d8,2021-09-27_17h27.51.351,forced_choiceRT_color,2021.2.3,Win32,71.94762213,,,,,,,,6,Ontime,long,f,1,1.9003,9,1,37,1,1,,,,,
1.36,,,,,,,,,f,blue,5ede432f75bfd1073c1501d8,2021-09-27_17h27.51.351,forced_choiceRT_color,2021.2.3,Win32,71.94762213,,,,,,,,6,Ontime,long,f,1,2.0223,9,2,38,1,1,,,,,
0.48,,,,,,,,,k,purple,5ede432f75bfd1073c1501d8,2021-09-27_17h27.51.351,forced_choiceRT_color,2021.2.3,Win32,71.94762213,,,,,,,,6,Ontime,long,k,1,2.0235,9,3,39,3,1,,,,,
,,,,,,,,,,,5ede432f75bfd1073c1501d8,2021-09-27_17h27.51.351,forced_choiceRT_color,2021.2.3,Win32,71.94762213,,,,,,,,,,,,,,,,,,,5,0,5,0,1
1.77,,,,,,,,,j,red,5ede432f75bfd1073c1501d8,2021-09-27_17h27.51.351,forced_choiceRT_color,2021.2.3,Win32,71.94762213,,,,,,,,7,Slow,long,k,0,2.1311,0,0,0,2,1,,,,,
0.3,,,,,,,,,k,purple,5ede432f75bfd1073c1501d8,2021-09-27_17h27.51.351,forced_choiceRT_color,2021.2.3,Win32,71.94762213,,,,,,,,7,Fast,long,k,1,1.8887,0,1,1,3,1,,,,,
1.92,,,,,,,,,k,purple,5ede432f75bfd1073c1501d8,2021-09-27_17h27.51.351,forced_choiceRT_color,2021.2.3,Win32,71.94762213,,,,,,,,7,Ontime,long,k,1,2.0869,0,2,2,3,1,,,,,
0.81,,,,,,,,,k,purple,5ede432f75bfd1073c1501d8,2021-09-27_17h27.51.351,forced_choiceRT_color,2021.2.3,Win32,71.94762213,,,,,,,,7,Ontime,long,k,1,2.0441,0,3,3,3,1,,,,,
0.14,,,,,,,,,j,red,5ede432f75bfd1073c1501d8,2021-09-27_17h27.51.351,forced_choiceRT_color,2021.2.3,Win32,71.94762213,,,,,,,,7,Ontime,long,j,1,2.0491,1,0,4,2,1,,,,,
0.81,,,,,,,,,k,purple,5ede432f75bfd1073c1501d8,2021-09-27_17h27.51.351,forced_choiceRT_color,2021.2.3,Win32,71.94762213,,,,,,,,7,Ontime,long,k,1,1.9962,1,1,5,3,1,,,,,
0.08,,,,,,,,,j,red,5ede432f75bfd1073c1501d8,2021-09-27_17h27.51.351,forced_choiceRT_color,2021.2.3,Win32,71.94762213,,,,,,,,7,Ontime,long,j,1,2.0782,1,2,6,2,1,,,,,
0.93,,,,,,,,,d,orange,5ede432f75bfd1073c1501d8,2021-09-27_17h27.51.351,forced_choiceRT_color,2021.2.3,Win32,71.94762213,,,,,,,,7,Fast,long,f,0,1.8482,1,3,7,0,1,,,,,
0.25,,,,,,,,,d,orange,5ede432f75bfd1073c1501d8,2021-09-27_17h27.51.351,forced_choiceRT_color,2021.2.3,Win32,71.94762213,,,,,,,,7,Ontime,long,d,1,2.0072,2,0,8,0,1,,,,,
0.71,,,,,,,,,j,red,5ede432f75bfd1073c1501d8,2021-09-27_17h27.51.351,forced_choiceRT_color,2021.2.3,Win32,71.94762213,,,,,,,,7,Ontime,long,j,1,2.013,2,1,9,2,1,,,,,
0.03,,,,,,,,,k,purple,5ede432f75bfd1073c1501d8,2021-09-27_17h27.51.351,forced_choiceRT_color,2021.2.3,Win32,71.94762213,,,,,,,,7,Slow,long,k,1,2.1133,2,2,10,3,1,,,,,
0.96,,,,,,,,,d,orange,5ede432f75bfd1073c1501d8,2021-09-27_17h27.51.351,forced_choiceRT_color,2021.2.3,Win32,71.94762213,,,,,,,,7,Ontime,long,d,1,1.9908,2,3,11,0,1,,,,,
1.3,,,,,,,,,d,orange,5ede432f75bfd1073c1501d8,2021-09-27_17h27.51.351,forced_choiceRT_color,2021.2.3,Win32,71.94762213,,,,,,,,7,Ontime,long,d,1,1.9936,3,0,12,0,1,,,,,
0.74,,,,,,,,,k,purple,5ede432f75bfd1073c1501d8,2021-09-27_17h27.51.351,forced_choiceRT_color,2021.2.3,Win32,71.94762213,,,,,,,,7,Ontime,long,k,1,2.0815,3,1,13,3,1,,,,,
1.66,,,,,,,,,k,purple,5ede432f75bfd1073c1501d8,2021-09-27_17h27.51.351,forced_choiceRT_color,2021.2.3,Win32,71.94762213,,,,,,,,7,Ontime,long,k,1,1.9847,3,2,14,3,1,,,,,
0.24,,,,,,,,,j,red,5ede432f75bfd1073c1501d8,2021-09-27_17h27.51.351,forced_choiceRT_color,2021.2.3,Win32,71.94762213,,,,,,,,7,Fast,long,j,1,1.8133,3,3,15,2,1,,,,,
0.44,,,,,,,,,f,blue,5ede432f75bfd1073c1501d8,2021-09-27_17h27.51.351,forced_choiceRT_color,2021.2.3,Win32,71.94762213,,,,,,,,7,Ontime,long,f,1,1.9471,4,0,16,1,1,,,,,
1.76,,,,,,,,,f,blue,5ede432f75bfd1073c1501d8,2021-09-27_17h27.51.351,forced_choiceRT_color,2021.2.3,Win32,71.94762213,,,,,,,,7,Slow,long,d,0,2.1046,4,1,17,1,1,,,,,
0.1,,,,,,,,,d,orange,5ede432f75bfd1073c1501d8,2021-09-27_17h27.51.351,forced_choiceRT_color,2021.2.3,Win32,71.94762213,,,,,,,,7,Ontime,long,j,0,1.9545,4,2,18,0,1,,,,,
0.83,,,,,,,,,f,blue,5ede432f75bfd1073c1501d8,2021-09-27_17h27.51.351,forced_choiceRT_color,2021.2.3,Win32,71.94762213,,,,,,,,7,Fast,long,f,1,1.8911,4,3,19,1,1,,,,,
0.01,,,,,,,,,j,red,5ede432f75bfd1073c1501d8,2021-09-27_17h27.51.351,forced_choiceRT_color,2021.2.3,Win32,71.94762213,,,,,,,,7,Ontime,long,j,1,2.0456,5,0,20,2,1,,,,,
0.73,,,,,,,,,f,blue,5ede432f75bfd1073c1501d8,2021-09-27_17h27.51.351,forced_choiceRT_color,2021.2.3,Win32,71.94762213,,,,,,,,7,Ontime,long,f,1,2.0775,5,1,21,1,1,,,,,
1.99,,,,,,,,,f,blue,5ede432f75bfd1073c1501d8,2021-09-27_17h27.51.351,forced_choiceRT_color,2021.2.3,Win32,71.94762213,,,,,,,,7,Ontime,long,k,0,1.9618,5,2,22,1,1,,,,,
1.93,,,,,,,,,d,orange,5ede432f75bfd1073c1501d8,2021-09-27_17h27.51.351,forced_choiceRT_color,2021.2.3,Win32,71.94762213,,,,,,,,7,Ontime,long,k,0,2.0056,5,3,23,0,1,,,,,
1.89,,,,,,,,,d,orange,5ede432f75bfd1073c1501d8,2021-09-27_17h27.51.351,forced_choiceRT_color,2021.2.3,Win32,71.94762213,,,,,,,,7,Ontime,long,d,1,2.0672,6,0,24,0,1,,,,,
1.34,,,,,,,,,f,blue,5ede432f75bfd1073c1501d8,2021-09-27_17h27.51.351,forced_choiceRT_color,2021.2.3,Win32,71.94762213,,,,,,,,7,Ontime,long,f,1,2.0121,6,1,25,1,1,,,,,
1.86,,,,,,,,,k,purple,5ede432f75bfd1073c1501d8,2021-09-27_17h27.51.351,forced_choiceRT_color,2021.2.3,Win32,71.94762213,,,,,,,,7,Ontime,long,j,0,2.0193,6,2,26,3,1,,,,,
0.54,,,,,,,,,k,purple,5ede432f75bfd1073c1501d8,2021-09-27_17h27.51.351,forced_choiceRT_color,2021.2.3,Win32,71.94762213,,,,,,,,7,Slow,long,k,1,2.1039,6,3,27,3,1,,,,,
1.04,,,,,,,,,f,blue,5ede432f75bfd1073c1501d8,2021-09-27_17h27.51.351,forced_choiceRT_color,2021.2.3,Win32,71.94762213,,,,,,,,7,Ontime,long,f,1,1.9011,7,0,28,1,1,,,,,
1.65,,,,,,,,,d,orange,5ede432f75bfd1073c1501d8,2021-09-27_17h27.51.351,forced_choiceRT_color,2021.2.3,Win32,71.94762213,,,,,,,,7,Ontime,long,d,1,1.978,7,1,29,0,1,,,,,
0.41,,,,,,,,,f,blue,5ede432f75bfd1073c1501d8,2021-09-27_17h27.51.351,forced_choiceRT_color,2021.2.3,Win32,71.94762213,,,,,,,,7,Fast,long,f,1,1.8965,7,2,30,1,1,,,,,
0.7,,,,,,,,,k,purple,5ede432f75bfd1073c1501d8,2021-09-27_17h27.51.351,forced_choiceRT_color,2021.2.3,Win32,71.94762213,,,,,,,,7,Ontime,long,k,1,2.0233,7,3,31,3,1,,,,,
1.94,,,,,,,,,j,red,5ede432f75bfd1073c1501d8,2021-09-27_17h27.51.351,forced_choiceRT_color,2021.2.3,Win32,71.94762213,,,,,,,,7,Slow,long,j,1,2.1312,8,0,32,2,1,,,,,
1.48,,,,,,,,,j,red,5ede432f75bfd1073c1501d8,2021-09-27_17h27.51.351,forced_choiceRT_color,2021.2.3,Win32,71.94762213,,,,,,,,7,Fast,long,j,1,1.8491,8,1,33,2,1,,,,,
1.8,,,,,,,,,j,red,5ede432f75bfd1073c1501d8,2021-09-27_17h27.51.351,forced_choiceRT_color,2021.2.3,Win32,71.94762213,,,,,,,,7,Fast,long,j,1,1.8444,8,2,34,2,1,,,,,
1.91,,,,,,,,,f,blue,5ede432f75bfd1073c1501d8,2021-09-27_17h27.51.351,forced_choiceRT_color,2021.2.3,Win32,71.94762213,,,,,,,,7,Ontime,long,j,0,1.934,8,3,35,1,1,,,,,
1.49,,,,,,,,,d,orange,5ede432f75bfd1073c1501d8,2021-09-27_17h27.51.351,forced_choiceRT_color,2021.2.3,Win32,71.94762213,,,,,,,,7,Ontime,long,f,0,1.9206,9,0,36,0,1,,,,,
0.84,,,,,,,,,j,red,5ede432f75bfd1073c1501d8,2021-09-27_17h27.51.351,forced_choiceRT_color,2021.2.3,Win32,71.94762213,,,,,,,,7,Ontime,long,j,1,1.9109,9,1,37,2,1,,,,,
0.29,,,,,,,,,f,blue,5ede432f75bfd1073c1501d8,2021-09-27_17h27.51.351,forced_choiceRT_color,2021.2.3,Win32,71.94762213,,,,,,,,7,Fast,long,f,1,1.801,9,2,38,1,1,,,,,
0.48,,,,,,,,,d,orange,5ede432f75bfd1073c1501d8,2021-09-27_17h27.51.351,forced_choiceRT_color,2021.2.3,Win32,71.94762213,,,,,,,,7,Ontime,long,d,1,2.0358,9,3,39,0,1,,,,,
,,,,,,,,,,,5ede432f75bfd1073c1501d8,2021-09-27_17h27.51.351,forced_choiceRT_color,2021.2.3,Win32,71.94762213,,,,,,,,,,,,,,,,,,,6,0,6,0,1
0.99,,,,,,,,,j,red,5ede432f75bfd1073c1501d8,2021-09-27_17h27.51.351,forced_choiceRT_color,2021.2.3,Win32,71.94762213,,,,,,,,8,Fast,long,j,1,1.851,0,0,0,2,1,,,,,
1.79,,,,,,,,,j,red,5ede432f75bfd1073c1501d8,2021-09-27_17h27.51.351,forced_choiceRT_color,2021.2.3,Win32,71.94762213,,,,,,,,8,Fast,long,j,1,1.8378,0,1,1,2,1,,,,,
0.57,,,,,,,,,d,orange,5ede432f75bfd1073c1501d8,2021-09-27_17h27.51.351,forced_choiceRT_color,2021.2.3,Win32,71.94762213,,,,,,,,8,Fast,long,d,1,1.7741,0,2,2,0,1,,,,,
1.77,,,,,,,,,j,red,5ede432f75bfd1073c1501d8,2021-09-27_17h27.51.351,forced_choiceRT_color,2021.2.3,Win32,71.94762213,,,,,,,,8,Ontime,long,d,0,2.0606,0,3,3,2,1,,,,,
1.68,,,,,,,,,j,red,5ede432f75bfd1073c1501d8,2021-09-27_17h27.51.351,forced_choiceRT_color,2021.2.3,Win32,71.94762213,,,,,,,,8,Ontime,long,k,0,2.0422,1,0,4,2,1,,,,,
1.42,,,,,,,,,d,orange,5ede432f75bfd1073c1501d8,2021-09-27_17h27.51.351,forced_choiceRT_color,2021.2.3,Win32,71.94762213,,,,,,,,8,Ontime,long,d,1,2.0805,1,1,5,0,1,,,,,
0.7,,,,,,,,,f,blue,5ede432f75bfd1073c1501d8,2021-09-27_17h27.51.351,forced_choiceRT_color,2021.2.3,Win32,71.94762213,,,,,,,,8,Ontime,long,f,1,2.0221,1,2,6,1,1,,,,,
0.8,,,,,,,,,d,orange,5ede432f75bfd1073c1501d8,2021-09-27_17h27.51.351,forced_choiceRT_color,2021.2.3,Win32,71.94762213,,,,,,,,8,Ontime,long,d,1,1.9513,1,3,7,0,1,,,,,
0.91,,,,,,,,,j,red,5ede432f75bfd1073c1501d8,2021-09-27_17h27.51.351,forced_choiceRT_color,2021.2.3,Win32,71.94762213,,,,,,,,8,Ontime,long,f,0,1.9019,2,0,8,2,1,,,,,
1.15,,,,,,,,,k,purple,5ede432f75bfd1073c1501d8,2021-09-27_17h27.51.351,forced_choiceRT_color,2021.2.3,Win32,71.94762213,,,,,,,,8,Fast,long,k,1,1.8943,2,1,9,3,1,,,,,
1.32,,,,,,,,,k,purple,5ede432f75bfd1073c1501d8,2021-09-27_17h27.51.351,forced_choiceRT_color,2021.2.3,Win32,71.94762213,,,,,,,,8,Ontime,long,k,1,2.0081,2,2,10,3,1,,,,,
0.88,,,,,,,,,k,purple,5ede432f75bfd1073c1501d8,2021-09-27_17h27.51.351,forced_choiceRT_color,2021.2.3,Win32,71.94762213,,,,,,,,8,Ontime,long,k,1,2.0489,2,3,11,3,1,,,,,
1.8,,,,,,,,,j,red,5ede432f75bfd1073c1501d8,2021-09-27_17h27.51.351,forced_choiceRT_color,2021.2.3,Win32,71.94762213,,,,,,,,8,Ontime,long,k,0,2.0713,3,0,12,2,1,,,,,
0.8,,,,,,,,,d,orange,5ede432f75bfd1073c1501d8,2021-09-27_17h27.51.351,forced_choiceRT_color,2021.2.3,Win32,71.94762213,,,,,,,,8,Ontime,long,d,1,1.9998,3,1,13,0,1,,,,,
0.89,,,,,,,,,f,blue,5ede432f75bfd1073c1501d8,2021-09-27_17h27.51.351,forced_choiceRT_color,2021.2.3,Win32,71.94762213,,,,,,,,8,Ontime,long,f,1,1.9955,3,2,14,1,1,,,,,
1,,,,,,,,,f,blue,5ede432f75bfd1073c1501d8,2021-09-27_17h27.51.351,forced_choiceRT_color,2021.2.3,Win32,71.94762213,,,,,,,,8,Ontime,long,f,1,1.9635,3,3,15,1,1,,,,,
1.87,,,,,,,,,k,purple,5ede432f75bfd1073c1501d8,2021-09-27_17h27.51.351,forced_choiceRT_color,2021.2.3,Win32,71.94762213,,,,,,,,8,Fast,long,d,0,1.8659,4,0,16,3,1,,,,,
1.4,,,,,,,,,d,orange,5ede432f75bfd1073c1501d8,2021-09-27_17h27.51.351,forced_choiceRT_color,2021.2.3,Win32,71.94762213,,,,,,,,8,Ontime,long,j,0,2.0745,4,1,17,0,1,,,,,
0.7,,,,,,,,,k,purple,5ede432f75bfd1073c1501d8,2021-09-27_17h27.51.351,forced_choiceRT_color,2021.2.3,Win32,71.94762213,,,,,,,,8,Ontime,long,k,1,1.9646,4,2,18,3,1,,,,,
1.69,,,,,,,,,f,blue,5ede432f75bfd1073c1501d8,2021-09-27_17h27.51.351,forced_choiceRT_color,2021.2.3,Win32,71.94762213,,,,,,,,8,Ontime,long,d,0,1.9161,4,3,19,1,1,,,,,
0.22,,,,,,,,,k,purple,5ede432f75bfd1073c1501d8,2021-09-27_17h27.51.351,forced_choiceRT_color,2021.2.3,Win32,71.94762213,,,,,,,,8,Ontime,long,k,1,2.0227,5,0,20,3,1,,,,,
0.75,,,,,,,,,k,purple,5ede432f75bfd1073c1501d8,2021-09-27_17h27.51.351,forced_choiceRT_color,2021.2.3,Win32,71.94762213,,,,,,,,8,Ontime,long,k,1,1.9341,5,1,21,3,1,,,,,
0.04,,,,,,,,,j,red,5ede432f75bfd1073c1501d8,2021-09-27_17h27.51.351,forced_choiceRT_color,2021.2.3,Win32,71.94762213,,,,,,,,8,Fast,long,j,1,1.8443,5,2,22,2,1,,,,,
0.67,,,,,,,,,f,blue,5ede432f75bfd1073c1501d8,2021-09-27_17h27.51.351,forced_choiceRT_color,2021.2.3,Win32,71.94762213,,,,,,,,8,Ontime,long,f,1,1.9023,5,3,23,1,1,,,,,
1.76,,,,,,,,,k,purple,5ede432f75bfd1073c1501d8,2021-09-27_17h27.51.351,forced_choiceRT_color,2021.2.3,Win32,71.94762213,,,,,,,,8,Ontime,long,d,0,2.0287,6,0,24,3,1,,,,,
1.45,,,,,,,,,d,orange,5ede432f75bfd1073c1501d8,2021-09-27_17h27.51.351,forced_choiceRT_color,2021.2.3,Win32,71.94762213,,,,,,,,8,Slow,long,d,1,2.2241,6,1,25,0,1,,,,,
0,,,,,,,,,d,orange,5ede432f75bfd1073c1501d8,2021-09-27_17h27.51.351,forced_choiceRT_color,2021.2.3,Win32,71.94762213,,,,,,,,8,Ontime,long,d,1,2.0856,6,2,26,0,1,,,,,
1.33,,,,,,,,,j,red,5ede432f75bfd1073c1501d8,2021-09-27_17h27.51.351,forced_choiceRT_color,2021.2.3,Win32,71.94762213,,,,,,,,8,Ontime,long,j,1,2.0371,6,3,27,2,1,,,,,
0.64,,,,,,,,,j,red,5ede432f75bfd1073c1501d8,2021-09-27_17h27.51.351,forced_choiceRT_color,2021.2.3,Win32,71.94762213,,,,,,,,8,Ontime,long,j,1,2.0408,7,0,28,2,1,,,,,
1.48,,,,,,,,,f,blue,5ede432f75bfd1073c1501d8,2021-09-27_17h27.51.351,forced_choiceRT_color,2021.2.3,Win32,71.94762213,,,,,,,,8,Ontime,long,j,0,1.9517,7,1,29,1,1,,,,,
1.79,,,,,,,,,f,blue,5ede432f75bfd1073c1501d8,2021-09-27_17h27.51.351,forced_choiceRT_color,2021.2.3,Win32,71.94762213,,,,,,,,8,Ontime,long,f,1,2.0663,7,2,30,1,1,,,,,
1.17,,,,,,,,,k,purple,5ede432f75bfd1073c1501d8,2021-09-27_17h27.51.351,forced_choiceRT_color,2021.2.3,Win32,71.94762213,,,,,,,,8,Slow,long,k,1,2.1008,7,3,31,3,1,,,,,
1.88,,,,,,,,,d,orange,5ede432f75bfd1073c1501d8,2021-09-27_17h27.51.351,forced_choiceRT_color,2021.2.3,Win32,71.94762213,,,,,,,,8,Slow,long,k,0,2.1336,8,0,32,0,1,,,,,
1.99,,,,,,,,,j,red,5ede432f75bfd1073c1501d8,2021-09-27_17h27.51.351,forced_choiceRT_color,2021.2.3,Win32,71.94762213,,,,,,,,8,Ontime,long,f,0,2.0049,8,1,33,2,1,,,,,
0.69,,,,,,,,,k,purple,5ede432f75bfd1073c1501d8,2021-09-27_17h27.51.351,forced_choiceRT_color,2021.2.3,Win32,71.94762213,,,,,,,,8,Ontime,long,k,1,2.0136,8,2,34,3,1,,,,,
1.49,,,,,,,,,d,orange,5ede432f75bfd1073c1501d8,2021-09-27_17h27.51.351,forced_choiceRT_color,2021.2.3,Win32,71.94762213,,,,,,,,8,Ontime,long,j,0,2.0729,8,3,35,0,1,,,,,
0.48,,,,,,,,,d,orange,5ede432f75bfd1073c1501d8,2021-09-27_17h27.51.351,forced_choiceRT_color,2021.2.3,Win32,71.94762213,,,,,,,,8,Ontime,long,d,1,1.986,9,0,36,0,1,,,,,
0.69,,,,,,,,,f,blue,5ede432f75bfd1073c1501d8,2021-09-27_17h27.51.351,forced_choiceRT_color,2021.2.3,Win32,71.94762213,,,,,,,,8,Ontime,long,f,1,1.9531,9,1,37,1,1,,,,,
0.45,,,,,,,,,f,blue,5ede432f75bfd1073c1501d8,2021-09-27_17h27.51.351,forced_choiceRT_color,2021.2.3,Win32,71.94762213,,,,,,,,8,Fast,long,f,1,1.8089,9,2,38,1,1,,,,,
0.56,,,,,,,,,f,blue,5ede432f75bfd1073c1501d8,2021-09-27_17h27.51.351,forced_choiceRT_color,2021.2.3,Win32,71.94762213,,,,,,,,8,Ontime,long,f,1,1.9858,9,3,39,1,1,,,,,
,,,,,,,,,,,5ede432f75bfd1073c1501d8,2021-09-27_17h27.51.351,forced_choiceRT_color,2021.2.3,Win32,71.94762213,,,,,,,,,,,,,,,,,,,7,0,7,0,1
1.02,,,,,,,,,d,orange,5ede432f75bfd1073c1501d8,2021-09-27_17h27.51.351,forced_choiceRT_color,2021.2.3,Win32,71.94762213,,,,,,,,9,Fast,long,d,1,1.8449,0,0,0,0,1,,,,,
0.21,,,,,,,,,f,blue,5ede432f75bfd1073c1501d8,2021-09-27_17h27.51.351,forced_choiceRT_color,2021.2.3,Win32,71.94762213,,,,,,,,9,Ontime,long,f,1,1.9672,0,1,1,1,1,,,,,
0.98,,,,,,,,,k,purple,5ede432f75bfd1073c1501d8,2021-09-27_17h27.51.351,forced_choiceRT_color,2021.2.3,Win32,71.94762213,,,,,,,,9,Ontime,long,k,1,1.9861,0,2,2,3,1,,,,,
0.61,,,,,,,,,d,orange,5ede432f75bfd1073c1501d8,2021-09-27_17h27.51.351,forced_choiceRT_color,2021.2.3,Win32,71.94762213,,,,,,,,9,Ontime,long,d,1,2.0081,0,3,3,0,1,,,,,
1.6,,,,,,,,,f,blue,5ede432f75bfd1073c1501d8,2021-09-27_17h27.51.351,forced_choiceRT_color,2021.2.3,Win32,71.94762213,,,,,,,,9,Ontime,long,d,0,2.0666,1,0,4,1,1,,,,,
1.68,,,,,,,,,f,blue,5ede432f75bfd1073c1501d8,2021-09-27_17h27.51.351,forced_choiceRT_color,2021.2.3,Win32,71.94762213,,,,,,,,9,Fast,long,f,1,1.8214,1,1,5,1,1,,,,,
0.35,,,,,,,,,j,red,5ede432f75bfd1073c1501d8,2021-09-27_17h27.51.351,forced_choiceRT_color,2021.2.3,Win32,71.94762213,,,,,,,,9,Slow,long,j,1,2.4051,1,2,6,2,1,,,,,
0.84,,,,,,,,,k,purple,5ede432f75bfd1073c1501d8,2021-09-27_17h27.51.351,forced_choiceRT_color,2021.2.3,Win32,71.94762213,,,,,,,,9,Ontime,long,k,1,2.0813,1,3,7,3,1,,,,,
1.89,,,,,,,,,j,red,5ede432f75bfd1073c1501d8,2021-09-27_17h27.51.351,forced_choiceRT_color,2021.2.3,Win32,71.94762213,,,,,,,,9,Fast,long,j,1,1.8084,2,0,8,2,1,,,,,
0.01,,,,,,,,,d,orange,5ede432f75bfd1073c1501d8,2021-09-27_17h27.51.351,forced_choiceRT_color,2021.2.3,Win32,71.94762213,,,,,,,,9,Ontime,long,d,1,1.9435,2,1,9,0,1,,,,,
0.72,,,,,,,,,d,orange,5ede432f75bfd1073c1501d8,2021-09-27_17h27.51.351,forced_choiceRT_color,2021.2.3,Win32,71.94762213,,,,,,,,9,Ontime,long,d,1,2.0361,2,2,10,0,1,,,,,
0.19,,,,,,,,,f,blue,5ede432f75bfd1073c1501d8,2021-09-27_17h27.51.351,forced_choiceRT_color,2021.2.3,Win32,71.94762213,,,,,,,,9,Ontime,long,f,1,2.035,2,3,11,1,1,,,,,
0.4,,,,,,,,,j,red,5ede432f75bfd1073c1501d8,2021-09-27_17h27.51.351,forced_choiceRT_color,2021.2.3,Win32,71.94762213,,,,,,,,9,Ontime,long,j,1,2.0263,3,0,12,2,1,,,,,
1.01,,,,,,,,,k,purple,5ede432f75bfd1073c1501d8,2021-09-27_17h27.51.351,forced_choiceRT_color,2021.2.3,Win32,71.94762213,,,,,,,,9,Ontime,long,k,1,2.0895,3,1,13,3,1,,,,,
0.95,,,,,,,,,f,blue,5ede432f75bfd1073c1501d8,2021-09-27_17h27.51.351,forced_choiceRT_color,2021.2.3,Win32,71.94762213,,,,,,,,9,Ontime,long,f,1,2.0067,3,2,14,1,1,,,,,
1.64,,,,,,,,,f,blue,5ede432f75bfd1073c1501d8,2021-09-27_17h27.51.351,forced_choiceRT_color,2021.2.3,Win32,71.94762213,,,,,,,,9,Slow,long,d,0,2.1864,3,3,15,1,1,,,,,
0.77,,,,,,,,,j,red,5ede432f75bfd1073c1501d8,2021-09-27_17h27.51.351,forced_choiceRT_color,2021.2.3,Win32,71.94762213,,,,,,,,9,Ontime,long,j,1,2.0074,4,0,16,2,1,,,,,
1.22,,,,,,,,,d,orange,5ede432f75bfd1073c1501d8,2021-09-27_17h27.51.351,forced_choiceRT_color,2021.2.3,Win32,71.94762213,,,,,,,,9,Ontime,long,d,1,2.0398,4,1,17,0,1,,,,,
1.48,,,,,,,,,k,purple,5ede432f75bfd1073c1501d8,2021-09-27_17h27.51.351,forced_choiceRT_color,2021.2.3,Win32,71.94762213,,,,,,,,9,Slow,long,k,1,2.129,4,2,18,3,1,,,,,
0.07,,,,,,,,,k,purple,5ede432f75bfd1073c1501d8,2021-09-27_17h27.51.351,forced_choiceRT_color,2021.2.3,Win32,71.94762213,,,,,,,,9,Fast,long,k,1,1.7953,4,3,19,3,1,,,,,
1.17,,,,,,,,,j,red,5ede432f75bfd1073c1501d8,2021-09-27_17h27.51.351,forced_choiceRT_color,2021.2.3,Win32,71.94762213,,,,,,,,9,Ontime,long,f,0,2.0849,5,0,20,2,1,,,,,
1.24,,,,,,,,,j,red,5ede432f75bfd1073c1501d8,2021-09-27_17h27.51.351,forced_choiceRT_color,2021.2.3,Win32,71.94762213,,,,,,,,9,Ontime,long,f,0,2.0563,5,1,21,2,1,,,,,
0.56,,,,,,,,,d,orange,5ede432f75bfd1073c1501d8,2021-09-27_17h27.51.351,forced_choiceRT_color,2021.2.3,Win32,71.94762213,,,,,,,,9,Ontime,long,d,1,1.9838,5,2,22,0,1,,,,,
1.14,,,,,,,,,j,red,5ede432f75bfd1073c1501d8,2021-09-27_17h27.51.351,forced_choiceRT_color,2021.2.3,Win32,71.94762213,,,,,,,,9,Ontime,long,f,0,2.0427,5,3,23,2,1,,,,,
1.41,,,,,,,,,j,red,5ede432f75bfd1073c1501d8,2021-09-27_17h27.51.351,forced_choiceRT_color,2021.2.3,Win32,71.94762213,,,,,,,,9,Ontime,long,f,0,2.0521,6,0,24,2,1,,,,,
1.07,,,,,,,,,d,orange,5ede432f75bfd1073c1501d8,2021-09-27_17h27.51.351,forced_choiceRT_color,2021.2.3,Win32,71.94762213,,,,,,,,9,Ontime,long,d,1,2.0037,6,1,25,0,1,,,,,
1.59,,,,,,,,,d,orange,5ede432f75bfd1073c1501d8,2021-09-27_17h27.51.351,forced_choiceRT_color,2021.2.3,Win32,71.94762213,,,,,,,,9,Slow,long,d,1,2.2596,6,2,26,0,1,,,,,
0.89,,,,,,,,,j,red,5ede432f75bfd1073c1501d8,2021-09-27_17h27.51.351,forced_choiceRT_color,2021.2.3,Win32,71.94762213,,,,,,,,9,Ontime,long,j,1,1.9882,6,3,27,2,1,,,,,
1.76,,,,,,,,,j,red,5ede432f75bfd1073c1501d8,2021-09-27_17h27.51.351,forced_choiceRT_color,2021.2.3,Win32,71.94762213,,,,,,,,9,Ontime,long,k,0,2.0741,7,0,28,2,1,,,,,
0.92,,,,,,,,,d,orange,5ede432f75bfd1073c1501d8,2021-09-27_17h27.51.351,forced_choiceRT_color,2021.2.3,Win32,71.94762213,,,,,,,,9,Ontime,long,d,1,1.9158,7,1,29,0,1,,,,,
1.84,,,,,,,,,d,orange,5ede432f75bfd1073c1501d8,2021-09-27_17h27.51.351,forced_choiceRT_color,2021.2.3,Win32,71.94762213,,,,,,,,9,Slow,long,f,0,2.2025,7,2,30,0,1,,,,,
1.05,,,,,,,,,f,blue,5ede432f75bfd1073c1501d8,2021-09-27_17h27.51.351,forced_choiceRT_color,2021.2.3,Win32,71.94762213,,,,,,,,9,Fast,long,f,1,1.8131,7,3,31,1,1,,,,,
1.15,,,,,,,,,k,purple,5ede432f75bfd1073c1501d8,2021-09-27_17h27.51.351,forced_choiceRT_color,2021.2.3,Win32,71.94762213,,,,,,,,9,Ontime,long,j,0,2.0019,8,0,32,3,1,,,,,
0.55,,,,,,,,,k,purple,5ede432f75bfd1073c1501d8,2021-09-27_17h27.51.351,forced_choiceRT_color,2021.2.3,Win32,71.94762213,,,,,,,,9,Ontime,long,j,0,2.08,8,1,33,3,1,,,,,
0.89,,,,,,,,,k,purple,5ede432f75bfd1073c1501d8,2021-09-27_17h27.51.351,forced_choiceRT_color,2021.2.3,Win32,71.94762213,,,,,,,,9,Ontime,long,k,1,2.0095,8,2,34,3,1,,,,,
1.08,,,,,,,,,k,purple,5ede432f75bfd1073c1501d8,2021-09-27_17h27.51.351,forced_choiceRT_color,2021.2.3,Win32,71.94762213,,,,,,,,9,Ontime,long,k,1,1.9693,8,3,35,3,1,,,,,
0.55,,,,,,,,,f,blue,5ede432f75bfd1073c1501d8,2021-09-27_17h27.51.351,forced_choiceRT_color,2021.2.3,Win32,71.94762213,,,,,,,,9,Ontime,long,f,1,2.0151,9,0,36,1,1,,,,,
1.51,,,,,,,,,f,blue,5ede432f75bfd1073c1501d8,2021-09-27_17h27.51.351,forced_choiceRT_color,2021.2.3,Win32,71.94762213,,,,,,,,9,Ontime,long,f,1,1.9353,9,1,37,1,1,,,,,
1.64,,,,,,,,,k,purple,5ede432f75bfd1073c1501d8,2021-09-27_17h27.51.351,forced_choiceRT_color,2021.2.3,Win32,71.94762213,,,,,,,,9,Slow,long,k,1,2.1956,9,2,38,3,1,,,,,
1.51,,,,,,,,,f,blue,5ede432f75bfd1073c1501d8,2021-09-27_17h27.51.351,forced_choiceRT_color,2021.2.3,Win32,71.94762213,,,,,,,,9,Fast,long,k,0,1.8938,9,3,39,1,1,,,,,
,,,,,,,,,,,5ede432f75bfd1073c1501d8,2021-09-27_17h27.51.351,forced_choiceRT_color,2021.2.3,Win32,71.94762213,,,,,,,,,,,,,,,,,,,8,0,8,0,1
0.13,,,,,,,,,f,blue,5ede432f75bfd1073c1501d8,2021-09-27_17h27.51.351,forced_choiceRT_color,2021.2.3,Win32,71.94762213,,,,,,,,10,Ontime,long,f,1,2.0276,0,0,0,1,1,,,,,
0.66,,,,,,,,,d,orange,5ede432f75bfd1073c1501d8,2021-09-27_17h27.51.351,forced_choiceRT_color,2021.2.3,Win32,71.94762213,,,,,,,,10,Ontime,long,d,1,2.0568,0,1,1,0,1,,,,,
0.19,,,,,,,,,f,blue,5ede432f75bfd1073c1501d8,2021-09-27_17h27.51.351,forced_choiceRT_color,2021.2.3,Win32,71.94762213,,,,,,,,10,Ontime,long,f,1,2.0389,0,2,2,1,1,,,,,
1.23,,,,,,,,,d,orange,5ede432f75bfd1073c1501d8,2021-09-27_17h27.51.351,forced_choiceRT_color,2021.2.3,Win32,71.94762213,,,,,,,,10,Ontime,long,d,1,2.0595,0,3,3,0,1,,,,,
0.9,,,,,,,,,f,blue,5ede432f75bfd1073c1501d8,2021-09-27_17h27.51.351,forced_choiceRT_color,2021.2.3,Win32,71.94762213,,,,,,,,10,Ontime,long,f,1,2.0601,1,0,4,1,1,,,,,
1.78,,,,,,,,,f,blue,5ede432f75bfd1073c1501d8,2021-09-27_17h27.51.351,forced_choiceRT_color,2021.2.3,Win32,71.94762213,,,,,,,,10,Slow,long,f,1,2.1316,1,1,5,1,1,,,,,
0.29,,,,,,,,,k,purple,5ede432f75bfd1073c1501d8,2021-09-27_17h27.51.351,forced_choiceRT_color,2021.2.3,Win32,71.94762213,,,,,,,,10,Ontime,long,k,1,2.0625,1,2,6,3,1,,,,,
1.78,,,,,,,,,j,red,5ede432f75bfd1073c1501d8,2021-09-27_17h27.51.351,forced_choiceRT_color,2021.2.3,Win32,71.94762213,,,,,,,,10,Ontime,long,k,0,2.0696,1,3,7,2,1,,,,,
1.07,,,,,,,,,k,purple,5ede432f75bfd1073c1501d8,2021-09-27_17h27.51.351,forced_choiceRT_color,2021.2.3,Win32,71.94762213,,,,,,,,10,Ontime,long,k,1,1.9594,2,0,8,3,1,,,,,
1.72,,,,,,,,,k,purple,5ede432f75bfd1073c1501d8,2021-09-27_17h27.51.351,forced_choiceRT_color,2021.2.3,Win32,71.94762213,,,,,,,,10,Ontime,long,j,0,2.0227,2,1,9,3,1,,,,,
1.55,,,,,,,,,d,orange,5ede432f75bfd1073c1501d8,2021-09-27_17h27.51.351,forced_choiceRT_color,2021.2.3,Win32,71.94762213,,,,,,,,10,Slow,long,f,0,2.1115,2,2,10,0,1,,,,,
0.06,,,,,,,,,f,blue,5ede432f75bfd1073c1501d8,2021-09-27_17h27.51.351,forced_choiceRT_color,2021.2.3,Win32,71.94762213,,,,,,,,10,Ontime,long,f,1,1.9373,2,3,11,1,1,,,,,
0.9,,,,,,,,,k,purple,5ede432f75bfd1073c1501d8,2021-09-27_17h27.51.351,forced_choiceRT_color,2021.2.3,Win32,71.94762213,,,,,,,,10,Ontime,long,k,1,1.9571,3,0,12,3,1,,,,,
0.1,,,,,,,,,j,red,5ede432f75bfd1073c1501d8,2021-09-27_17h27.51.351,forced_choiceRT_color,2021.2.3,Win32,71.94762213,,,,,,,,10,Ontime,long,j,1,2.0473,3,1,13,2,1,,,,,
1.63,,,,,,,,,f,blue,5ede432f75bfd1073c1501d8,2021-09-27_17h27.51.351,forced_choiceRT_color,2021.2.3,Win32,71.94762213,,,,,,,,10,Ontime,long,j,0,1.9818,3,2,14,1,1,,,,,
0.67,,,,,,,,,k,purple,5ede432f75bfd1073c1501d8,2021-09-27_17h27.51.351,forced_choiceRT_color,2021.2.3,Win32,71.94762213,,,,,,,,10,Ontime,long,k,1,2.0061,3,3,15,3,1,,,,,
0.28,,,,,,,,,f,blue,5ede432f75bfd1073c1501d8,2021-09-27_17h27.51.351,forced_choiceRT_color,2021.2.3,Win32,71.94762213,,,,,,,,10,Fast,long,f,1,1.8394,4,0,16,1,1,,,,,
1.05,,,,,,,,,j,red,5ede432f75bfd1073c1501d8,2021-09-27_17h27.51.351,forced_choiceRT_color,2021.2.3,Win32,71.94762213,,,,,,,,10,Ontime,long,j,1,1.9489,4,1,17,2,1,,,,,
1.77,,,,,,,,,d,orange,5ede432f75bfd1073c1501d8,2021-09-27_17h27.51.351,forced_choiceRT_color,2021.2.3,Win32,71.94762213,,,,,,,,10,Ontime,long,j,0,1.9271,4,2,18,0,1,,,,,
0.35,,,,,,,,,k,purple,5ede432f75bfd1073c1501d8,2021-09-27_17h27.51.351,forced_choiceRT_color,2021.2.3,Win32,71.94762213,,,,,,,,10,Ontime,long,k,1,1.9847,4,3,19,3,1,,,,,
1.18,,,,,,,,,k,purple,5ede432f75bfd1073c1501d8,2021-09-27_17h27.51.351,forced_choiceRT_color,2021.2.3,Win32,71.94762213,,,,,,,,10,Fast,long,k,1,1.8899,5,0,20,3,1,,,,,
0.11,,,,,,,,,f,blue,5ede432f75bfd1073c1501d8,2021-09-27_17h27.51.351,forced_choiceRT_color,2021.2.3,Win32,71.94762213,,,,,,,,10,Ontime,long,f,1,2.0077,5,1,21,1,1,,,,,
1.07,,,,,,,,,d,orange,5ede432f75bfd1073c1501d8,2021-09-27_17h27.51.351,forced_choiceRT_color,2021.2.3,Win32,71.94762213,,,,,,,,10,Fast,long,d,1,1.8908,5,2,22,0,1,,,,,
1.33,,,,,,,,,j,red,5ede432f75bfd1073c1501d8,2021-09-27_17h27.51.351,forced_choiceRT_color,2021.2.3,Win32,71.94762213,,,,,,,,10,Ontime,long,j,1,1.9876,5,3,23,2,1,,,,,
0.81,,,,,,,,,f,blue,5ede432f75bfd1073c1501d8,2021-09-27_17h27.51.351,forced_choiceRT_color,2021.2.3,Win32,71.94762213,,,,,,,,10,Slow,long,f,1,2.104,6,0,24,1,1,,,,,
0.34,,,,,,,,,j,red,5ede432f75bfd1073c1501d8,2021-09-27_17h27.51.351,forced_choiceRT_color,2021.2.3,Win32,71.94762213,,,,,,,,10,Fast,long,j,1,1.8642,6,1,25,2,1,,,,,
0.94,,,,,,,,,j,red,5ede432f75bfd1073c1501d8,2021-09-27_17h27.51.351,forced_choiceRT_color,2021.2.3,Win32,71.94762213,,,,,,,,10,Ontime,long,j,1,1.9631,6,2,26,2,1,,,,,
1.42,,,,,,,,,d,orange,5ede432f75bfd1073c1501d8,2021-09-27_17h27.51.351,forced_choiceRT_color,2021.2.3,Win32,71.94762213,,,,,,,,10,Ontime,long,j,0,2.0579,6,3,27,0,1,,,,,
1.65,,,,,,,,,f,blue,5ede432f75bfd1073c1501d8,2021-09-27_17h27.51.351,forced_choiceRT_color,2021.2.3,Win32,71.94762213,,,,,,,,10,Slow,long,f,1,2.213,7,0,28,1,1,,,,,
1.74,,,,,,,,,j,red,5ede432f75bfd1073c1501d8,2021-09-27_17h27.51.351,forced_choiceRT_color,2021.2.3,Win32,71.94762213,,,,,,,,10,Ontime,long,j,1,1.9846,7,1,29,2,1,,,,,
0.87,,,,,,,,,d,orange,5ede432f75bfd1073c1501d8,2021-09-27_17h27.51.351,forced_choiceRT_color,2021.2.3,Win32,71.94762213,,,,,,,,10,Ontime,long,f,0,2.0707,7,2,30,0,1,,,,,
0.68,,,,,,,,,k,purple,5ede432f75bfd1073c1501d8,2021-09-27_17h27.51.351,forced_choiceRT_color,2021.2.3,Win32,71.94762213,,,,,,,,10,Ontime,long,k,1,2.056,7,3,31,3,1,,,,,
1.72,,,,,,,,,j,red,5ede432f75bfd1073c1501d8,2021-09-27_17h27.51.351,forced_choiceRT_color,2021.2.3,Win32,71.94762213,,,,,,,,10,Slow,long,j,1,2.1241,8,0,32,2,1,,,,,
1.09,,,,,,,,,d,orange,5ede432f75bfd1073c1501d8,2021-09-27_17h27.51.351,forced_choiceRT_color,2021.2.3,Win32,71.94762213,,,,,,,,10,Ontime,long,d,1,1.9961,8,1,33,0,1,,,,,
0.96,,,,,,,,,k,purple,5ede432f75bfd1073c1501d8,2021-09-27_17h27.51.351,forced_choiceRT_color,2021.2.3,Win32,71.94762213,,,,,,,,10,Fast,long,k,1,1.8836,8,2,34,3,1,,,,,
0.5,,,,,,,,,k,purple,5ede432f75bfd1073c1501d8,2021-09-27_17h27.51.351,forced_choiceRT_color,2021.2.3,Win32,71.94762213,,,,,,,,10,Slow,long,k,1,2.1071,8,3,35,3,1,,,,,
1.44,,,,,,,,,d,orange,5ede432f75bfd1073c1501d8,2021-09-27_17h27.51.351,forced_choiceRT_color,2021.2.3,Win32,71.94762213,,,,,,,,10,Ontime,long,j,0,2.0477,9,0,36,0,1,,,,,
0.02,,,,,,,,,j,red,5ede432f75bfd1073c1501d8,2021-09-27_17h27.51.351,forced_choiceRT_color,2021.2.3,Win32,71.94762213,,,,,,,,10,Ontime,long,j,1,2.0863,9,1,37,2,1,,,,,
1.62,,,,,,,,,d,orange,5ede432f75bfd1073c1501d8,2021-09-27_17h27.51.351,forced_choiceRT_color,2021.2.3,Win32,71.94762213,,,,,,,,10,Ontime,long,d,1,2.074,9,2,38,0,1,,,,,
1.75,,,,,,,,,j,red,5ede432f75bfd1073c1501d8,2021-09-27_17h27.51.351,forced_choiceRT_color,2021.2.3,Win32,71.94762213,,,,,,,,10,Ontime,long,f,0,1.9909,9,3,39,2,1,,,,,
,,,,,,,,,,,5ede432f75bfd1073c1501d8,2021-09-27_17h27.51.351,forced_choiceRT_color,2021.2.3,Win32,71.94762213,,,,,,,,,,,,,,,,,,,9,0,9,0,1
