IP_Addresss,target_onset,trial_resp_sp.keys,trial_resp_sp.corr,trial_resp_sp.rt,trials_train_loop.thisRepN,trials_train_loop.thisTrialN,trials_train_loop.thisN,trials_train_loop.thisIndex,trials_train_loop.ran,correct_key,color,participant,date,expName,psychopyVersion,OS,frameRate,trial_resp_timing.keys,trial_resp_timing.rt,trials_train_timing.thisRepN,trials_train_timing.thisTrialN,trials_train_timing.thisN,trials_train_timing.thisIndex,trials_train_timing.ran,block_id,ontime,feedback_cond,forcedRT_resp.keys,forcedRT_resp.corr,forcedRT_resp.rt,trials.thisRepN,trials.thisTrialN,trials.thisN,trials.thisIndex,trials.ran,blocks.thisRepN,blocks.thisTrialN,blocks.thisN,blocks.thisIndex,blocks.ran
85.56.89.19,0,f,1,1.781,0,0,0,1,1,f,blue,5ee29028fb6eba3d81ebf0f9,2021-09-27_23h08.08,forced_choiceRT_color,2021.2.3,MacIntel,62.5,,,,,,,,,,,,,,,,,,,,,,,
,0,j,1,0.8,0,1,1,2,1,j,red,5ee29028fb6eba3d81ebf0f9,2021-09-27_23h08.08,forced_choiceRT_color,2021.2.3,MacIntel,62.5,,,,,,,,,,,,,,,,,,,,,,,
,0,k,1,0.509,0,2,2,3,1,k,purple,5ee29028fb6eba3d81ebf0f9,2021-09-27_23h08.08,forced_choiceRT_color,2021.2.3,MacIntel,62.5,,,,,,,,,,,,,,,,,,,,,,,
,0,d,1,0.619,0,3,3,0,1,d,orange,5ee29028fb6eba3d81ebf0f9,2021-09-27_23h08.08,forced_choiceRT_color,2021.2.3,MacIntel,62.5,,,,,,,,,,,,,,,,,,,,,,,
,0,d,1,0.601,1,0,4,0,1,d,orange,5ee29028fb6eba3d81ebf0f9,2021-09-27_23h08.08,forced_choiceRT_color,2021.2.3,MacIntel,62.5,,,,,,,,,,,,,,,,,,,,,,,
,0,k,0,0.624,1,1,5,2,1,j,red,5ee29028fb6eba3d81ebf0f9,2021-09-27_23h08.08,forced_choiceRT_color,2021.2.3,MacIntel,62.5,,,,,,,,,,,,,,,,,,,,,,,
,0,j,1,0.773,1,2,6,2,1,j,red,5ee29028fb6eba3d81ebf0f9,2021-09-27_23h08.08,forced_choiceRT_color,2021.2.3,MacIntel,62.5,,,,,,,,,,,,,,,,,,,,,,,
,0,k,1,0.668,1,3,7,3,1,k,purple,5ee29028fb6eba3d81ebf0f9,2021-09-27_23h08.08,forced_choiceRT_color,2021.2.3,MacIntel,62.5,,,,,,,,,,,,,,,,,,,,,,,
,0,k,1,0.636,2,0,8,3,1,k,purple,5ee29028fb6eba3d81ebf0f9,2021-09-27_23h08.08,forced_choiceRT_color,2021.2.3,MacIntel,62.5,,,,,,,,,,,,,,,,,,,,,,,
,0,j,1,0.549,2,1,9,2,1,j,red,5ee29028fb6eba3d81ebf0f9,2021-09-27_23h08.08,forced_choiceRT_color,2021.2.3,MacIntel,62.5,,,,,,,,,,,,,,,,,,,,,,,
,0,d,0,0.742,2,2,10,1,1,f,blue,5ee29028fb6eba3d81ebf0f9,2021-09-27_23h08.08,forced_choiceRT_color,2021.2.3,MacIntel,62.5,,,,,,,,,,,,,,,,,,,,,,,
,0,j,1,1.256,2,3,11,2,1,j,red,5ee29028fb6eba3d81ebf0f9,2021-09-27_23h08.08,forced_choiceRT_color,2021.2.3,MacIntel,62.5,,,,,,,,,,,,,,,,,,,,,,,
,0,f,1,0.683,3,0,12,1,1,f,blue,5ee29028fb6eba3d81ebf0f9,2021-09-27_23h08.08,forced_choiceRT_color,2021.2.3,MacIntel,62.5,,,,,,,,,,,,,,,,,,,,,,,
,0,d,1,0.671,3,1,13,0,1,d,orange,5ee29028fb6eba3d81ebf0f9,2021-09-27_23h08.08,forced_choiceRT_color,2021.2.3,MacIntel,62.5,,,,,,,,,,,,,,,,,,,,,,,
,0,j,1,0.801,3,2,14,2,1,j,red,5ee29028fb6eba3d81ebf0f9,2021-09-27_23h08.08,forced_choiceRT_color,2021.2.3,MacIntel,62.5,,,,,,,,,,,,,,,,,,,,,,,
,0,d,1,0.927,3,3,15,0,1,d,orange,5ee29028fb6eba3d81ebf0f9,2021-09-27_23h08.08,forced_choiceRT_color,2021.2.3,MacIntel,62.5,,,,,,,,,,,,,,,,,,,,,,,
,0,k,1,1.156,4,0,16,3,1,k,purple,5ee29028fb6eba3d81ebf0f9,2021-09-27_23h08.08,forced_choiceRT_color,2021.2.3,MacIntel,62.5,,,,,,,,,,,,,,,,,,,,,,,
,0,k,1,0.591,4,1,17,3,1,k,purple,5ee29028fb6eba3d81ebf0f9,2021-09-27_23h08.08,forced_choiceRT_color,2021.2.3,MacIntel,62.5,,,,,,,,,,,,,,,,,,,,,,,
,0,k,1,0.534,4,2,18,3,1,k,purple,5ee29028fb6eba3d81ebf0f9,2021-09-27_23h08.08,forced_choiceRT_color,2021.2.3,MacIntel,62.5,,,,,,,,,,,,,,,,,,,,,,,
,0,k,1,0.41,4,3,19,3,1,k,purple,5ee29028fb6eba3d81ebf0f9,2021-09-27_23h08.08,forced_choiceRT_color,2021.2.3,MacIntel,62.5,,,,,,,,,,,,,,,,,,,,,,,
,0,d,1,1,5,0,20,0,1,d,orange,5ee29028fb6eba3d81ebf0f9,2021-09-27_23h08.08,forced_choiceRT_color,2021.2.3,MacIntel,62.5,,,,,,,,,,,,,,,,,,,,,,,
,0,d,1,0.558,5,1,21,0,1,d,orange,5ee29028fb6eba3d81ebf0f9,2021-09-27_23h08.08,forced_choiceRT_color,2021.2.3,MacIntel,62.5,,,,,,,,,,,,,,,,,,,,,,,
,0,d,1,0.509,5,2,22,0,1,d,orange,5ee29028fb6eba3d81ebf0f9,2021-09-27_23h08.08,forced_choiceRT_color,2021.2.3,MacIntel,62.5,,,,,,,,,,,,,,,,,,,,,,,
,0,f,1,0.633,5,3,23,1,1,f,blue,5ee29028fb6eba3d81ebf0f9,2021-09-27_23h08.08,forced_choiceRT_color,2021.2.3,MacIntel,62.5,,,,,,,,,,,,,,,,,,,,,,,
,0,k,1,0.719,6,0,24,3,1,k,purple,5ee29028fb6eba3d81ebf0f9,2021-09-27_23h08.08,forced_choiceRT_color,2021.2.3,MacIntel,62.5,,,,,,,,,,,,,,,,,,,,,,,
,0,j,1,0.725,6,1,25,2,1,j,red,5ee29028fb6eba3d81ebf0f9,2021-09-27_23h08.08,forced_choiceRT_color,2021.2.3,MacIntel,62.5,,,,,,,,,,,,,,,,,,,,,,,
,0,j,1,0.609,6,2,26,2,1,j,red,5ee29028fb6eba3d81ebf0f9,2021-09-27_23h08.08,forced_choiceRT_color,2021.2.3,MacIntel,62.5,,,,,,,,,,,,,,,,,,,,,,,
,0,k,1,0.641,6,3,27,3,1,k,purple,5ee29028fb6eba3d81ebf0f9,2021-09-27_23h08.08,forced_choiceRT_color,2021.2.3,MacIntel,62.5,,,,,,,,,,,,,,,,,,,,,,,
,0,f,1,1.009,7,0,28,1,1,f,blue,5ee29028fb6eba3d81ebf0f9,2021-09-27_23h08.08,forced_choiceRT_color,2021.2.3,MacIntel,62.5,,,,,,,,,,,,,,,,,,,,,,,
,0,k,1,0.709,7,1,29,3,1,k,purple,5ee29028fb6eba3d81ebf0f9,2021-09-27_23h08.08,forced_choiceRT_color,2021.2.3,MacIntel,62.5,,,,,,,,,,,,,,,,,,,,,,,
,0,j,1,0.579,7,2,30,2,1,j,red,5ee29028fb6eba3d81ebf0f9,2021-09-27_23h08.08,forced_choiceRT_color,2021.2.3,MacIntel,62.5,,,,,,,,,,,,,,,,,,,,,,,
,0,f,1,0.875,7,3,31,1,1,f,blue,5ee29028fb6eba3d81ebf0f9,2021-09-27_23h08.08,forced_choiceRT_color,2021.2.3,MacIntel,62.5,,,,,,,,,,,,,,,,,,,,,,,
,0,k,1,0.672,8,0,32,3,1,k,purple,5ee29028fb6eba3d81ebf0f9,2021-09-27_23h08.08,forced_choiceRT_color,2021.2.3,MacIntel,62.5,,,,,,,,,,,,,,,,,,,,,,,
,0,f,1,0.726,8,1,33,1,1,f,blue,5ee29028fb6eba3d81ebf0f9,2021-09-27_23h08.08,forced_choiceRT_color,2021.2.3,MacIntel,62.5,,,,,,,,,,,,,,,,,,,,,,,
,0,d,1,0.802,8,2,34,0,1,d,orange,5ee29028fb6eba3d81ebf0f9,2021-09-27_23h08.08,forced_choiceRT_color,2021.2.3,MacIntel,62.5,,,,,,,,,,,,,,,,,,,,,,,
,0,d,1,0.476,8,3,35,0,1,d,orange,5ee29028fb6eba3d81ebf0f9,2021-09-27_23h08.08,forced_choiceRT_color,2021.2.3,MacIntel,62.5,,,,,,,,,,,,,,,,,,,,,,,
,0,d,1,0.485,9,0,36,0,1,d,orange,5ee29028fb6eba3d81ebf0f9,2021-09-27_23h08.08,forced_choiceRT_color,2021.2.3,MacIntel,62.5,,,,,,,,,,,,,,,,,,,,,,,
,0,j,1,1.043,9,1,37,2,1,j,red,5ee29028fb6eba3d81ebf0f9,2021-09-27_23h08.08,forced_choiceRT_color,2021.2.3,MacIntel,62.5,,,,,,,,,,,,,,,,,,,,,,,
,0,k,1,0.692,9,2,38,3,1,k,purple,5ee29028fb6eba3d81ebf0f9,2021-09-27_23h08.08,forced_choiceRT_color,2021.2.3,MacIntel,62.5,,,,,,,,,,,,,,,,,,,,,,,
,0,d,1,0.74,9,3,39,0,1,d,orange,5ee29028fb6eba3d81ebf0f9,2021-09-27_23h08.08,forced_choiceRT_color,2021.2.3,MacIntel,62.5,,,,,,,,,,,,,,,,,,,,,,,
,0,f,1,0.5,10,0,40,1,1,f,blue,5ee29028fb6eba3d81ebf0f9,2021-09-27_23h08.08,forced_choiceRT_color,2021.2.3,MacIntel,62.5,,,,,,,,,,,,,,,,,,,,,,,
,0,k,1,0.705,10,1,41,3,1,k,purple,5ee29028fb6eba3d81ebf0f9,2021-09-27_23h08.08,forced_choiceRT_color,2021.2.3,MacIntel,62.5,,,,,,,,,,,,,,,,,,,,,,,
,0,j,1,0.42,10,2,42,2,1,j,red,5ee29028fb6eba3d81ebf0f9,2021-09-27_23h08.08,forced_choiceRT_color,2021.2.3,MacIntel,62.5,,,,,,,,,,,,,,,,,,,,,,,
,0,f,1,0.667,10,3,43,1,1,f,blue,5ee29028fb6eba3d81ebf0f9,2021-09-27_23h08.08,forced_choiceRT_color,2021.2.3,MacIntel,62.5,,,,,,,,,,,,,,,,,,,,,,,
,0,d,1,0.392,11,0,44,0,1,d,orange,5ee29028fb6eba3d81ebf0f9,2021-09-27_23h08.08,forced_choiceRT_color,2021.2.3,MacIntel,62.5,,,,,,,,,,,,,,,,,,,,,,,
,0,f,1,0.916,11,1,45,1,1,f,blue,5ee29028fb6eba3d81ebf0f9,2021-09-27_23h08.08,forced_choiceRT_color,2021.2.3,MacIntel,62.5,,,,,,,,,,,,,,,,,,,,,,,
,0,f,1,0.45,11,2,46,1,1,f,blue,5ee29028fb6eba3d81ebf0f9,2021-09-27_23h08.08,forced_choiceRT_color,2021.2.3,MacIntel,62.5,,,,,,,,,,,,,,,,,,,,,,,
,0,f,1,0.535,11,3,47,1,1,f,blue,5ee29028fb6eba3d81ebf0f9,2021-09-27_23h08.08,forced_choiceRT_color,2021.2.3,MacIntel,62.5,,,,,,,,,,,,,,,,,,,,,,,
,0,j,1,0.632,12,0,48,2,1,j,red,5ee29028fb6eba3d81ebf0f9,2021-09-27_23h08.08,forced_choiceRT_color,2021.2.3,MacIntel,62.5,,,,,,,,,,,,,,,,,,,,,,,
,0,d,1,0.617,12,1,49,0,1,d,orange,5ee29028fb6eba3d81ebf0f9,2021-09-27_23h08.08,forced_choiceRT_color,2021.2.3,MacIntel,62.5,,,,,,,,,,,,,,,,,,,,,,,
,0,f,1,0.666,12,2,50,1,1,f,blue,5ee29028fb6eba3d81ebf0f9,2021-09-27_23h08.08,forced_choiceRT_color,2021.2.3,MacIntel,62.5,,,,,,,,,,,,,,,,,,,,,,,
,0,j,1,0.788,12,3,51,2,1,j,red,5ee29028fb6eba3d81ebf0f9,2021-09-27_23h08.08,forced_choiceRT_color,2021.2.3,MacIntel,62.5,,,,,,,,,,,,,,,,,,,,,,,
,0,k,1,0.55,13,0,52,3,1,k,purple,5ee29028fb6eba3d81ebf0f9,2021-09-27_23h08.08,forced_choiceRT_color,2021.2.3,MacIntel,62.5,,,,,,,,,,,,,,,,,,,,,,,
,0,f,1,0.925,13,1,53,1,1,f,blue,5ee29028fb6eba3d81ebf0f9,2021-09-27_23h08.08,forced_choiceRT_color,2021.2.3,MacIntel,62.5,,,,,,,,,,,,,,,,,,,,,,,
,0,j,1,0.565,13,2,54,2,1,j,red,5ee29028fb6eba3d81ebf0f9,2021-09-27_23h08.08,forced_choiceRT_color,2021.2.3,MacIntel,62.5,,,,,,,,,,,,,,,,,,,,,,,
,0,d,1,0.643,13,3,55,0,1,d,orange,5ee29028fb6eba3d81ebf0f9,2021-09-27_23h08.08,forced_choiceRT_color,2021.2.3,MacIntel,62.5,,,,,,,,,,,,,,,,,,,,,,,
,0,f,1,0.624,14,0,56,1,1,f,blue,5ee29028fb6eba3d81ebf0f9,2021-09-27_23h08.08,forced_choiceRT_color,2021.2.3,MacIntel,62.5,,,,,,,,,,,,,,,,,,,,,,,
,0,d,1,0.583,14,1,57,0,1,d,orange,5ee29028fb6eba3d81ebf0f9,2021-09-27_23h08.08,forced_choiceRT_color,2021.2.3,MacIntel,62.5,,,,,,,,,,,,,,,,,,,,,,,
,0,k,1,0.708,14,2,58,3,1,k,purple,5ee29028fb6eba3d81ebf0f9,2021-09-27_23h08.08,forced_choiceRT_color,2021.2.3,MacIntel,62.5,,,,,,,,,,,,,,,,,,,,,,,
,0,j,1,0.601,14,3,59,2,1,j,red,5ee29028fb6eba3d81ebf0f9,2021-09-27_23h08.08,forced_choiceRT_color,2021.2.3,MacIntel,62.5,,,,,,,,,,,,,,,,,,,,,,,
,,,,,,,,,,,,5ee29028fb6eba3d81ebf0f9,2021-09-27_23h08.08,forced_choiceRT_color,2021.2.3,MacIntel,62.5,f,2.215,0,0,0,0,1,,,,,,,,,,,,,,,,
,,,,,,,,,,,,5ee29028fb6eba3d81ebf0f9,2021-09-27_23h08.08,forced_choiceRT_color,2021.2.3,MacIntel,62.5,f,2.121,1,0,1,0,1,,,,,,,,,,,,,,,,
,,,,,,,,,,,,5ee29028fb6eba3d81ebf0f9,2021-09-27_23h08.08,forced_choiceRT_color,2021.2.3,MacIntel,62.5,k,1.945,2,0,2,0,1,,,,,,,,,,,,,,,,
,,,,,,,,,,,,5ee29028fb6eba3d81ebf0f9,2021-09-27_23h08.08,forced_choiceRT_color,2021.2.3,MacIntel,62.5,k,1.95,3,0,3,0,1,,,,,,,,,,,,,,,,
,,,,,,,,,,,,5ee29028fb6eba3d81ebf0f9,2021-09-27_23h08.08,forced_choiceRT_color,2021.2.3,MacIntel,62.5,j,1.785,4,0,4,0,1,,,,,,,,,,,,,,,,
,,,,,,,,,,,,5ee29028fb6eba3d81ebf0f9,2021-09-27_23h08.08,forced_choiceRT_color,2021.2.3,MacIntel,62.5,j,1.977,5,0,5,0,1,,,,,,,,,,,,,,,,
,,,,,,,,,,,,5ee29028fb6eba3d81ebf0f9,2021-09-27_23h08.08,forced_choiceRT_color,2021.2.3,MacIntel,62.5,f,1.952,6,0,6,0,1,,,,,,,,,,,,,,,,
,,,,,,,,,,,,5ee29028fb6eba3d81ebf0f9,2021-09-27_23h08.08,forced_choiceRT_color,2021.2.3,MacIntel,62.5,f,1.977,7,0,7,0,1,,,,,,,,,,,,,,,,
,,,,,,,,,,,,5ee29028fb6eba3d81ebf0f9,2021-09-27_23h08.08,forced_choiceRT_color,2021.2.3,MacIntel,62.5,d,1.952,8,0,8,0,1,,,,,,,,,,,,,,,,
,,,,,,,,,,,,5ee29028fb6eba3d81ebf0f9,2021-09-27_23h08.08,forced_choiceRT_color,2021.2.3,MacIntel,62.5,d,1.995,9,0,9,0,1,,,,,,,,,,,,,,,,
,,,,,,,,,,,,5ee29028fb6eba3d81ebf0f9,2021-09-27_23h08.08,forced_choiceRT_color,2021.2.3,MacIntel,62.5,k,1.961,10,0,10,0,1,,,,,,,,,,,,,,,,
,,,,,,,,,,,,5ee29028fb6eba3d81ebf0f9,2021-09-27_23h08.08,forced_choiceRT_color,2021.2.3,MacIntel,62.5,j,1.952,11,0,11,0,1,,,,,,,,,,,,,,,,
,,,,,,,,,,,,5ee29028fb6eba3d81ebf0f9,2021-09-27_23h08.08,forced_choiceRT_color,2021.2.3,MacIntel,62.5,j,1.926,12,0,12,0,1,,,,,,,,,,,,,,,,
,,,,,,,,,,,,5ee29028fb6eba3d81ebf0f9,2021-09-27_23h08.08,forced_choiceRT_color,2021.2.3,MacIntel,62.5,k,1.91,13,0,13,0,1,,,,,,,,,,,,,,,,
,,,,,,,,,,,,5ee29028fb6eba3d81ebf0f9,2021-09-27_23h08.08,forced_choiceRT_color,2021.2.3,MacIntel,62.5,f,1.925,14,0,14,0,1,,,,,,,,,,,,,,,,
,,,,,,,,,,,,5ee29028fb6eba3d81ebf0f9,2021-09-27_23h08.08,forced_choiceRT_color,2021.2.3,MacIntel,62.5,d,1.918,15,0,15,0,1,,,,,,,,,,,,,,,,
,,,,,,,,,,,,5ee29028fb6eba3d81ebf0f9,2021-09-27_23h08.08,forced_choiceRT_color,2021.2.3,MacIntel,62.5,k,1.974,16,0,16,0,1,,,,,,,,,,,,,,,,
,,,,,,,,,,,,5ee29028fb6eba3d81ebf0f9,2021-09-27_23h08.08,forced_choiceRT_color,2021.2.3,MacIntel,62.5,j,1.959,17,0,17,0,1,,,,,,,,,,,,,,,,
,,,,,,,,,,,,5ee29028fb6eba3d81ebf0f9,2021-09-27_23h08.08,forced_choiceRT_color,2021.2.3,MacIntel,62.5,d,1.92,18,0,18,0,1,,,,,,,,,,,,,,,,
,,,,,,,,,,,,5ee29028fb6eba3d81ebf0f9,2021-09-27_23h08.08,forced_choiceRT_color,2021.2.3,MacIntel,62.5,f,1.744,19,0,19,0,1,,,,,,,,,,,,,,,,
,0.47,,,,,,,,,k,purple,5ee29028fb6eba3d81ebf0f9,2021-09-27_23h08.08,forced_choiceRT_color,2021.2.3,MacIntel,62.5,,,,,,,,1,Ontime,short,j,0,2.047,0,0,0,3,1,,,,,
,1.92,,,,,,,,,d,orange,5ee29028fb6eba3d81ebf0f9,2021-09-27_23h08.08,forced_choiceRT_color,2021.2.3,MacIntel,62.5,,,,,,,,1,Ontime,short,k,0,1.972,0,1,1,0,1,,,,,
,1.35,,,,,,,,,f,blue,5ee29028fb6eba3d81ebf0f9,2021-09-27_23h08.08,forced_choiceRT_color,2021.2.3,MacIntel,62.5,,,,,,,,1,Fast,short,d,0,1.851,0,2,2,1,1,,,,,
,1.16,,,,,,,,,j,red,5ee29028fb6eba3d81ebf0f9,2021-09-27_23h08.08,forced_choiceRT_color,2021.2.3,MacIntel,62.5,,,,,,,,1,Fast,short,j,1,1.85,0,3,3,2,1,,,,,
,1.86,,,,,,,,,j,red,5ee29028fb6eba3d81ebf0f9,2021-09-27_23h08.08,forced_choiceRT_color,2021.2.3,MacIntel,62.5,,,,,,,,1,Ontime,short,j,1,2.044,1,0,4,2,1,,,,,
,0.83,,,,,,,,,d,orange,5ee29028fb6eba3d81ebf0f9,2021-09-27_23h08.08,forced_choiceRT_color,2021.2.3,MacIntel,62.5,,,,,,,,1,Ontime,short,f,0,1.959,1,1,5,0,1,,,,,
,0.26,,,,,,,,,d,orange,5ee29028fb6eba3d81ebf0f9,2021-09-27_23h08.08,forced_choiceRT_color,2021.2.3,MacIntel,62.5,,,,,,,,1,Fast,short,d,1,1.809,1,2,6,0,1,,,,,
,1.49,,,,,,,,,f,blue,5ee29028fb6eba3d81ebf0f9,2021-09-27_23h08.08,forced_choiceRT_color,2021.2.3,MacIntel,62.5,,,,,,,,1,Slow,short,j,0,2.167,1,3,7,1,1,,,,,
,1.04,,,,,,,,,f,blue,5ee29028fb6eba3d81ebf0f9,2021-09-27_23h08.08,forced_choiceRT_color,2021.2.3,MacIntel,62.5,,,,,,,,1,Fast,short,j,0,1.867,2,0,8,1,1,,,,,
,1.96,,,,,,,,,j,red,5ee29028fb6eba3d81ebf0f9,2021-09-27_23h08.08,forced_choiceRT_color,2021.2.3,MacIntel,62.5,,,,,,,,1,Ontime,short,j,1,2.084,2,1,9,2,1,,,,,
,0.09,,,,,,,,,k,purple,5ee29028fb6eba3d81ebf0f9,2021-09-27_23h08.08,forced_choiceRT_color,2021.2.3,MacIntel,62.5,,,,,,,,1,Ontime,short,k,1,1.909,2,2,10,3,1,,,,,
,1.9,,,,,,,,,j,red,5ee29028fb6eba3d81ebf0f9,2021-09-27_23h08.08,forced_choiceRT_color,2021.2.3,MacIntel,62.5,,,,,,,,1,Ontime,short,k,0,1.968,2,3,11,2,1,,,,,
,0.45,,,,,,,,,j,red,5ee29028fb6eba3d81ebf0f9,2021-09-27_23h08.08,forced_choiceRT_color,2021.2.3,MacIntel,62.5,,,,,,,,1,Ontime,short,f,0,1.935,3,0,12,2,1,,,,,
,0.29,,,,,,,,,d,orange,5ee29028fb6eba3d81ebf0f9,2021-09-27_23h08.08,forced_choiceRT_color,2021.2.3,MacIntel,62.5,,,,,,,,1,Fast,short,d,1,1.791,3,1,13,0,1,,,,,
,0.03,,,,,,,,,f,blue,5ee29028fb6eba3d81ebf0f9,2021-09-27_23h08.08,forced_choiceRT_color,2021.2.3,MacIntel,62.5,,,,,,,,1,Ontime,short,f,1,1.926,3,2,14,1,1,,,,,
,0.68,,,,,,,,,j,red,5ee29028fb6eba3d81ebf0f9,2021-09-27_23h08.08,forced_choiceRT_color,2021.2.3,MacIntel,62.5,,,,,,,,1,Ontime,short,j,1,2.073,3,3,15,2,1,,,,,
,1.96,,,,,,,,,f,blue,5ee29028fb6eba3d81ebf0f9,2021-09-27_23h08.08,forced_choiceRT_color,2021.2.3,MacIntel,62.5,,,,,,,,1,Slow,short,k,0,2.293,4,0,16,1,1,,,,,
,0.55,,,,,,,,,f,blue,5ee29028fb6eba3d81ebf0f9,2021-09-27_23h08.08,forced_choiceRT_color,2021.2.3,MacIntel,62.5,,,,,,,,1,Fast,short,f,1,1.845,4,1,17,1,1,,,,,
,0.48,,,,,,,,,k,purple,5ee29028fb6eba3d81ebf0f9,2021-09-27_23h08.08,forced_choiceRT_color,2021.2.3,MacIntel,62.5,,,,,,,,1,Ontime,short,k,1,1.985,4,2,18,3,1,,,,,
,0.61,,,,,,,,,f,blue,5ee29028fb6eba3d81ebf0f9,2021-09-27_23h08.08,forced_choiceRT_color,2021.2.3,MacIntel,62.5,,,,,,,,1,Ontime,short,f,1,2.006,4,3,19,1,1,,,,,
,1.09,,,,,,,,,d,orange,5ee29028fb6eba3d81ebf0f9,2021-09-27_23h08.08,forced_choiceRT_color,2021.2.3,MacIntel,62.5,,,,,,,,1,Ontime,short,j,0,1.985,5,0,20,0,1,,,,,
,1.52,,,,,,,,,j,red,5ee29028fb6eba3d81ebf0f9,2021-09-27_23h08.08,forced_choiceRT_color,2021.2.3,MacIntel,62.5,,,,,,,,1,Ontime,short,j,1,2.05,5,1,21,2,1,,,,,
,0.39,,,,,,,,,d,orange,5ee29028fb6eba3d81ebf0f9,2021-09-27_23h08.08,forced_choiceRT_color,2021.2.3,MacIntel,62.5,,,,,,,,1,Fast,short,d,1,1.893,5,2,22,0,1,,,,,
,0.51,,,,,,,,,k,purple,5ee29028fb6eba3d81ebf0f9,2021-09-27_23h08.08,forced_choiceRT_color,2021.2.3,MacIntel,62.5,,,,,,,,1,Ontime,short,k,1,1.969,5,3,23,3,1,,,,,
,1.23,,,,,,,,,j,red,5ee29028fb6eba3d81ebf0f9,2021-09-27_23h08.08,forced_choiceRT_color,2021.2.3,MacIntel,62.5,,,,,,,,1,Ontime,short,j,1,2.032,6,0,24,2,1,,,,,
,1.2,,,,,,,,,k,purple,5ee29028fb6eba3d81ebf0f9,2021-09-27_23h08.08,forced_choiceRT_color,2021.2.3,MacIntel,62.5,,,,,,,,1,Ontime,short,k,1,1.927,6,1,25,3,1,,,,,
,0.47,,,,,,,,,d,orange,5ee29028fb6eba3d81ebf0f9,2021-09-27_23h08.08,forced_choiceRT_color,2021.2.3,MacIntel,62.5,,,,,,,,1,Fast,short,f,0,1.886,6,2,26,0,1,,,,,
,1.57,,,,,,,,,k,purple,5ee29028fb6eba3d81ebf0f9,2021-09-27_23h08.08,forced_choiceRT_color,2021.2.3,MacIntel,62.5,,,,,,,,1,Fast,short,d,0,1.801,6,3,27,3,1,,,,,
,0.94,,,,,,,,,d,orange,5ee29028fb6eba3d81ebf0f9,2021-09-27_23h08.08,forced_choiceRT_color,2021.2.3,MacIntel,62.5,,,,,,,,1,Ontime,short,k,0,2.093,7,0,28,0,1,,,,,
,1.73,,,,,,,,,k,purple,5ee29028fb6eba3d81ebf0f9,2021-09-27_23h08.08,forced_choiceRT_color,2021.2.3,MacIntel,62.5,,,,,,,,1,Ontime,short,j,0,2.05,7,1,29,3,1,,,,,
,0.43,,,,,,,,,k,purple,5ee29028fb6eba3d81ebf0f9,2021-09-27_23h08.08,forced_choiceRT_color,2021.2.3,MacIntel,62.5,,,,,,,,1,Ontime,short,k,1,1.902,7,2,30,3,1,,,,,
,1.58,,,,,,,,,j,red,5ee29028fb6eba3d81ebf0f9,2021-09-27_23h08.08,forced_choiceRT_color,2021.2.3,MacIntel,62.5,,,,,,,,1,Ontime,short,j,1,2.069,7,3,31,2,1,,,,,
,1.67,,,,,,,,,d,orange,5ee29028fb6eba3d81ebf0f9,2021-09-27_23h08.08,forced_choiceRT_color,2021.2.3,MacIntel,62.5,,,,,,,,1,Ontime,short,f,0,1.984,8,0,32,0,1,,,,,
,0.99,,,,,,,,,f,blue,5ee29028fb6eba3d81ebf0f9,2021-09-27_23h08.08,forced_choiceRT_color,2021.2.3,MacIntel,62.5,,,,,,,,1,Fast,short,f,1,1.891,8,1,33,1,1,,,,,
,0.07,,,,,,,,,j,red,5ee29028fb6eba3d81ebf0f9,2021-09-27_23h08.08,forced_choiceRT_color,2021.2.3,MacIntel,62.5,,,,,,,,1,Fast,short,j,1,1.759,8,2,34,2,1,,,,,
,0.15,,,,,,,,,d,orange,5ee29028fb6eba3d81ebf0f9,2021-09-27_23h08.08,forced_choiceRT_color,2021.2.3,MacIntel,62.5,,,,,,,,1,Slow,short,d,1,2.102,8,3,35,0,1,,,,,
,1.46,,,,,,,,,f,blue,5ee29028fb6eba3d81ebf0f9,2021-09-27_23h08.08,forced_choiceRT_color,2021.2.3,MacIntel,62.5,,,,,,,,1,Ontime,short,f,1,2.018,9,0,36,1,1,,,,,
,1.93,,,,,,,,,f,blue,5ee29028fb6eba3d81ebf0f9,2021-09-27_23h08.08,forced_choiceRT_color,2021.2.3,MacIntel,62.5,,,,,,,,1,Ontime,short,f,1,2.018,9,1,37,1,1,,,,,
,0.88,,,,,,,,,k,purple,5ee29028fb6eba3d81ebf0f9,2021-09-27_23h08.08,forced_choiceRT_color,2021.2.3,MacIntel,62.5,,,,,,,,1,Ontime,short,k,1,2.019,9,2,38,3,1,,,,,
,1.1,,,,,,,,,k,purple,5ee29028fb6eba3d81ebf0f9,2021-09-27_23h08.08,forced_choiceRT_color,2021.2.3,MacIntel,62.5,,,,,,,,1,Ontime,short,k,1,1.993,9,3,39,3,1,,,,,
,,,,,,,,,,,,5ee29028fb6eba3d81ebf0f9,2021-09-27_23h08.08,forced_choiceRT_color,2021.2.3,MacIntel,62.5,,,,,,,,,,,,,,,,,,,0,0,0,0,1
,0.23,,,,,,,,,d,orange,5ee29028fb6eba3d81ebf0f9,2021-09-27_23h08.08,forced_choiceRT_color,2021.2.3,MacIntel,62.5,,,,,,,,2,Ontime,short,f,0,2.037,0,0,0,0,1,,,,,
,1.05,,,,,,,,,k,purple,5ee29028fb6eba3d81ebf0f9,2021-09-27_23h08.08,forced_choiceRT_color,2021.2.3,MacIntel,62.5,,,,,,,,2,Ontime,short,k,1,2.028,0,1,1,3,1,,,,,
,1.8,,,,,,,,,d,orange,5ee29028fb6eba3d81ebf0f9,2021-09-27_23h08.08,forced_choiceRT_color,2021.2.3,MacIntel,62.5,,,,,,,,2,Slow,short,f,0,2.817,0,2,2,0,1,,,,,
,0.32,,,,,,,,,k,purple,5ee29028fb6eba3d81ebf0f9,2021-09-27_23h08.08,forced_choiceRT_color,2021.2.3,MacIntel,62.5,,,,,,,,2,Ontime,short,k,1,2.009,0,3,3,3,1,,,,,
,0.63,,,,,,,,,f,blue,5ee29028fb6eba3d81ebf0f9,2021-09-27_23h08.08,forced_choiceRT_color,2021.2.3,MacIntel,62.5,,,,,,,,2,Ontime,short,f,1,2.034,1,0,4,1,1,,,,,
,0.15,,,,,,,,,f,blue,5ee29028fb6eba3d81ebf0f9,2021-09-27_23h08.08,forced_choiceRT_color,2021.2.3,MacIntel,62.5,,,,,,,,2,Ontime,short,f,1,1.921,1,1,5,1,1,,,,,
,1.34,,,,,,,,,f,blue,5ee29028fb6eba3d81ebf0f9,2021-09-27_23h08.08,forced_choiceRT_color,2021.2.3,MacIntel,62.5,,,,,,,,2,Fast,short,f,1,1.885,1,2,6,1,1,,,,,
,0.39,,,,,,,,,k,purple,5ee29028fb6eba3d81ebf0f9,2021-09-27_23h08.08,forced_choiceRT_color,2021.2.3,MacIntel,62.5,,,,,,,,2,Ontime,short,k,1,2.075,1,3,7,3,1,,,,,
,1.09,,,,,,,,,j,red,5ee29028fb6eba3d81ebf0f9,2021-09-27_23h08.08,forced_choiceRT_color,2021.2.3,MacIntel,62.5,,,,,,,,2,Ontime,short,j,1,2.066,2,0,8,2,1,,,,,
,1.53,,,,,,,,,f,blue,5ee29028fb6eba3d81ebf0f9,2021-09-27_23h08.08,forced_choiceRT_color,2021.2.3,MacIntel,62.5,,,,,,,,2,Ontime,short,f,1,2.044,2,1,9,1,1,,,,,
,1.1,,,,,,,,,d,orange,5ee29028fb6eba3d81ebf0f9,2021-09-27_23h08.08,forced_choiceRT_color,2021.2.3,MacIntel,62.5,,,,,,,,2,Ontime,short,d,1,2.05,2,2,10,0,1,,,,,
,0.31,,,,,,,,,f,blue,5ee29028fb6eba3d81ebf0f9,2021-09-27_23h08.08,forced_choiceRT_color,2021.2.3,MacIntel,62.5,,,,,,,,2,Ontime,short,f,1,2.028,2,3,11,1,1,,,,,
,1.11,,,,,,,,,j,red,5ee29028fb6eba3d81ebf0f9,2021-09-27_23h08.08,forced_choiceRT_color,2021.2.3,MacIntel,62.5,,,,,,,,2,Ontime,short,j,1,1.919,3,0,12,2,1,,,,,
,1.64,,,,,,,,,d,orange,5ee29028fb6eba3d81ebf0f9,2021-09-27_23h08.08,forced_choiceRT_color,2021.2.3,MacIntel,62.5,,,,,,,,2,Slow,short,f,0,2.168,3,1,13,0,1,,,,,
,0.91,,,,,,,,,f,blue,5ee29028fb6eba3d81ebf0f9,2021-09-27_23h08.08,forced_choiceRT_color,2021.2.3,MacIntel,62.5,,,,,,,,2,Fast,short,f,1,1.885,3,2,14,1,1,,,,,
,0.7,,,,,,,,,j,red,5ee29028fb6eba3d81ebf0f9,2021-09-27_23h08.08,forced_choiceRT_color,2021.2.3,MacIntel,62.5,,,,,,,,2,Ontime,short,j,1,1.943,3,3,15,2,1,,,,,
,1.94,,,,,,,,,k,purple,5ee29028fb6eba3d81ebf0f9,2021-09-27_23h08.08,forced_choiceRT_color,2021.2.3,MacIntel,62.5,,,,,,,,2,Slow,short,k,1,2.908,4,0,16,3,1,,,,,
,0.29,,,,,,,,,d,orange,5ee29028fb6eba3d81ebf0f9,2021-09-27_23h08.08,forced_choiceRT_color,2021.2.3,MacIntel,62.5,,,,,,,,2,Ontime,short,d,1,1.929,4,1,17,0,1,,,,,
,0.08,,,,,,,,,k,purple,5ee29028fb6eba3d81ebf0f9,2021-09-27_23h08.08,forced_choiceRT_color,2021.2.3,MacIntel,62.5,,,,,,,,2,Ontime,short,k,1,1.973,4,2,18,3,1,,,,,
,1.58,,,,,,,,,k,purple,5ee29028fb6eba3d81ebf0f9,2021-09-27_23h08.08,forced_choiceRT_color,2021.2.3,MacIntel,62.5,,,,,,,,2,Ontime,short,k,1,1.96,4,3,19,3,1,,,,,
,1.21,,,,,,,,,k,purple,5ee29028fb6eba3d81ebf0f9,2021-09-27_23h08.08,forced_choiceRT_color,2021.2.3,MacIntel,62.5,,,,,,,,2,Ontime,short,k,1,1.952,5,0,20,3,1,,,,,
,0.7,,,,,,,,,d,orange,5ee29028fb6eba3d81ebf0f9,2021-09-27_23h08.08,forced_choiceRT_color,2021.2.3,MacIntel,62.5,,,,,,,,2,Ontime,short,d,1,2.034,5,1,21,0,1,,,,,
,0.01,,,,,,,,,d,orange,5ee29028fb6eba3d81ebf0f9,2021-09-27_23h08.08,forced_choiceRT_color,2021.2.3,MacIntel,62.5,,,,,,,,2,Fast,short,d,1,1.86,5,2,22,0,1,,,,,
,1.8,,,,,,,,,j,red,5ee29028fb6eba3d81ebf0f9,2021-09-27_23h08.08,forced_choiceRT_color,2021.2.3,MacIntel,62.5,,,,,,,,2,Slow,short,j,1,2.237,5,3,23,2,1,,,,,
,1.19,,,,,,,,,d,orange,5ee29028fb6eba3d81ebf0f9,2021-09-27_23h08.08,forced_choiceRT_color,2021.2.3,MacIntel,62.5,,,,,,,,2,Ontime,short,d,1,1.908,6,0,24,0,1,,,,,
,1.47,,,,,,,,,j,red,5ee29028fb6eba3d81ebf0f9,2021-09-27_23h08.08,forced_choiceRT_color,2021.2.3,MacIntel,62.5,,,,,,,,2,Ontime,short,j,1,1.966,6,1,25,2,1,,,,,
,0.64,,,,,,,,,j,red,5ee29028fb6eba3d81ebf0f9,2021-09-27_23h08.08,forced_choiceRT_color,2021.2.3,MacIntel,62.5,,,,,,,,2,Ontime,short,j,1,2.008,6,2,26,2,1,,,,,
,1.48,,,,,,,,,f,blue,5ee29028fb6eba3d81ebf0f9,2021-09-27_23h08.08,forced_choiceRT_color,2021.2.3,MacIntel,62.5,,,,,,,,2,Ontime,short,f,1,1.934,6,3,27,1,1,,,,,
,0.66,,,,,,,,,k,purple,5ee29028fb6eba3d81ebf0f9,2021-09-27_23h08.08,forced_choiceRT_color,2021.2.3,MacIntel,62.5,,,,,,,,2,Ontime,short,k,1,1.923,7,0,28,3,1,,,,,
,0.89,,,,,,,,,k,purple,5ee29028fb6eba3d81ebf0f9,2021-09-27_23h08.08,forced_choiceRT_color,2021.2.3,MacIntel,62.5,,,,,,,,2,Ontime,short,k,1,1.96,7,1,29,3,1,,,,,
,0.31,,,,,,,,,d,orange,5ee29028fb6eba3d81ebf0f9,2021-09-27_23h08.08,forced_choiceRT_color,2021.2.3,MacIntel,62.5,,,,,,,,2,Ontime,short,j,0,2.069,7,2,30,0,1,,,,,
,1.73,,,,,,,,,j,red,5ee29028fb6eba3d81ebf0f9,2021-09-27_23h08.08,forced_choiceRT_color,2021.2.3,MacIntel,62.5,,,,,,,,2,Ontime,short,f,0,2.069,7,3,31,2,1,,,,,
,1.4,,,,,,,,,j,red,5ee29028fb6eba3d81ebf0f9,2021-09-27_23h08.08,forced_choiceRT_color,2021.2.3,MacIntel,62.5,,,,,,,,2,Ontime,short,j,1,2.093,8,0,32,2,1,,,,,
,1.62,,,,,,,,,k,purple,5ee29028fb6eba3d81ebf0f9,2021-09-27_23h08.08,forced_choiceRT_color,2021.2.3,MacIntel,62.5,,,,,,,,2,Ontime,short,k,1,2.035,8,1,33,3,1,,,,,
,1.46,,,,,,,,,f,blue,5ee29028fb6eba3d81ebf0f9,2021-09-27_23h08.08,forced_choiceRT_color,2021.2.3,MacIntel,62.5,,,,,,,,2,Slow,short,d,0,2.101,8,2,34,1,1,,,,,
,0.83,,,,,,,,,f,blue,5ee29028fb6eba3d81ebf0f9,2021-09-27_23h08.08,forced_choiceRT_color,2021.2.3,MacIntel,62.5,,,,,,,,2,Fast,short,f,1,1.869,8,3,35,1,1,,,,,
,1.81,,,,,,,,,j,red,5ee29028fb6eba3d81ebf0f9,2021-09-27_23h08.08,forced_choiceRT_color,2021.2.3,MacIntel,62.5,,,,,,,,2,Slow,short,j,1,2.242,9,0,36,2,1,,,,,
,1.9,,,,,,,,,f,blue,5ee29028fb6eba3d81ebf0f9,2021-09-27_23h08.08,forced_choiceRT_color,2021.2.3,MacIntel,62.5,,,,,,,,2,Ontime,short,j,0,1.939,9,1,37,1,1,,,,,
,1.7,,,,,,,,,j,red,5ee29028fb6eba3d81ebf0f9,2021-09-27_23h08.08,forced_choiceRT_color,2021.2.3,MacIntel,62.5,,,,,,,,2,Ontime,short,f,0,1.925,9,2,38,2,1,,,,,
,1.91,,,,,,,,,d,orange,5ee29028fb6eba3d81ebf0f9,2021-09-27_23h08.08,forced_choiceRT_color,2021.2.3,MacIntel,62.5,,,,,,,,2,Ontime,short,f,0,1.984,9,3,39,0,1,,,,,
,,,,,,,,,,,,5ee29028fb6eba3d81ebf0f9,2021-09-27_23h08.08,forced_choiceRT_color,2021.2.3,MacIntel,62.5,,,,,,,,,,,,,,,,,,,1,0,1,0,1
,0.73,,,,,,,,,d,orange,5ee29028fb6eba3d81ebf0f9,2021-09-27_23h08.08,forced_choiceRT_color,2021.2.3,MacIntel,62.5,,,,,,,,3,Fast,short,d,1,1.858,0,0,0,0,1,,,,,
,1.03,,,,,,,,,j,red,5ee29028fb6eba3d81ebf0f9,2021-09-27_23h08.08,forced_choiceRT_color,2021.2.3,MacIntel,62.5,,,,,,,,3,Fast,short,k,0,1.835,0,1,1,2,1,,,,,
,1.81,,,,,,,,,j,red,5ee29028fb6eba3d81ebf0f9,2021-09-27_23h08.08,forced_choiceRT_color,2021.2.3,MacIntel,62.5,,,,,,,,3,Slow,short,j,1,2.144,0,2,2,2,1,,,,,
,0.91,,,,,,,,,k,purple,5ee29028fb6eba3d81ebf0f9,2021-09-27_23h08.08,forced_choiceRT_color,2021.2.3,MacIntel,62.5,,,,,,,,3,Ontime,short,k,1,1.926,0,3,3,3,1,,,,,
,1.78,,,,,,,,,k,purple,5ee29028fb6eba3d81ebf0f9,2021-09-27_23h08.08,forced_choiceRT_color,2021.2.3,MacIntel,62.5,,,,,,,,3,Ontime,short,k,1,2.042,1,0,4,3,1,,,,,
,0.17,,,,,,,,,d,orange,5ee29028fb6eba3d81ebf0f9,2021-09-27_23h08.08,forced_choiceRT_color,2021.2.3,MacIntel,62.5,,,,,,,,3,Ontime,short,d,1,1.902,1,1,5,0,1,,,,,
,0.89,,,,,,,,,k,purple,5ee29028fb6eba3d81ebf0f9,2021-09-27_23h08.08,forced_choiceRT_color,2021.2.3,MacIntel,62.5,,,,,,,,3,Ontime,short,k,1,1.959,1,2,6,3,1,,,,,
,0.65,,,,,,,,,k,purple,5ee29028fb6eba3d81ebf0f9,2021-09-27_23h08.08,forced_choiceRT_color,2021.2.3,MacIntel,62.5,,,,,,,,3,Ontime,short,k,1,1.985,1,3,7,3,1,,,,,
,0.41,,,,,,,,,k,purple,5ee29028fb6eba3d81ebf0f9,2021-09-27_23h08.08,forced_choiceRT_color,2021.2.3,MacIntel,62.5,,,,,,,,3,Ontime,short,k,1,1.941,2,0,8,3,1,,,,,
,1.19,,,,,,,,,k,purple,5ee29028fb6eba3d81ebf0f9,2021-09-27_23h08.08,forced_choiceRT_color,2021.2.3,MacIntel,62.5,,,,,,,,3,Fast,short,k,1,1.89,2,1,9,3,1,,,,,
,1.11,,,,,,,,,k,purple,5ee29028fb6eba3d81ebf0f9,2021-09-27_23h08.08,forced_choiceRT_color,2021.2.3,MacIntel,62.5,,,,,,,,3,Fast,short,k,1,1.619,2,2,10,3,1,,,,,
,0.73,,,,,,,,,f,blue,5ee29028fb6eba3d81ebf0f9,2021-09-27_23h08.08,forced_choiceRT_color,2021.2.3,MacIntel,62.5,,,,,,,,3,Fast,short,d,0,1.677,2,3,11,1,1,,,,,
,0.91,,,,,,,,,f,blue,5ee29028fb6eba3d81ebf0f9,2021-09-27_23h08.08,forced_choiceRT_color,2021.2.3,MacIntel,62.5,,,,,,,,3,Ontime,short,f,1,1.907,3,0,12,1,1,,,,,
,0.08,,,,,,,,,j,red,5ee29028fb6eba3d81ebf0f9,2021-09-27_23h08.08,forced_choiceRT_color,2021.2.3,MacIntel,62.5,,,,,,,,3,Ontime,short,j,1,2.049,3,1,13,2,1,,,,,
,0.77,,,,,,,,,j,red,5ee29028fb6eba3d81ebf0f9,2021-09-27_23h08.08,forced_choiceRT_color,2021.2.3,MacIntel,62.5,,,,,,,,3,Ontime,short,j,1,1.968,3,2,14,2,1,,,,,
,0.03,,,,,,,,,f,blue,5ee29028fb6eba3d81ebf0f9,2021-09-27_23h08.08,forced_choiceRT_color,2021.2.3,MacIntel,62.5,,,,,,,,3,Ontime,short,f,1,1.95,3,3,15,1,1,,,,,
,0.66,,,,,,,,,f,blue,5ee29028fb6eba3d81ebf0f9,2021-09-27_23h08.08,forced_choiceRT_color,2021.2.3,MacIntel,62.5,,,,,,,,3,Ontime,short,f,1,1.953,4,0,16,1,1,,,,,
,0.36,,,,,,,,,d,orange,5ee29028fb6eba3d81ebf0f9,2021-09-27_23h08.08,forced_choiceRT_color,2021.2.3,MacIntel,62.5,,,,,,,,3,Fast,short,k,0,1.826,4,1,17,0,1,,,,,
,0.07,,,,,,,,,d,orange,5ee29028fb6eba3d81ebf0f9,2021-09-27_23h08.08,forced_choiceRT_color,2021.2.3,MacIntel,62.5,,,,,,,,3,Ontime,short,d,1,1.938,4,2,18,0,1,,,,,
,1.61,,,,,,,,,d,orange,5ee29028fb6eba3d81ebf0f9,2021-09-27_23h08.08,forced_choiceRT_color,2021.2.3,MacIntel,62.5,,,,,,,,3,Ontime,short,d,1,1.983,4,3,19,0,1,,,,,
,1.83,,,,,,,,,f,blue,5ee29028fb6eba3d81ebf0f9,2021-09-27_23h08.08,forced_choiceRT_color,2021.2.3,MacIntel,62.5,,,,,,,,3,Ontime,short,d,0,2.076,5,0,20,1,1,,,,,
,0.92,,,,,,,,,f,blue,5ee29028fb6eba3d81ebf0f9,2021-09-27_23h08.08,forced_choiceRT_color,2021.2.3,MacIntel,62.5,,,,,,,,3,Fast,short,k,0,1.821,5,1,21,1,1,,,,,
,1.51,,,,,,,,,d,orange,5ee29028fb6eba3d81ebf0f9,2021-09-27_23h08.08,forced_choiceRT_color,2021.2.3,MacIntel,62.5,,,,,,,,3,Ontime,short,d,1,2.007,5,2,22,0,1,,,,,
,0.66,,,,,,,,,j,red,5ee29028fb6eba3d81ebf0f9,2021-09-27_23h08.08,forced_choiceRT_color,2021.2.3,MacIntel,62.5,,,,,,,,3,Ontime,short,j,1,2.032,5,3,23,2,1,,,,,
,0.05,,,,,,,,,j,red,5ee29028fb6eba3d81ebf0f9,2021-09-27_23h08.08,forced_choiceRT_color,2021.2.3,MacIntel,62.5,,,,,,,,3,Ontime,short,j,1,2.009,6,0,24,2,1,,,,,
,0.97,,,,,,,,,f,blue,5ee29028fb6eba3d81ebf0f9,2021-09-27_23h08.08,forced_choiceRT_color,2021.2.3,MacIntel,62.5,,,,,,,,3,Ontime,short,f,1,1.927,6,1,25,1,1,,,,,
,0.82,,,,,,,,,f,blue,5ee29028fb6eba3d81ebf0f9,2021-09-27_23h08.08,forced_choiceRT_color,2021.2.3,MacIntel,62.5,,,,,,,,3,Ontime,short,f,1,1.935,6,2,26,1,1,,,,,
,1.4,,,,,,,,,d,orange,5ee29028fb6eba3d81ebf0f9,2021-09-27_23h08.08,forced_choiceRT_color,2021.2.3,MacIntel,62.5,,,,,,,,3,Fast,short,d,1,1.868,6,3,27,0,1,,,,,
,1.35,,,,,,,,,j,red,5ee29028fb6eba3d81ebf0f9,2021-09-27_23h08.08,forced_choiceRT_color,2021.2.3,MacIntel,62.5,,,,,,,,3,Ontime,short,j,1,2.027,7,0,28,2,1,,,,,
,0.14,,,,,,,,,d,orange,5ee29028fb6eba3d81ebf0f9,2021-09-27_23h08.08,forced_choiceRT_color,2021.2.3,MacIntel,62.5,,,,,,,,3,Ontime,short,d,1,1.952,7,1,29,0,1,,,,,
,0.04,,,,,,,,,f,blue,5ee29028fb6eba3d81ebf0f9,2021-09-27_23h08.08,forced_choiceRT_color,2021.2.3,MacIntel,62.5,,,,,,,,3,Ontime,short,f,1,1.909,7,2,30,1,1,,,,,
,0.08,,,,,,,,,j,red,5ee29028fb6eba3d81ebf0f9,2021-09-27_23h08.08,forced_choiceRT_color,2021.2.3,MacIntel,62.5,,,,,,,,3,Ontime,short,j,1,1.954,7,3,31,2,1,,,,,
,1.27,,,,,,,,,f,blue,5ee29028fb6eba3d81ebf0f9,2021-09-27_23h08.08,forced_choiceRT_color,2021.2.3,MacIntel,62.5,,,,,,,,3,Fast,short,f,1,1.869,8,0,32,1,1,,,,,
,0.81,,,,,,,,,k,purple,5ee29028fb6eba3d81ebf0f9,2021-09-27_23h08.08,forced_choiceRT_color,2021.2.3,MacIntel,62.5,,,,,,,,3,Fast,short,k,1,1.868,8,1,33,3,1,,,,,
,0.46,,,,,,,,,k,purple,5ee29028fb6eba3d81ebf0f9,2021-09-27_23h08.08,forced_choiceRT_color,2021.2.3,MacIntel,62.5,,,,,,,,3,Ontime,short,k,1,2.067,8,2,34,3,1,,,,,
,0.14,,,,,,,,,d,orange,5ee29028fb6eba3d81ebf0f9,2021-09-27_23h08.08,forced_choiceRT_color,2021.2.3,MacIntel,62.5,,,,,,,,3,Ontime,short,d,1,1.922,8,3,35,0,1,,,,,
,1.9,,,,,,,,,k,purple,5ee29028fb6eba3d81ebf0f9,2021-09-27_23h08.08,forced_choiceRT_color,2021.2.3,MacIntel,62.5,,,,,,,,3,Ontime,short,d,0,2.09,9,0,36,3,1,,,,,
,0.54,,,,,,,,,j,red,5ee29028fb6eba3d81ebf0f9,2021-09-27_23h08.08,forced_choiceRT_color,2021.2.3,MacIntel,62.5,,,,,,,,3,Fast,short,j,1,1.891,9,1,37,2,1,,,,,
,1.77,,,,,,,,,j,red,5ee29028fb6eba3d81ebf0f9,2021-09-27_23h08.08,forced_choiceRT_color,2021.2.3,MacIntel,62.5,,,,,,,,3,Slow,short,j,1,2.117,9,2,38,2,1,,,,,
,1.57,,,,,,,,,d,orange,5ee29028fb6eba3d81ebf0f9,2021-09-27_23h08.08,forced_choiceRT_color,2021.2.3,MacIntel,62.5,,,,,,,,3,Ontime,short,d,1,2.086,9,3,39,0,1,,,,,
,,,,,,,,,,,,5ee29028fb6eba3d81ebf0f9,2021-09-27_23h08.08,forced_choiceRT_color,2021.2.3,MacIntel,62.5,,,,,,,,,,,,,,,,,,,2,0,2,0,1
,1.06,,,,,,,,,d,orange,5ee29028fb6eba3d81ebf0f9,2021-09-27_23h08.08,forced_choiceRT_color,2021.2.3,MacIntel,62.5,,,,,,,,4,Ontime,short,d,1,1.936,0,0,0,0,1,,,,,
,0.25,,,,,,,,,k,purple,5ee29028fb6eba3d81ebf0f9,2021-09-27_23h08.08,forced_choiceRT_color,2021.2.3,MacIntel,62.5,,,,,,,,4,Ontime,short,k,1,1.992,0,1,1,3,1,,,,,
,1.02,,,,,,,,,j,red,5ee29028fb6eba3d81ebf0f9,2021-09-27_23h08.08,forced_choiceRT_color,2021.2.3,MacIntel,62.5,,,,,,,,4,Ontime,short,j,1,1.902,0,2,2,2,1,,,,,
,0.16,,,,,,,,,k,purple,5ee29028fb6eba3d81ebf0f9,2021-09-27_23h08.08,forced_choiceRT_color,2021.2.3,MacIntel,62.5,,,,,,,,4,Ontime,short,k,1,2.067,0,3,3,3,1,,,,,
,0.78,,,,,,,,,d,orange,5ee29028fb6eba3d81ebf0f9,2021-09-27_23h08.08,forced_choiceRT_color,2021.2.3,MacIntel,62.5,,,,,,,,4,Ontime,short,d,1,1.957,1,0,4,0,1,,,,,
,0.13,,,,,,,,,j,red,5ee29028fb6eba3d81ebf0f9,2021-09-27_23h08.08,forced_choiceRT_color,2021.2.3,MacIntel,62.5,,,,,,,,4,Ontime,short,j,1,2,1,1,5,2,1,,,,,
,0.88,,,,,,,,,f,blue,5ee29028fb6eba3d81ebf0f9,2021-09-27_23h08.08,forced_choiceRT_color,2021.2.3,MacIntel,62.5,,,,,,,,4,Fast,short,f,1,1.792,1,2,6,1,1,,,,,
,0.81,,,,,,,,,j,red,5ee29028fb6eba3d81ebf0f9,2021-09-27_23h08.08,forced_choiceRT_color,2021.2.3,MacIntel,62.5,,,,,,,,4,Ontime,short,j,1,2.051,1,3,7,2,1,,,,,
,1.35,,,,,,,,,f,blue,5ee29028fb6eba3d81ebf0f9,2021-09-27_23h08.08,forced_choiceRT_color,2021.2.3,MacIntel,62.5,,,,,,,,4,Ontime,short,f,1,1.99,2,0,8,1,1,,,,,
,1.25,,,,,,,,,k,purple,5ee29028fb6eba3d81ebf0f9,2021-09-27_23h08.08,forced_choiceRT_color,2021.2.3,MacIntel,62.5,,,,,,,,4,Ontime,short,k,1,1.968,2,1,9,3,1,,,,,
,0.75,,,,,,,,,j,red,5ee29028fb6eba3d81ebf0f9,2021-09-27_23h08.08,forced_choiceRT_color,2021.2.3,MacIntel,62.5,,,,,,,,4,Fast,short,j,1,1.891,2,2,10,2,1,,,,,
,1.43,,,,,,,,,f,blue,5ee29028fb6eba3d81ebf0f9,2021-09-27_23h08.08,forced_choiceRT_color,2021.2.3,MacIntel,62.5,,,,,,,,4,Ontime,short,k,0,1.993,2,3,11,1,1,,,,,
,1.59,,,,,,,,,f,blue,5ee29028fb6eba3d81ebf0f9,2021-09-27_23h08.08,forced_choiceRT_color,2021.2.3,MacIntel,62.5,,,,,,,,4,Ontime,short,f,1,1.917,3,0,12,1,1,,,,,
,1.04,,,,,,,,,d,orange,5ee29028fb6eba3d81ebf0f9,2021-09-27_23h08.08,forced_choiceRT_color,2021.2.3,MacIntel,62.5,,,,,,,,4,Fast,short,d,1,1.859,3,1,13,0,1,,,,,
,1.08,,,,,,,,,k,purple,5ee29028fb6eba3d81ebf0f9,2021-09-27_23h08.08,forced_choiceRT_color,2021.2.3,MacIntel,62.5,,,,,,,,4,Fast,short,k,1,1.842,3,2,14,3,1,,,,,
,0.96,,,,,,,,,j,red,5ee29028fb6eba3d81ebf0f9,2021-09-27_23h08.08,forced_choiceRT_color,2021.2.3,MacIntel,62.5,,,,,,,,4,Ontime,short,j,1,1.909,3,3,15,2,1,,,,,
,1.25,,,,,,,,,k,purple,5ee29028fb6eba3d81ebf0f9,2021-09-27_23h08.08,forced_choiceRT_color,2021.2.3,MacIntel,62.5,,,,,,,,4,Fast,short,k,1,1.868,4,0,16,3,1,,,,,
,0.07,,,,,,,,,j,red,5ee29028fb6eba3d81ebf0f9,2021-09-27_23h08.08,forced_choiceRT_color,2021.2.3,MacIntel,62.5,,,,,,,,4,Ontime,short,j,1,1.943,4,1,17,2,1,,,,,
,1.84,,,,,,,,,j,red,5ee29028fb6eba3d81ebf0f9,2021-09-27_23h08.08,forced_choiceRT_color,2021.2.3,MacIntel,62.5,,,,,,,,4,Slow,short,j,1,2.117,4,2,18,2,1,,,,,
,0.7,,,,,,,,,f,blue,5ee29028fb6eba3d81ebf0f9,2021-09-27_23h08.08,forced_choiceRT_color,2021.2.3,MacIntel,62.5,,,,,,,,4,Fast,short,f,1,1.744,4,3,19,1,1,,,,,
,0,,,,,,,,,d,orange,5ee29028fb6eba3d81ebf0f9,2021-09-27_23h08.08,forced_choiceRT_color,2021.2.3,MacIntel,62.5,,,,,,,,4,Fast,short,d,1,1.86,5,0,20,0,1,,,,,
,0.61,,,,,,,,,d,orange,5ee29028fb6eba3d81ebf0f9,2021-09-27_23h08.08,forced_choiceRT_color,2021.2.3,MacIntel,62.5,,,,,,,,4,Ontime,short,d,1,1.961,5,1,21,0,1,,,,,
,0.27,,,,,,,,,d,orange,5ee29028fb6eba3d81ebf0f9,2021-09-27_23h08.08,forced_choiceRT_color,2021.2.3,MacIntel,62.5,,,,,,,,4,Ontime,short,d,1,2.099,5,2,22,0,1,,,,,
,1.8,,,,,,,,,d,orange,5ee29028fb6eba3d81ebf0f9,2021-09-27_23h08.08,forced_choiceRT_color,2021.2.3,MacIntel,62.5,,,,,,,,4,Ontime,short,j,0,2.027,5,3,23,0,1,,,,,
,0.37,,,,,,,,,f,blue,5ee29028fb6eba3d81ebf0f9,2021-09-27_23h08.08,forced_choiceRT_color,2021.2.3,MacIntel,62.5,,,,,,,,4,Ontime,short,f,1,1.951,6,0,24,1,1,,,,,
,1.66,,,,,,,,,j,red,5ee29028fb6eba3d81ebf0f9,2021-09-27_23h08.08,forced_choiceRT_color,2021.2.3,MacIntel,62.5,,,,,,,,4,Ontime,short,j,1,1.936,6,1,25,2,1,,,,,
,0.3,,,,,,,,,k,purple,5ee29028fb6eba3d81ebf0f9,2021-09-27_23h08.08,forced_choiceRT_color,2021.2.3,MacIntel,62.5,,,,,,,,4,Ontime,short,k,1,1.967,6,2,26,3,1,,,,,
,1.77,,,,,,,,,k,purple,5ee29028fb6eba3d81ebf0f9,2021-09-27_23h08.08,forced_choiceRT_color,2021.2.3,MacIntel,62.5,,,,,,,,4,Ontime,short,d,0,2.001,6,3,27,3,1,,,,,
,1.08,,,,,,,,,j,red,5ee29028fb6eba3d81ebf0f9,2021-09-27_23h08.08,forced_choiceRT_color,2021.2.3,MacIntel,62.5,,,,,,,,4,Fast,short,j,1,1.893,7,0,28,2,1,,,,,
,1.51,,,,,,,,,d,orange,5ee29028fb6eba3d81ebf0f9,2021-09-27_23h08.08,forced_choiceRT_color,2021.2.3,MacIntel,62.5,,,,,,,,4,Ontime,short,d,1,2.041,7,1,29,0,1,,,,,
,0.58,,,,,,,,,d,orange,5ee29028fb6eba3d81ebf0f9,2021-09-27_23h08.08,forced_choiceRT_color,2021.2.3,MacIntel,62.5,,,,,,,,4,Fast,short,d,1,1.849,7,2,30,0,1,,,,,
,0.19,,,,,,,,,k,purple,5ee29028fb6eba3d81ebf0f9,2021-09-27_23h08.08,forced_choiceRT_color,2021.2.3,MacIntel,62.5,,,,,,,,4,Ontime,short,k,1,1.95,7,3,31,3,1,,,,,
,1.73,,,,,,,,,f,blue,5ee29028fb6eba3d81ebf0f9,2021-09-27_23h08.08,forced_choiceRT_color,2021.2.3,MacIntel,62.5,,,,,,,,4,Slow,short,j,0,2.157,8,0,32,1,1,,,,,
,1.19,,,,,,,,,f,blue,5ee29028fb6eba3d81ebf0f9,2021-09-27_23h08.08,forced_choiceRT_color,2021.2.3,MacIntel,62.5,,,,,,,,4,Ontime,short,f,1,1.936,8,1,33,1,1,,,,,
,0.2,,,,,,,,,f,blue,5ee29028fb6eba3d81ebf0f9,2021-09-27_23h08.08,forced_choiceRT_color,2021.2.3,MacIntel,62.5,,,,,,,,4,Ontime,short,j,0,2.099,8,2,34,1,1,,,,,
,1.83,,,,,,,,,k,purple,5ee29028fb6eba3d81ebf0f9,2021-09-27_23h08.08,forced_choiceRT_color,2021.2.3,MacIntel,62.5,,,,,,,,4,Slow,short,k,1,2.727,8,3,35,3,1,,,,,
,0.79,,,,,,,,,k,purple,5ee29028fb6eba3d81ebf0f9,2021-09-27_23h08.08,forced_choiceRT_color,2021.2.3,MacIntel,62.5,,,,,,,,4,Ontime,short,k,1,1.968,9,0,36,3,1,,,,,
,0.04,,,,,,,,,d,orange,5ee29028fb6eba3d81ebf0f9,2021-09-27_23h08.08,forced_choiceRT_color,2021.2.3,MacIntel,62.5,,,,,,,,4,Ontime,short,f,0,2.009,9,1,37,0,1,,,,,
,1.06,,,,,,,,,f,blue,5ee29028fb6eba3d81ebf0f9,2021-09-27_23h08.08,forced_choiceRT_color,2021.2.3,MacIntel,62.5,,,,,,,,4,Fast,short,j,0,1.784,9,2,38,1,1,,,,,
,0.34,,,,,,,,,j,red,5ee29028fb6eba3d81ebf0f9,2021-09-27_23h08.08,forced_choiceRT_color,2021.2.3,MacIntel,62.5,,,,,,,,4,Ontime,short,j,1,1.919,9,3,39,2,1,,,,,
,,,,,,,,,,,,5ee29028fb6eba3d81ebf0f9,2021-09-27_23h08.08,forced_choiceRT_color,2021.2.3,MacIntel,62.5,,,,,,,,,,,,,,,,,,,3,0,3,0,1
,1,,,,,,,,,j,red,5ee29028fb6eba3d81ebf0f9,2021-09-27_23h08.08,forced_choiceRT_color,2021.2.3,MacIntel,62.5,,,,,,,,5,Ontime,short,j,1,2.042,0,0,0,2,1,,,,,
,1.49,,,,,,,,,f,blue,5ee29028fb6eba3d81ebf0f9,2021-09-27_23h08.08,forced_choiceRT_color,2021.2.3,MacIntel,62.5,,,,,,,,5,Ontime,short,k,0,2.009,0,1,1,1,1,,,,,
,0.01,,,,,,,,,f,blue,5ee29028fb6eba3d81ebf0f9,2021-09-27_23h08.08,forced_choiceRT_color,2021.2.3,MacIntel,62.5,,,,,,,,5,Ontime,short,f,1,1.943,0,2,2,1,1,,,,,
,1.16,,,,,,,,,k,purple,5ee29028fb6eba3d81ebf0f9,2021-09-27_23h08.08,forced_choiceRT_color,2021.2.3,MacIntel,62.5,,,,,,,,5,Ontime,short,k,1,2.012,0,3,3,3,1,,,,,
,1.19,,,,,,,,,j,red,5ee29028fb6eba3d81ebf0f9,2021-09-27_23h08.08,forced_choiceRT_color,2021.2.3,MacIntel,62.5,,,,,,,,5,Ontime,short,j,1,1.956,1,0,4,2,1,,,,,
,1.98,,,,,,,,,f,blue,5ee29028fb6eba3d81ebf0f9,2021-09-27_23h08.08,forced_choiceRT_color,2021.2.3,MacIntel,62.5,,,,,,,,5,Slow,short,k,0,2.234,1,1,5,1,1,,,,,
,0.2,,,,,,,,,k,purple,5ee29028fb6eba3d81ebf0f9,2021-09-27_23h08.08,forced_choiceRT_color,2021.2.3,MacIntel,62.5,,,,,,,,5,Ontime,short,k,1,2.036,1,2,6,3,1,,,,,
,1.82,,,,,,,,,f,blue,5ee29028fb6eba3d81ebf0f9,2021-09-27_23h08.08,forced_choiceRT_color,2021.2.3,MacIntel,62.5,,,,,,,,5,Slow,short,k,0,2.167,1,3,7,1,1,,,,,
,1.34,,,,,,,,,d,orange,5ee29028fb6eba3d81ebf0f9,2021-09-27_23h08.08,forced_choiceRT_color,2021.2.3,MacIntel,62.5,,,,,,,,5,Ontime,short,d,1,1.985,2,0,8,0,1,,,,,
,0.04,,,,,,,,,k,purple,5ee29028fb6eba3d81ebf0f9,2021-09-27_23h08.08,forced_choiceRT_color,2021.2.3,MacIntel,62.5,,,,,,,,5,Ontime,short,k,1,2.066,2,1,9,3,1,,,,,
,0.06,,,,,,,,,f,blue,5ee29028fb6eba3d81ebf0f9,2021-09-27_23h08.08,forced_choiceRT_color,2021.2.3,MacIntel,62.5,,,,,,,,5,Ontime,short,f,1,2.01,2,2,10,1,1,,,,,
,0.02,,,,,,,,,d,orange,5ee29028fb6eba3d81ebf0f9,2021-09-27_23h08.08,forced_choiceRT_color,2021.2.3,MacIntel,62.5,,,,,,,,5,Ontime,short,d,1,2.035,2,3,11,0,1,,,,,
,0.1,,,,,,,,,j,red,5ee29028fb6eba3d81ebf0f9,2021-09-27_23h08.08,forced_choiceRT_color,2021.2.3,MacIntel,62.5,,,,,,,,5,Ontime,short,j,1,2.044,3,0,12,2,1,,,,,
,1.74,,,,,,,,,d,orange,5ee29028fb6eba3d81ebf0f9,2021-09-27_23h08.08,forced_choiceRT_color,2021.2.3,MacIntel,62.5,,,,,,,,5,Ontime,short,d,1,2.042,3,1,13,0,1,,,,,
,1.55,,,,,,,,,d,orange,5ee29028fb6eba3d81ebf0f9,2021-09-27_23h08.08,forced_choiceRT_color,2021.2.3,MacIntel,62.5,,,,,,,,5,Slow,short,d,1,2.118,3,2,14,0,1,,,,,
,0.42,,,,,,,,,d,orange,5ee29028fb6eba3d81ebf0f9,2021-09-27_23h08.08,forced_choiceRT_color,2021.2.3,MacIntel,62.5,,,,,,,,5,Ontime,short,d,1,1.961,3,3,15,0,1,,,,,
,1.17,,,,,,,,,k,purple,5ee29028fb6eba3d81ebf0f9,2021-09-27_23h08.08,forced_choiceRT_color,2021.2.3,MacIntel,62.5,,,,,,,,5,Fast,short,k,1,1.765,4,0,16,3,1,,,,,
,0.48,,,,,,,,,d,orange,5ee29028fb6eba3d81ebf0f9,2021-09-27_23h08.08,forced_choiceRT_color,2021.2.3,MacIntel,62.5,,,,,,,,5,Ontime,short,d,1,1.968,4,1,17,0,1,,,,,
,1.24,,,,,,,,,d,orange,5ee29028fb6eba3d81ebf0f9,2021-09-27_23h08.08,forced_choiceRT_color,2021.2.3,MacIntel,62.5,,,,,,,,5,Fast,short,d,1,1.884,4,2,18,0,1,,,,,
,0.24,,,,,,,,,j,red,5ee29028fb6eba3d81ebf0f9,2021-09-27_23h08.08,forced_choiceRT_color,2021.2.3,MacIntel,62.5,,,,,,,,5,Ontime,short,j,1,2.059,4,3,19,2,1,,,,,
,0.78,,,,,,,,,f,blue,5ee29028fb6eba3d81ebf0f9,2021-09-27_23h08.08,forced_choiceRT_color,2021.2.3,MacIntel,62.5,,,,,,,,5,Ontime,short,f,1,2.051,5,0,20,1,1,,,,,
,0.21,,,,,,,,,j,red,5ee29028fb6eba3d81ebf0f9,2021-09-27_23h08.08,forced_choiceRT_color,2021.2.3,MacIntel,62.5,,,,,,,,5,Ontime,short,j,1,1.993,5,1,21,2,1,,,,,
,0.65,,,,,,,,,k,purple,5ee29028fb6eba3d81ebf0f9,2021-09-27_23h08.08,forced_choiceRT_color,2021.2.3,MacIntel,62.5,,,,,,,,5,Slow,short,k,1,2.136,5,2,22,3,1,,,,,
,0.63,,,,,,,,,f,blue,5ee29028fb6eba3d81ebf0f9,2021-09-27_23h08.08,forced_choiceRT_color,2021.2.3,MacIntel,62.5,,,,,,,,5,Ontime,short,j,0,1.991,5,3,23,1,1,,,,,
,1.64,,,,,,,,,f,blue,5ee29028fb6eba3d81ebf0f9,2021-09-27_23h08.08,forced_choiceRT_color,2021.2.3,MacIntel,62.5,,,,,,,,5,Ontime,short,j,0,2.068,6,0,24,1,1,,,,,
,0.53,,,,,,,,,k,purple,5ee29028fb6eba3d81ebf0f9,2021-09-27_23h08.08,forced_choiceRT_color,2021.2.3,MacIntel,62.5,,,,,,,,5,Ontime,short,k,1,1.96,6,1,25,3,1,,,,,
,0.74,,,,,,,,,j,red,5ee29028fb6eba3d81ebf0f9,2021-09-27_23h08.08,forced_choiceRT_color,2021.2.3,MacIntel,62.5,,,,,,,,5,Ontime,short,f,0,1.941,6,2,26,2,1,,,,,
,1.23,,,,,,,,,j,red,5ee29028fb6eba3d81ebf0f9,2021-09-27_23h08.08,forced_choiceRT_color,2021.2.3,MacIntel,62.5,,,,,,,,5,Fast,short,f,0,1.852,6,3,27,2,1,,,,,
,0.27,,,,,,,,,j,red,5ee29028fb6eba3d81ebf0f9,2021-09-27_23h08.08,forced_choiceRT_color,2021.2.3,MacIntel,62.5,,,,,,,,5,Ontime,short,f,0,2.058,7,0,28,2,1,,,,,
,0.69,,,,,,,,,k,purple,5ee29028fb6eba3d81ebf0f9,2021-09-27_23h08.08,forced_choiceRT_color,2021.2.3,MacIntel,62.5,,,,,,,,5,Ontime,short,k,1,1.974,7,1,29,3,1,,,,,
,0.55,,,,,,,,,j,red,5ee29028fb6eba3d81ebf0f9,2021-09-27_23h08.08,forced_choiceRT_color,2021.2.3,MacIntel,62.5,,,,,,,,5,Ontime,short,f,0,1.997,7,2,30,2,1,,,,,
,0.1,,,,,,,,,k,purple,5ee29028fb6eba3d81ebf0f9,2021-09-27_23h08.08,forced_choiceRT_color,2021.2.3,MacIntel,62.5,,,,,,,,5,Ontime,short,k,1,1.979,7,3,31,3,1,,,,,
,1.49,,,,,,,,,f,blue,5ee29028fb6eba3d81ebf0f9,2021-09-27_23h08.08,forced_choiceRT_color,2021.2.3,MacIntel,62.5,,,,,,,,5,Ontime,short,j,0,2.002,8,0,32,1,1,,,,,
,1.96,,,,,,,,,d,orange,5ee29028fb6eba3d81ebf0f9,2021-09-27_23h08.08,forced_choiceRT_color,2021.2.3,MacIntel,62.5,,,,,,,,5,Ontime,short,j,0,2.068,8,1,33,0,1,,,,,
,1.14,,,,,,,,,d,orange,5ee29028fb6eba3d81ebf0f9,2021-09-27_23h08.08,forced_choiceRT_color,2021.2.3,MacIntel,62.5,,,,,,,,5,Ontime,short,d,1,1.925,8,2,34,0,1,,,,,
,0.47,,,,,,,,,d,orange,5ee29028fb6eba3d81ebf0f9,2021-09-27_23h08.08,forced_choiceRT_color,2021.2.3,MacIntel,62.5,,,,,,,,5,Ontime,short,d,1,1.958,8,3,35,0,1,,,,,
,1.65,,,,,,,,,k,purple,5ee29028fb6eba3d81ebf0f9,2021-09-27_23h08.08,forced_choiceRT_color,2021.2.3,MacIntel,62.5,,,,,,,,5,Slow,short,j,0,2.112,9,0,36,3,1,,,,,
,1.69,,,,,,,,,j,red,5ee29028fb6eba3d81ebf0f9,2021-09-27_23h08.08,forced_choiceRT_color,2021.2.3,MacIntel,62.5,,,,,,,,5,Ontime,short,j,1,2.092,9,1,37,2,1,,,,,
,1.65,,,,,,,,,k,purple,5ee29028fb6eba3d81ebf0f9,2021-09-27_23h08.08,forced_choiceRT_color,2021.2.3,MacIntel,62.5,,,,,,,,5,Fast,short,f,0,0.074,9,2,38,3,1,,,,,
,0.17,,,,,,,,,f,blue,5ee29028fb6eba3d81ebf0f9,2021-09-27_23h08.08,forced_choiceRT_color,2021.2.3,MacIntel,62.5,,,,,,,,5,Ontime,short,f,1,2.06,9,3,39,1,1,,,,,
,,,,,,,,,,,,5ee29028fb6eba3d81ebf0f9,2021-09-27_23h08.08,forced_choiceRT_color,2021.2.3,MacIntel,62.5,,,,,,,,,,,,,,,,,,,4,0,4,0,1
,1.21,,,,,,,,,j,red,5ee29028fb6eba3d81ebf0f9,2021-09-27_23h08.08,forced_choiceRT_color,2021.2.3,MacIntel,62.5,,,,,,,,6,Ontime,short,k,0,2.059,0,0,0,2,1,,,,,
,0.31,,,,,,,,,j,red,5ee29028fb6eba3d81ebf0f9,2021-09-27_23h08.08,forced_choiceRT_color,2021.2.3,MacIntel,62.5,,,,,,,,6,Fast,short,j,1,0.051,0,1,1,2,1,,,,,
,0.43,,,,,,,,,d,orange,5ee29028fb6eba3d81ebf0f9,2021-09-27_23h08.08,forced_choiceRT_color,2021.2.3,MacIntel,62.5,,,,,,,,6,Ontime,short,d,1,2.026,0,2,2,0,1,,,,,
,1.09,,,,,,,,,k,purple,5ee29028fb6eba3d81ebf0f9,2021-09-27_23h08.08,forced_choiceRT_color,2021.2.3,MacIntel,62.5,,,,,,,,6,Slow,short,k,1,2.101,0,3,3,3,1,,,,,
,0.77,,,,,,,,,j,red,5ee29028fb6eba3d81ebf0f9,2021-09-27_23h08.08,forced_choiceRT_color,2021.2.3,MacIntel,62.5,,,,,,,,6,Ontime,short,j,1,1.97,1,0,4,2,1,,,,,
,0.33,,,,,,,,,j,red,5ee29028fb6eba3d81ebf0f9,2021-09-27_23h08.08,forced_choiceRT_color,2021.2.3,MacIntel,62.5,,,,,,,,6,Ontime,short,j,1,2.075,1,1,5,2,1,,,,,
,1.67,,,,,,,,,d,orange,5ee29028fb6eba3d81ebf0f9,2021-09-27_23h08.08,forced_choiceRT_color,2021.2.3,MacIntel,62.5,,,,,,,,6,Ontime,short,f,0,1.977,1,2,6,0,1,,,,,
,1.07,,,,,,,,,j,red,5ee29028fb6eba3d81ebf0f9,2021-09-27_23h08.08,forced_choiceRT_color,2021.2.3,MacIntel,62.5,,,,,,,,6,Ontime,short,j,1,2.059,1,3,7,2,1,,,,,
,0.01,,,,,,,,,f,blue,5ee29028fb6eba3d81ebf0f9,2021-09-27_23h08.08,forced_choiceRT_color,2021.2.3,MacIntel,62.5,,,,,,,,6,Ontime,short,f,1,2.069,2,0,8,1,1,,,,,
,1.22,,,,,,,,,d,orange,5ee29028fb6eba3d81ebf0f9,2021-09-27_23h08.08,forced_choiceRT_color,2021.2.3,MacIntel,62.5,,,,,,,,6,Ontime,short,k,0,1.908,2,1,9,0,1,,,,,
,0.28,,,,,,,,,d,orange,5ee29028fb6eba3d81ebf0f9,2021-09-27_23h08.08,forced_choiceRT_color,2021.2.3,MacIntel,62.5,,,,,,,,6,Ontime,short,d,1,2.052,2,2,10,0,1,,,,,
,1.18,,,,,,,,,j,red,5ee29028fb6eba3d81ebf0f9,2021-09-27_23h08.08,forced_choiceRT_color,2021.2.3,MacIntel,62.5,,,,,,,,6,Ontime,short,j,1,1.901,2,3,11,2,1,,,,,
,0.6,,,,,,,,,f,blue,5ee29028fb6eba3d81ebf0f9,2021-09-27_23h08.08,forced_choiceRT_color,2021.2.3,MacIntel,62.5,,,,,,,,6,Fast,short,f,1,1.839,3,0,12,1,1,,,,,
,1.6,,,,,,,,,k,purple,5ee29028fb6eba3d81ebf0f9,2021-09-27_23h08.08,forced_choiceRT_color,2021.2.3,MacIntel,62.5,,,,,,,,6,Ontime,short,k,1,2.092,3,1,13,3,1,,,,,
,0.46,,,,,,,,,k,purple,5ee29028fb6eba3d81ebf0f9,2021-09-27_23h08.08,forced_choiceRT_color,2021.2.3,MacIntel,62.5,,,,,,,,6,Ontime,short,k,1,1.983,3,2,14,3,1,,,,,
,0.83,,,,,,,,,j,red,5ee29028fb6eba3d81ebf0f9,2021-09-27_23h08.08,forced_choiceRT_color,2021.2.3,MacIntel,62.5,,,,,,,,6,Ontime,short,j,1,2.027,3,3,15,2,1,,,,,
,1.8,,,,,,,,,f,blue,5ee29028fb6eba3d81ebf0f9,2021-09-27_23h08.08,forced_choiceRT_color,2021.2.3,MacIntel,62.5,,,,,,,,6,Slow,short,f,1,2.526,4,0,16,1,1,,,,,
,0.93,,,,,,,,,d,orange,5ee29028fb6eba3d81ebf0f9,2021-09-27_23h08.08,forced_choiceRT_color,2021.2.3,MacIntel,62.5,,,,,,,,6,Ontime,short,d,1,1.926,4,1,17,0,1,,,,,
,1.81,,,,,,,,,f,blue,5ee29028fb6eba3d81ebf0f9,2021-09-27_23h08.08,forced_choiceRT_color,2021.2.3,MacIntel,62.5,,,,,,,,6,Ontime,short,j,0,2.025,4,2,18,1,1,,,,,
,0.54,,,,,,,,,k,purple,5ee29028fb6eba3d81ebf0f9,2021-09-27_23h08.08,forced_choiceRT_color,2021.2.3,MacIntel,62.5,,,,,,,,6,Ontime,short,k,1,1.97,4,3,19,3,1,,,,,
,1.23,,,,,,,,,k,purple,5ee29028fb6eba3d81ebf0f9,2021-09-27_23h08.08,forced_choiceRT_color,2021.2.3,MacIntel,62.5,,,,,,,,6,Ontime,short,k,1,1.925,5,0,20,3,1,,,,,
,1.49,,,,,,,,,d,orange,5ee29028fb6eba3d81ebf0f9,2021-09-27_23h08.08,forced_choiceRT_color,2021.2.3,MacIntel,62.5,,,,,,,,6,Ontime,short,j,0,1.936,5,1,21,0,1,,,,,
,1.37,,,,,,,,,k,purple,5ee29028fb6eba3d81ebf0f9,2021-09-27_23h08.08,forced_choiceRT_color,2021.2.3,MacIntel,62.5,,,,,,,,6,Fast,short,k,1,1.852,5,2,22,3,1,,,,,
,0.82,,,,,,,,,d,orange,5ee29028fb6eba3d81ebf0f9,2021-09-27_23h08.08,forced_choiceRT_color,2021.2.3,MacIntel,62.5,,,,,,,,6,Fast,short,d,1,1.858,5,3,23,0,1,,,,,
,1.1,,,,,,,,,d,orange,5ee29028fb6eba3d81ebf0f9,2021-09-27_23h08.08,forced_choiceRT_color,2021.2.3,MacIntel,62.5,,,,,,,,6,Ontime,short,d,1,1.975,6,0,24,0,1,,,,,
,0.28,,,,,,,,,f,blue,5ee29028fb6eba3d81ebf0f9,2021-09-27_23h08.08,forced_choiceRT_color,2021.2.3,MacIntel,62.5,,,,,,,,6,Ontime,short,f,1,2.074,6,1,25,1,1,,,,,
,0.29,,,,,,,,,f,blue,5ee29028fb6eba3d81ebf0f9,2021-09-27_23h08.08,forced_choiceRT_color,2021.2.3,MacIntel,62.5,,,,,,,,6,Ontime,short,f,1,1.958,6,2,26,1,1,,,,,
,1.38,,,,,,,,,j,red,5ee29028fb6eba3d81ebf0f9,2021-09-27_23h08.08,forced_choiceRT_color,2021.2.3,MacIntel,62.5,,,,,,,,6,Fast,short,j,1,1.827,6,3,27,2,1,,,,,
,0.54,,,,,,,,,d,orange,5ee29028fb6eba3d81ebf0f9,2021-09-27_23h08.08,forced_choiceRT_color,2021.2.3,MacIntel,62.5,,,,,,,,6,Ontime,short,d,1,1.952,7,0,28,0,1,,,,,
,0.77,,,,,,,,,d,orange,5ee29028fb6eba3d81ebf0f9,2021-09-27_23h08.08,forced_choiceRT_color,2021.2.3,MacIntel,62.5,,,,,,,,6,Ontime,short,d,1,1.934,7,1,29,0,1,,,,,
,0.21,,,,,,,,,f,blue,5ee29028fb6eba3d81ebf0f9,2021-09-27_23h08.08,forced_choiceRT_color,2021.2.3,MacIntel,62.5,,,,,,,,6,Ontime,short,f,1,2.011,7,2,30,1,1,,,,,
,1.95,,,,,,,,,k,purple,5ee29028fb6eba3d81ebf0f9,2021-09-27_23h08.08,forced_choiceRT_color,2021.2.3,MacIntel,62.5,,,,,,,,6,Ontime,short,f,0,1.903,7,3,31,3,1,,,,,
,0.61,,,,,,,,,f,blue,5ee29028fb6eba3d81ebf0f9,2021-09-27_23h08.08,forced_choiceRT_color,2021.2.3,MacIntel,62.5,,,,,,,,6,Fast,short,f,1,1.828,8,0,32,1,1,,,,,
,1.58,,,,,,,,,k,purple,5ee29028fb6eba3d81ebf0f9,2021-09-27_23h08.08,forced_choiceRT_color,2021.2.3,MacIntel,62.5,,,,,,,,6,Ontime,short,j,0,1.967,8,1,33,3,1,,,,,
,0.73,,,,,,,,,f,blue,5ee29028fb6eba3d81ebf0f9,2021-09-27_23h08.08,forced_choiceRT_color,2021.2.3,MacIntel,62.5,,,,,,,,6,Ontime,short,f,1,2.015,8,2,34,1,1,,,,,
,0.18,,,,,,,,,k,purple,5ee29028fb6eba3d81ebf0f9,2021-09-27_23h08.08,forced_choiceRT_color,2021.2.3,MacIntel,62.5,,,,,,,,6,Ontime,short,k,1,2.035,8,3,35,3,1,,,,,
,0.67,,,,,,,,,f,blue,5ee29028fb6eba3d81ebf0f9,2021-09-27_23h08.08,forced_choiceRT_color,2021.2.3,MacIntel,62.5,,,,,,,,6,Ontime,short,f,1,2.061,9,0,36,1,1,,,,,
,0.96,,,,,,,,,k,purple,5ee29028fb6eba3d81ebf0f9,2021-09-27_23h08.08,forced_choiceRT_color,2021.2.3,MacIntel,62.5,,,,,,,,6,Ontime,short,k,1,2.067,9,1,37,3,1,,,,,
,0.33,,,,,,,,,j,red,5ee29028fb6eba3d81ebf0f9,2021-09-27_23h08.08,forced_choiceRT_color,2021.2.3,MacIntel,62.5,,,,,,,,6,Slow,short,j,1,2.144,9,2,38,2,1,,,,,
,1.87,,,,,,,,,j,red,5ee29028fb6eba3d81ebf0f9,2021-09-27_23h08.08,forced_choiceRT_color,2021.2.3,MacIntel,62.5,,,,,,,,6,Ontime,short,j,1,2.094,9,3,39,2,1,,,,,
,,,,,,,,,,,,5ee29028fb6eba3d81ebf0f9,2021-09-27_23h08.08,forced_choiceRT_color,2021.2.3,MacIntel,62.5,,,,,,,,,,,,,,,,,,,5,0,5,0,1
,0.2,,,,,,,,,d,orange,5ee29028fb6eba3d81ebf0f9,2021-09-27_23h08.08,forced_choiceRT_color,2021.2.3,MacIntel,62.5,,,,,,,,7,Ontime,short,d,1,1.974,0,0,0,0,1,,,,,
,0.9,,,,,,,,,j,red,5ee29028fb6eba3d81ebf0f9,2021-09-27_23h08.08,forced_choiceRT_color,2021.2.3,MacIntel,62.5,,,,,,,,7,Ontime,short,j,1,2.009,0,1,1,2,1,,,,,
,0.94,,,,,,,,,f,blue,5ee29028fb6eba3d81ebf0f9,2021-09-27_23h08.08,forced_choiceRT_color,2021.2.3,MacIntel,62.5,,,,,,,,7,Ontime,short,f,1,2.007,0,2,2,1,1,,,,,
,1.04,,,,,,,,,f,blue,5ee29028fb6eba3d81ebf0f9,2021-09-27_23h08.08,forced_choiceRT_color,2021.2.3,MacIntel,62.5,,,,,,,,7,Fast,short,f,1,1.86,0,3,3,1,1,,,,,
,1.04,,,,,,,,,k,purple,5ee29028fb6eba3d81ebf0f9,2021-09-27_23h08.08,forced_choiceRT_color,2021.2.3,MacIntel,62.5,,,,,,,,7,Fast,short,k,1,1.885,1,0,4,3,1,,,,,
,0.94,,,,,,,,,f,blue,5ee29028fb6eba3d81ebf0f9,2021-09-27_23h08.08,forced_choiceRT_color,2021.2.3,MacIntel,62.5,,,,,,,,7,Ontime,short,f,1,1.942,1,1,5,1,1,,,,,
,1.18,,,,,,,,,d,orange,5ee29028fb6eba3d81ebf0f9,2021-09-27_23h08.08,forced_choiceRT_color,2021.2.3,MacIntel,62.5,,,,,,,,7,Ontime,short,j,0,1.99,1,2,6,0,1,,,,,
,0.24,,,,,,,,,f,blue,5ee29028fb6eba3d81ebf0f9,2021-09-27_23h08.08,forced_choiceRT_color,2021.2.3,MacIntel,62.5,,,,,,,,7,Ontime,short,f,1,2.054,1,3,7,1,1,,,,,
,1.01,,,,,,,,,j,red,5ee29028fb6eba3d81ebf0f9,2021-09-27_23h08.08,forced_choiceRT_color,2021.2.3,MacIntel,62.5,,,,,,,,7,Fast,short,j,1,1.827,2,0,8,2,1,,,,,
,1.12,,,,,,,,,j,red,5ee29028fb6eba3d81ebf0f9,2021-09-27_23h08.08,forced_choiceRT_color,2021.2.3,MacIntel,62.5,,,,,,,,7,Ontime,short,j,1,1.968,2,1,9,2,1,,,,,
,1.46,,,,,,,,,k,purple,5ee29028fb6eba3d81ebf0f9,2021-09-27_23h08.08,forced_choiceRT_color,2021.2.3,MacIntel,62.5,,,,,,,,7,Ontime,short,k,1,2.008,2,2,10,3,1,,,,,
,1.68,,,,,,,,,j,red,5ee29028fb6eba3d81ebf0f9,2021-09-27_23h08.08,forced_choiceRT_color,2021.2.3,MacIntel,62.5,,,,,,,,7,Ontime,short,k,0,2.052,2,3,11,2,1,,,,,
,0.32,,,,,,,,,f,blue,5ee29028fb6eba3d81ebf0f9,2021-09-27_23h08.08,forced_choiceRT_color,2021.2.3,MacIntel,62.5,,,,,,,,7,Ontime,short,f,1,1.969,3,0,12,1,1,,,,,
,0.64,,,,,,,,,d,orange,5ee29028fb6eba3d81ebf0f9,2021-09-27_23h08.08,forced_choiceRT_color,2021.2.3,MacIntel,62.5,,,,,,,,7,Ontime,short,d,1,2.018,3,1,13,0,1,,,,,
,1.96,,,,,,,,,d,orange,5ee29028fb6eba3d81ebf0f9,2021-09-27_23h08.08,forced_choiceRT_color,2021.2.3,MacIntel,62.5,,,,,,,,7,Ontime,short,j,0,2.01,3,2,14,0,1,,,,,
,0.24,,,,,,,,,k,purple,5ee29028fb6eba3d81ebf0f9,2021-09-27_23h08.08,forced_choiceRT_color,2021.2.3,MacIntel,62.5,,,,,,,,7,Ontime,short,k,1,1.935,3,3,15,3,1,,,,,
,1.26,,,,,,,,,k,purple,5ee29028fb6eba3d81ebf0f9,2021-09-27_23h08.08,forced_choiceRT_color,2021.2.3,MacIntel,62.5,,,,,,,,7,Ontime,short,k,1,2.019,4,0,16,3,1,,,,,
,1.35,,,,,,,,,d,orange,5ee29028fb6eba3d81ebf0f9,2021-09-27_23h08.08,forced_choiceRT_color,2021.2.3,MacIntel,62.5,,,,,,,,7,Ontime,short,f,0,1.928,4,1,17,0,1,,,,,
,0.74,,,,,,,,,d,orange,5ee29028fb6eba3d81ebf0f9,2021-09-27_23h08.08,forced_choiceRT_color,2021.2.3,MacIntel,62.5,,,,,,,,7,Ontime,short,d,1,1.943,4,2,18,0,1,,,,,
,0.3,,,,,,,,,f,blue,5ee29028fb6eba3d81ebf0f9,2021-09-27_23h08.08,forced_choiceRT_color,2021.2.3,MacIntel,62.5,,,,,,,,7,Ontime,short,f,1,1.943,4,3,19,1,1,,,,,
,0.59,,,,,,,,,j,red,5ee29028fb6eba3d81ebf0f9,2021-09-27_23h08.08,forced_choiceRT_color,2021.2.3,MacIntel,62.5,,,,,,,,7,Ontime,short,j,1,2.036,5,0,20,2,1,,,,,
,1.14,,,,,,,,,j,red,5ee29028fb6eba3d81ebf0f9,2021-09-27_23h08.08,forced_choiceRT_color,2021.2.3,MacIntel,62.5,,,,,,,,7,Ontime,short,j,1,1.952,5,1,21,2,1,,,,,
,1.22,,,,,,,,,j,red,5ee29028fb6eba3d81ebf0f9,2021-09-27_23h08.08,forced_choiceRT_color,2021.2.3,MacIntel,62.5,,,,,,,,7,Ontime,short,j,1,1.96,5,2,22,2,1,,,,,
,0.44,,,,,,,,,k,purple,5ee29028fb6eba3d81ebf0f9,2021-09-27_23h08.08,forced_choiceRT_color,2021.2.3,MacIntel,62.5,,,,,,,,7,Ontime,short,k,1,2.01,5,3,23,3,1,,,,,
,1.48,,,,,,,,,j,red,5ee29028fb6eba3d81ebf0f9,2021-09-27_23h08.08,forced_choiceRT_color,2021.2.3,MacIntel,62.5,,,,,,,,7,Ontime,short,j,1,1.918,6,0,24,2,1,,,,,
,1.3,,,,,,,,,f,blue,5ee29028fb6eba3d81ebf0f9,2021-09-27_23h08.08,forced_choiceRT_color,2021.2.3,MacIntel,62.5,,,,,,,,7,Fast,short,f,1,1.836,6,1,25,1,1,,,,,
,0.69,,,,,,,,,k,purple,5ee29028fb6eba3d81ebf0f9,2021-09-27_23h08.08,forced_choiceRT_color,2021.2.3,MacIntel,62.5,,,,,,,,7,Ontime,short,k,1,2.035,6,2,26,3,1,,,,,
,1.76,,,,,,,,,d,orange,5ee29028fb6eba3d81ebf0f9,2021-09-27_23h08.08,forced_choiceRT_color,2021.2.3,MacIntel,62.5,,,,,,,,7,Slow,short,j,0,2.181,6,3,27,0,1,,,,,
,0.27,,,,,,,,,k,purple,5ee29028fb6eba3d81ebf0f9,2021-09-27_23h08.08,forced_choiceRT_color,2021.2.3,MacIntel,62.5,,,,,,,,7,Ontime,short,k,1,1.968,7,0,28,3,1,,,,,
,0.74,,,,,,,,,f,blue,5ee29028fb6eba3d81ebf0f9,2021-09-27_23h08.08,forced_choiceRT_color,2021.2.3,MacIntel,62.5,,,,,,,,7,Ontime,short,j,0,2.043,7,1,29,1,1,,,,,
,1.58,,,,,,,,,k,purple,5ee29028fb6eba3d81ebf0f9,2021-09-27_23h08.08,forced_choiceRT_color,2021.2.3,MacIntel,62.5,,,,,,,,7,Ontime,short,k,1,2.068,7,2,30,3,1,,,,,
,1.38,,,,,,,,,f,blue,5ee29028fb6eba3d81ebf0f9,2021-09-27_23h08.08,forced_choiceRT_color,2021.2.3,MacIntel,62.5,,,,,,,,7,Fast,short,f,1,1.875,7,3,31,1,1,,,,,
,0.48,,,,,,,,,d,orange,5ee29028fb6eba3d81ebf0f9,2021-09-27_23h08.08,forced_choiceRT_color,2021.2.3,MacIntel,62.5,,,,,,,,7,Ontime,short,d,1,1.969,8,0,32,0,1,,,,,
,0.07,,,,,,,,,k,purple,5ee29028fb6eba3d81ebf0f9,2021-09-27_23h08.08,forced_choiceRT_color,2021.2.3,MacIntel,62.5,,,,,,,,7,Ontime,short,k,1,2.022,8,1,33,3,1,,,,,
,1.6,,,,,,,,,d,orange,5ee29028fb6eba3d81ebf0f9,2021-09-27_23h08.08,forced_choiceRT_color,2021.2.3,MacIntel,62.5,,,,,,,,7,Ontime,short,f,0,2.093,8,2,34,0,1,,,,,
,1.29,,,,,,,,,k,purple,5ee29028fb6eba3d81ebf0f9,2021-09-27_23h08.08,forced_choiceRT_color,2021.2.3,MacIntel,62.5,,,,,,,,7,Slow,short,k,1,2.118,8,3,35,3,1,,,,,
,1.65,,,,,,,,,j,red,5ee29028fb6eba3d81ebf0f9,2021-09-27_23h08.08,forced_choiceRT_color,2021.2.3,MacIntel,62.5,,,,,,,,7,Slow,short,j,1,2.16,9,0,36,2,1,,,,,
,1.65,,,,,,,,,d,orange,5ee29028fb6eba3d81ebf0f9,2021-09-27_23h08.08,forced_choiceRT_color,2021.2.3,MacIntel,62.5,,,,,,,,7,Ontime,short,f,0,2.086,9,1,37,0,1,,,,,
,0.83,,,,,,,,,j,red,5ee29028fb6eba3d81ebf0f9,2021-09-27_23h08.08,forced_choiceRT_color,2021.2.3,MacIntel,62.5,,,,,,,,7,Ontime,short,j,1,1.981,9,2,38,2,1,,,,,
,1.43,,,,,,,,,f,blue,5ee29028fb6eba3d81ebf0f9,2021-09-27_23h08.08,forced_choiceRT_color,2021.2.3,MacIntel,62.5,,,,,,,,7,Ontime,short,f,1,1.969,9,3,39,1,1,,,,,
,,,,,,,,,,,,5ee29028fb6eba3d81ebf0f9,2021-09-27_23h08.08,forced_choiceRT_color,2021.2.3,MacIntel,62.5,,,,,,,,,,,,,,,,,,,6,0,6,0,1
,1.13,,,,,,,,,k,purple,5ee29028fb6eba3d81ebf0f9,2021-09-27_23h08.08,forced_choiceRT_color,2021.2.3,MacIntel,62.5,,,,,,,,8,Fast,short,k,1,1.879,0,0,0,3,1,,,,,
,1.5,,,,,,,,,d,orange,5ee29028fb6eba3d81ebf0f9,2021-09-27_23h08.08,forced_choiceRT_color,2021.2.3,MacIntel,62.5,,,,,,,,8,Ontime,short,k,0,2.018,0,1,1,0,1,,,,,
,1.4,,,,,,,,,f,blue,5ee29028fb6eba3d81ebf0f9,2021-09-27_23h08.08,forced_choiceRT_color,2021.2.3,MacIntel,62.5,,,,,,,,8,Fast,short,f,1,0.073,0,2,2,1,1,,,,,
,0.74,,,,,,,,,j,red,5ee29028fb6eba3d81ebf0f9,2021-09-27_23h08.08,forced_choiceRT_color,2021.2.3,MacIntel,62.5,,,,,,,,8,Ontime,short,j,1,1.976,0,3,3,2,1,,,,,
,1.58,,,,,,,,,k,purple,5ee29028fb6eba3d81ebf0f9,2021-09-27_23h08.08,forced_choiceRT_color,2021.2.3,MacIntel,62.5,,,,,,,,8,Ontime,short,k,1,2.057,1,0,4,3,1,,,,,
,0.76,,,,,,,,,k,purple,5ee29028fb6eba3d81ebf0f9,2021-09-27_23h08.08,forced_choiceRT_color,2021.2.3,MacIntel,62.5,,,,,,,,8,Ontime,short,k,1,1.91,1,1,5,3,1,,,,,
,0.97,,,,,,,,,d,orange,5ee29028fb6eba3d81ebf0f9,2021-09-27_23h08.08,forced_choiceRT_color,2021.2.3,MacIntel,62.5,,,,,,,,8,Ontime,short,d,1,1.951,1,2,6,0,1,,,,,
,1.44,,,,,,,,,j,red,5ee29028fb6eba3d81ebf0f9,2021-09-27_23h08.08,forced_choiceRT_color,2021.2.3,MacIntel,62.5,,,,,,,,8,Ontime,short,k,0,1.901,1,3,7,2,1,,,,,
,0.76,,,,,,,,,f,blue,5ee29028fb6eba3d81ebf0f9,2021-09-27_23h08.08,forced_choiceRT_color,2021.2.3,MacIntel,62.5,,,,,,,,8,Fast,short,j,0,0.085,2,0,8,1,1,,,,,
,0.37,,,,,,,,,d,orange,5ee29028fb6eba3d81ebf0f9,2021-09-27_23h08.08,forced_choiceRT_color,2021.2.3,MacIntel,62.5,,,,,,,,8,Ontime,short,d,1,2.01,2,1,9,0,1,,,,,
,0.94,,,,,,,,,d,orange,5ee29028fb6eba3d81ebf0f9,2021-09-27_23h08.08,forced_choiceRT_color,2021.2.3,MacIntel,62.5,,,,,,,,8,Ontime,short,d,1,2.051,2,2,10,0,1,,,,,
,0.24,,,,,,,,,f,blue,5ee29028fb6eba3d81ebf0f9,2021-09-27_23h08.08,forced_choiceRT_color,2021.2.3,MacIntel,62.5,,,,,,,,8,Ontime,short,f,1,1.994,2,3,11,1,1,,,,,
,1.28,,,,,,,,,j,red,5ee29028fb6eba3d81ebf0f9,2021-09-27_23h08.08,forced_choiceRT_color,2021.2.3,MacIntel,62.5,,,,,,,,8,Ontime,short,j,1,2.009,3,0,12,2,1,,,,,
,1.5,,,,,,,,,d,orange,5ee29028fb6eba3d81ebf0f9,2021-09-27_23h08.08,forced_choiceRT_color,2021.2.3,MacIntel,62.5,,,,,,,,8,Ontime,short,d,1,2.009,3,1,13,0,1,,,,,
,1.04,,,,,,,,,d,orange,5ee29028fb6eba3d81ebf0f9,2021-09-27_23h08.08,forced_choiceRT_color,2021.2.3,MacIntel,62.5,,,,,,,,8,Ontime,short,d,1,1.951,3,2,14,0,1,,,,,
,0.47,,,,,,,,,d,orange,5ee29028fb6eba3d81ebf0f9,2021-09-27_23h08.08,forced_choiceRT_color,2021.2.3,MacIntel,62.5,,,,,,,,8,Ontime,short,d,1,2.024,3,3,15,0,1,,,,,
,1.57,,,,,,,,,f,blue,5ee29028fb6eba3d81ebf0f9,2021-09-27_23h08.08,forced_choiceRT_color,2021.2.3,MacIntel,62.5,,,,,,,,8,Ontime,short,k,0,2,4,0,16,1,1,,,,,
,0.01,,,,,,,,,d,orange,5ee29028fb6eba3d81ebf0f9,2021-09-27_23h08.08,forced_choiceRT_color,2021.2.3,MacIntel,62.5,,,,,,,,8,Ontime,short,d,1,1.976,4,1,17,0,1,,,,,
,1.92,,,,,,,,,f,blue,5ee29028fb6eba3d81ebf0f9,2021-09-27_23h08.08,forced_choiceRT_color,2021.2.3,MacIntel,62.5,,,,,,,,8,Slow,short,f,1,2.534,4,2,18,1,1,,,,,
,0.83,,,,,,,,,j,red,5ee29028fb6eba3d81ebf0f9,2021-09-27_23h08.08,forced_choiceRT_color,2021.2.3,MacIntel,62.5,,,,,,,,8,Ontime,short,j,1,1.953,4,3,19,2,1,,,,,
,1.55,,,,,,,,,k,purple,5ee29028fb6eba3d81ebf0f9,2021-09-27_23h08.08,forced_choiceRT_color,2021.2.3,MacIntel,62.5,,,,,,,,8,Ontime,short,k,1,1.973,5,0,20,3,1,,,,,
,1.07,,,,,,,,,d,orange,5ee29028fb6eba3d81ebf0f9,2021-09-27_23h08.08,forced_choiceRT_color,2021.2.3,MacIntel,62.5,,,,,,,,8,Ontime,short,d,1,1.942,5,1,21,0,1,,,,,
,0.22,,,,,,,,,f,blue,5ee29028fb6eba3d81ebf0f9,2021-09-27_23h08.08,forced_choiceRT_color,2021.2.3,MacIntel,62.5,,,,,,,,8,Ontime,short,f,1,1.987,5,2,22,1,1,,,,,
,1.88,,,,,,,,,f,blue,5ee29028fb6eba3d81ebf0f9,2021-09-27_23h08.08,forced_choiceRT_color,2021.2.3,MacIntel,62.5,,,,,,,,8,Slow,short,f,1,2.535,5,3,23,1,1,,,,,
,0.6,,,,,,,,,f,blue,5ee29028fb6eba3d81ebf0f9,2021-09-27_23h08.08,forced_choiceRT_color,2021.2.3,MacIntel,62.5,,,,,,,,8,Ontime,short,f,1,2.018,6,0,24,1,1,,,,,
,0.28,,,,,,,,,k,purple,5ee29028fb6eba3d81ebf0f9,2021-09-27_23h08.08,forced_choiceRT_color,2021.2.3,MacIntel,62.5,,,,,,,,8,Slow,short,k,1,2.116,6,1,25,3,1,,,,,
,0.6,,,,,,,,,k,purple,5ee29028fb6eba3d81ebf0f9,2021-09-27_23h08.08,forced_choiceRT_color,2021.2.3,MacIntel,62.5,,,,,,,,8,Ontime,short,k,1,1.977,6,2,26,3,1,,,,,
,0.79,,,,,,,,,k,purple,5ee29028fb6eba3d81ebf0f9,2021-09-27_23h08.08,forced_choiceRT_color,2021.2.3,MacIntel,62.5,,,,,,,,8,Ontime,short,k,1,2.039,6,3,27,3,1,,,,,
,1.28,,,,,,,,,j,red,5ee29028fb6eba3d81ebf0f9,2021-09-27_23h08.08,forced_choiceRT_color,2021.2.3,MacIntel,62.5,,,,,,,,8,Ontime,short,f,0,1.962,7,0,28,2,1,,,,,
,1.35,,,,,,,,,j,red,5ee29028fb6eba3d81ebf0f9,2021-09-27_23h08.08,forced_choiceRT_color,2021.2.3,MacIntel,62.5,,,,,,,,8,Ontime,short,j,1,1.91,7,1,29,2,1,,,,,
,0.51,,,,,,,,,k,purple,5ee29028fb6eba3d81ebf0f9,2021-09-27_23h08.08,forced_choiceRT_color,2021.2.3,MacIntel,62.5,,,,,,,,8,Ontime,short,k,1,2.075,7,2,30,3,1,,,,,
,0.21,,,,,,,,,j,red,5ee29028fb6eba3d81ebf0f9,2021-09-27_23h08.08,forced_choiceRT_color,2021.2.3,MacIntel,62.5,,,,,,,,8,Ontime,short,j,1,1.986,7,3,31,2,1,,,,,
,1.41,,,,,,,,,j,red,5ee29028fb6eba3d81ebf0f9,2021-09-27_23h08.08,forced_choiceRT_color,2021.2.3,MacIntel,62.5,,,,,,,,8,Ontime,short,j,1,1.937,8,0,32,2,1,,,,,
,1.7,,,,,,,,,k,purple,5ee29028fb6eba3d81ebf0f9,2021-09-27_23h08.08,forced_choiceRT_color,2021.2.3,MacIntel,62.5,,,,,,,,8,Slow,short,k,1,2.161,8,1,33,3,1,,,,,
,1.96,,,,,,,,,d,orange,5ee29028fb6eba3d81ebf0f9,2021-09-27_23h08.08,forced_choiceRT_color,2021.2.3,MacIntel,62.5,,,,,,,,8,Slow,short,d,1,2.709,8,2,34,0,1,,,,,
,1.32,,,,,,,,,j,red,5ee29028fb6eba3d81ebf0f9,2021-09-27_23h08.08,forced_choiceRT_color,2021.2.3,MacIntel,62.5,,,,,,,,8,Fast,short,j,1,1.827,8,3,35,2,1,,,,,
,1.05,,,,,,,,,f,blue,5ee29028fb6eba3d81ebf0f9,2021-09-27_23h08.08,forced_choiceRT_color,2021.2.3,MacIntel,62.5,,,,,,,,8,Fast,short,f,1,1.892,9,0,36,1,1,,,,,
,0.28,,,,,,,,,k,purple,5ee29028fb6eba3d81ebf0f9,2021-09-27_23h08.08,forced_choiceRT_color,2021.2.3,MacIntel,62.5,,,,,,,,8,Ontime,short,k,1,2.051,9,1,37,3,1,,,,,
,0.43,,,,,,,,,j,red,5ee29028fb6eba3d81ebf0f9,2021-09-27_23h08.08,forced_choiceRT_color,2021.2.3,MacIntel,62.5,,,,,,,,8,Ontime,short,j,1,2.032,9,2,38,2,1,,,,,
,1.02,,,,,,,,,f,blue,5ee29028fb6eba3d81ebf0f9,2021-09-27_23h08.08,forced_choiceRT_color,2021.2.3,MacIntel,62.5,,,,,,,,8,Ontime,short,f,1,1.986,9,3,39,1,1,,,,,
,,,,,,,,,,,,5ee29028fb6eba3d81ebf0f9,2021-09-27_23h08.08,forced_choiceRT_color,2021.2.3,MacIntel,62.5,,,,,,,,,,,,,,,,,,,7,0,7,0,1
,1.39,,,,,,,,,j,red,5ee29028fb6eba3d81ebf0f9,2021-09-27_23h08.08,forced_choiceRT_color,2021.2.3,MacIntel,62.5,,,,,,,,9,Ontime,short,j,1,2.059,0,0,0,2,1,,,,,
,1.77,,,,,,,,,f,blue,5ee29028fb6eba3d81ebf0f9,2021-09-27_23h08.08,forced_choiceRT_color,2021.2.3,MacIntel,62.5,,,,,,,,9,Slow,short,k,0,2.12,0,1,1,1,1,,,,,
,0.05,,,,,,,,,f,blue,5ee29028fb6eba3d81ebf0f9,2021-09-27_23h08.08,forced_choiceRT_color,2021.2.3,MacIntel,62.5,,,,,,,,9,Ontime,short,f,1,1.983,0,2,2,1,1,,,,,
,1.98,,,,,,,,,j,red,5ee29028fb6eba3d81ebf0f9,2021-09-27_23h08.08,forced_choiceRT_color,2021.2.3,MacIntel,62.5,,,,,,,,9,Ontime,short,d,0,1.954,0,3,3,2,1,,,,,
,1.9,,,,,,,,,j,red,5ee29028fb6eba3d81ebf0f9,2021-09-27_23h08.08,forced_choiceRT_color,2021.2.3,MacIntel,62.5,,,,,,,,9,Ontime,short,d,0,2.075,1,0,4,2,1,,,,,
,0.57,,,,,,,,,f,blue,5ee29028fb6eba3d81ebf0f9,2021-09-27_23h08.08,forced_choiceRT_color,2021.2.3,MacIntel,62.5,,,,,,,,9,Ontime,short,f,1,1.984,1,1,5,1,1,,,,,
,0.43,,,,,,,,,k,purple,5ee29028fb6eba3d81ebf0f9,2021-09-27_23h08.08,forced_choiceRT_color,2021.2.3,MacIntel,62.5,,,,,,,,9,Ontime,short,k,1,2.026,1,2,6,3,1,,,,,
,1.99,,,,,,,,,k,purple,5ee29028fb6eba3d81ebf0f9,2021-09-27_23h08.08,forced_choiceRT_color,2021.2.3,MacIntel,62.5,,,,,,,,9,Slow,short,k,1,2.141,1,3,7,3,1,,,,,
,0.44,,,,,,,,,f,blue,5ee29028fb6eba3d81ebf0f9,2021-09-27_23h08.08,forced_choiceRT_color,2021.2.3,MacIntel,62.5,,,,,,,,9,Fast,short,f,1,1.893,2,0,8,1,1,,,,,
,1.16,,,,,,,,,k,purple,5ee29028fb6eba3d81ebf0f9,2021-09-27_23h08.08,forced_choiceRT_color,2021.2.3,MacIntel,62.5,,,,,,,,9,Ontime,short,k,1,1.951,2,1,9,3,1,,,,,
,0.23,,,,,,,,,j,red,5ee29028fb6eba3d81ebf0f9,2021-09-27_23h08.08,forced_choiceRT_color,2021.2.3,MacIntel,62.5,,,,,,,,9,Ontime,short,j,1,1.934,2,2,10,2,1,,,,,
,1.2,,,,,,,,,j,red,5ee29028fb6eba3d81ebf0f9,2021-09-27_23h08.08,forced_choiceRT_color,2021.2.3,MacIntel,62.5,,,,,,,,9,Ontime,short,j,1,1.968,2,3,11,2,1,,,,,
,0.85,,,,,,,,,d,orange,5ee29028fb6eba3d81ebf0f9,2021-09-27_23h08.08,forced_choiceRT_color,2021.2.3,MacIntel,62.5,,,,,,,,9,Ontime,short,d,1,1.934,3,0,12,0,1,,,,,
,1.88,,,,,,,,,k,purple,5ee29028fb6eba3d81ebf0f9,2021-09-27_23h08.08,forced_choiceRT_color,2021.2.3,MacIntel,62.5,,,,,,,,9,Slow,short,k,1,2.51,3,1,13,3,1,,,,,
,0,,,,,,,,,d,orange,5ee29028fb6eba3d81ebf0f9,2021-09-27_23h08.08,forced_choiceRT_color,2021.2.3,MacIntel,62.5,,,,,,,,9,Ontime,short,d,1,1.991,3,2,14,0,1,,,,,
,0.07,,,,,,,,,k,purple,5ee29028fb6eba3d81ebf0f9,2021-09-27_23h08.08,forced_choiceRT_color,2021.2.3,MacIntel,62.5,,,,,,,,9,Ontime,short,k,1,2.051,3,3,15,3,1,,,,,
,0.43,,,,,,,,,j,red,5ee29028fb6eba3d81ebf0f9,2021-09-27_23h08.08,forced_choiceRT_color,2021.2.3,MacIntel,62.5,,,,,,,,9,Ontime,short,j,1,2.02,4,0,16,2,1,,,,,
,0.18,,,,,,,,,d,orange,5ee29028fb6eba3d81ebf0f9,2021-09-27_23h08.08,forced_choiceRT_color,2021.2.3,MacIntel,62.5,,,,,,,,9,Ontime,short,d,1,2.007,4,1,17,0,1,,,,,
,1.3,,,,,,,,,d,orange,5ee29028fb6eba3d81ebf0f9,2021-09-27_23h08.08,forced_choiceRT_color,2021.2.3,MacIntel,62.5,,,,,,,,9,Ontime,short,d,1,1.975,4,2,18,0,1,,,,,
,0.92,,,,,,,,,k,purple,5ee29028fb6eba3d81ebf0f9,2021-09-27_23h08.08,forced_choiceRT_color,2021.2.3,MacIntel,62.5,,,,,,,,9,Ontime,short,k,1,1.992,4,3,19,3,1,,,,,
,0.65,,,,,,,,,k,purple,5ee29028fb6eba3d81ebf0f9,2021-09-27_23h08.08,forced_choiceRT_color,2021.2.3,MacIntel,62.5,,,,,,,,9,Ontime,short,k,1,1.951,5,0,20,3,1,,,,,
,0.75,,,,,,,,,f,blue,5ee29028fb6eba3d81ebf0f9,2021-09-27_23h08.08,forced_choiceRT_color,2021.2.3,MacIntel,62.5,,,,,,,,9,Ontime,short,j,0,2.042,5,1,21,1,1,,,,,
,1.16,,,,,,,,,d,orange,5ee29028fb6eba3d81ebf0f9,2021-09-27_23h08.08,forced_choiceRT_color,2021.2.3,MacIntel,62.5,,,,,,,,9,Ontime,short,k,0,1.95,5,2,22,0,1,,,,,
,0.67,,,,,,,,,k,purple,5ee29028fb6eba3d81ebf0f9,2021-09-27_23h08.08,forced_choiceRT_color,2021.2.3,MacIntel,62.5,,,,,,,,9,Ontime,short,k,1,2.011,5,3,23,3,1,,,,,
,0.7,,,,,,,,,d,orange,5ee29028fb6eba3d81ebf0f9,2021-09-27_23h08.08,forced_choiceRT_color,2021.2.3,MacIntel,62.5,,,,,,,,9,Ontime,short,d,1,2.008,6,0,24,0,1,,,,,
,0.9,,,,,,,,,k,purple,5ee29028fb6eba3d81ebf0f9,2021-09-27_23h08.08,forced_choiceRT_color,2021.2.3,MacIntel,62.5,,,,,,,,9,Ontime,short,k,1,2.011,6,1,25,3,1,,,,,
,0.87,,,,,,,,,f,blue,5ee29028fb6eba3d81ebf0f9,2021-09-27_23h08.08,forced_choiceRT_color,2021.2.3,MacIntel,62.5,,,,,,,,9,Ontime,short,j,0,2.033,6,2,26,1,1,,,,,
,1.37,,,,,,,,,k,purple,5ee29028fb6eba3d81ebf0f9,2021-09-27_23h08.08,forced_choiceRT_color,2021.2.3,MacIntel,62.5,,,,,,,,9,Fast,short,k,1,1.827,6,3,27,3,1,,,,,
,1.63,,,,,,,,,f,blue,5ee29028fb6eba3d81ebf0f9,2021-09-27_23h08.08,forced_choiceRT_color,2021.2.3,MacIntel,62.5,,,,,,,,9,Ontime,short,k,0,1.96,7,0,28,1,1,,,,,
,0.16,,,,,,,,,d,orange,5ee29028fb6eba3d81ebf0f9,2021-09-27_23h08.08,forced_choiceRT_color,2021.2.3,MacIntel,62.5,,,,,,,,9,Ontime,short,d,1,2.022,7,1,29,0,1,,,,,
,0.77,,,,,,,,,j,red,5ee29028fb6eba3d81ebf0f9,2021-09-27_23h08.08,forced_choiceRT_color,2021.2.3,MacIntel,62.5,,,,,,,,9,Ontime,short,f,0,1.911,7,2,30,2,1,,,,,
,0.9,,,,,,,,,f,blue,5ee29028fb6eba3d81ebf0f9,2021-09-27_23h08.08,forced_choiceRT_color,2021.2.3,MacIntel,62.5,,,,,,,,9,Ontime,short,j,0,2.018,7,3,31,1,1,,,,,
,1.81,,,,,,,,,d,orange,5ee29028fb6eba3d81ebf0f9,2021-09-27_23h08.08,forced_choiceRT_color,2021.2.3,MacIntel,62.5,,,,,,,,9,Slow,short,d,1,2.486,8,0,32,0,1,,,,,
,1.43,,,,,,,,,j,red,5ee29028fb6eba3d81ebf0f9,2021-09-27_23h08.08,forced_choiceRT_color,2021.2.3,MacIntel,62.5,,,,,,,,9,Ontime,short,j,1,1.99,8,1,33,2,1,,,,,
,0.3,,,,,,,,,f,blue,5ee29028fb6eba3d81ebf0f9,2021-09-27_23h08.08,forced_choiceRT_color,2021.2.3,MacIntel,62.5,,,,,,,,9,Ontime,short,f,1,2.077,8,2,34,1,1,,,,,
,0.34,,,,,,,,,j,red,5ee29028fb6eba3d81ebf0f9,2021-09-27_23h08.08,forced_choiceRT_color,2021.2.3,MacIntel,62.5,,,,,,,,9,Ontime,short,j,1,1.972,8,3,35,2,1,,,,,
,1.02,,,,,,,,,d,orange,5ee29028fb6eba3d81ebf0f9,2021-09-27_23h08.08,forced_choiceRT_color,2021.2.3,MacIntel,62.5,,,,,,,,9,Ontime,short,k,0,1.96,9,0,36,0,1,,,,,
,0.86,,,,,,,,,d,orange,5ee29028fb6eba3d81ebf0f9,2021-09-27_23h08.08,forced_choiceRT_color,2021.2.3,MacIntel,62.5,,,,,,,,9,Ontime,short,d,1,1.916,9,1,37,0,1,,,,,
,1.5,,,,,,,,,j,red,5ee29028fb6eba3d81ebf0f9,2021-09-27_23h08.08,forced_choiceRT_color,2021.2.3,MacIntel,62.5,,,,,,,,9,Fast,short,d,0,1.826,9,2,38,2,1,,,,,
,0.02,,,,,,,,,f,blue,5ee29028fb6eba3d81ebf0f9,2021-09-27_23h08.08,forced_choiceRT_color,2021.2.3,MacIntel,62.5,,,,,,,,9,Ontime,short,f,1,2.028,9,3,39,1,1,,,,,
,,,,,,,,,,,,5ee29028fb6eba3d81ebf0f9,2021-09-27_23h08.08,forced_choiceRT_color,2021.2.3,MacIntel,62.5,,,,,,,,,,,,,,,,,,,8,0,8,0,1
,0.54,,,,,,,,,k,purple,5ee29028fb6eba3d81ebf0f9,2021-09-27_23h08.08,forced_choiceRT_color,2021.2.3,MacIntel,62.5,,,,,,,,10,Ontime,short,k,1,2.049,0,0,0,3,1,,,,,
,0.56,,,,,,,,,j,red,5ee29028fb6eba3d81ebf0f9,2021-09-27_23h08.08,forced_choiceRT_color,2021.2.3,MacIntel,62.5,,,,,,,,10,Ontime,short,j,1,2.003,0,1,1,2,1,,,,,
,0.65,,,,,,,,,k,purple,5ee29028fb6eba3d81ebf0f9,2021-09-27_23h08.08,forced_choiceRT_color,2021.2.3,MacIntel,62.5,,,,,,,,10,Ontime,short,k,1,2.001,0,2,2,3,1,,,,,
,1.85,,,,,,,,,d,orange,5ee29028fb6eba3d81ebf0f9,2021-09-27_23h08.08,forced_choiceRT_color,2021.2.3,MacIntel,62.5,,,,,,,,10,Slow,short,d,1,2.341,0,3,3,0,1,,,,,
,0.14,,,,,,,,,f,blue,5ee29028fb6eba3d81ebf0f9,2021-09-27_23h08.08,forced_choiceRT_color,2021.2.3,MacIntel,62.5,,,,,,,,10,Ontime,short,f,1,1.943,1,0,4,1,1,,,,,
,0.33,,,,,,,,,j,red,5ee29028fb6eba3d81ebf0f9,2021-09-27_23h08.08,forced_choiceRT_color,2021.2.3,MacIntel,62.5,,,,,,,,10,Ontime,short,j,1,1.942,1,1,5,2,1,,,,,
,1.31,,,,,,,,,d,orange,5ee29028fb6eba3d81ebf0f9,2021-09-27_23h08.08,forced_choiceRT_color,2021.2.3,MacIntel,62.5,,,,,,,,10,Fast,short,k,0,1.893,1,2,6,0,1,,,,,
,0.99,,,,,,,,,d,orange,5ee29028fb6eba3d81ebf0f9,2021-09-27_23h08.08,forced_choiceRT_color,2021.2.3,MacIntel,62.5,,,,,,,,10,Ontime,short,d,1,1.952,1,3,7,0,1,,,,,
,1.66,,,,,,,,,d,orange,5ee29028fb6eba3d81ebf0f9,2021-09-27_23h08.08,forced_choiceRT_color,2021.2.3,MacIntel,62.5,,,,,,,,10,Slow,short,d,1,2.139,2,0,8,0,1,,,,,
,1.73,,,,,,,,,d,orange,5ee29028fb6eba3d81ebf0f9,2021-09-27_23h08.08,forced_choiceRT_color,2021.2.3,MacIntel,62.5,,,,,,,,10,Ontime,short,f,0,2.011,2,1,9,0,1,,,,,
,1.45,,,,,,,,,k,purple,5ee29028fb6eba3d81ebf0f9,2021-09-27_23h08.08,forced_choiceRT_color,2021.2.3,MacIntel,62.5,,,,,,,,10,Ontime,short,k,1,1.974,2,2,10,3,1,,,,,
,0.28,,,,,,,,,j,red,5ee29028fb6eba3d81ebf0f9,2021-09-27_23h08.08,forced_choiceRT_color,2021.2.3,MacIntel,62.5,,,,,,,,10,Ontime,short,f,0,1.902,2,3,11,2,1,,,,,
,0.63,,,,,,,,,f,blue,5ee29028fb6eba3d81ebf0f9,2021-09-27_23h08.08,forced_choiceRT_color,2021.2.3,MacIntel,62.5,,,,,,,,10,Ontime,short,j,0,1.976,3,0,12,1,1,,,,,
,0.43,,,,,,,,,j,red,5ee29028fb6eba3d81ebf0f9,2021-09-27_23h08.08,forced_choiceRT_color,2021.2.3,MacIntel,62.5,,,,,,,,10,Ontime,short,f,0,1.985,3,1,13,2,1,,,,,
,1.17,,,,,,,,,f,blue,5ee29028fb6eba3d81ebf0f9,2021-09-27_23h08.08,forced_choiceRT_color,2021.2.3,MacIntel,62.5,,,,,,,,10,Fast,short,f,1,1.792,3,2,14,1,1,,,,,
,0.44,,,,,,,,,d,orange,5ee29028fb6eba3d81ebf0f9,2021-09-27_23h08.08,forced_choiceRT_color,2021.2.3,MacIntel,62.5,,,,,,,,10,Ontime,short,d,1,1.942,3,3,15,0,1,,,,,
,0.22,,,,,,,,,k,purple,5ee29028fb6eba3d81ebf0f9,2021-09-27_23h08.08,forced_choiceRT_color,2021.2.3,MacIntel,62.5,,,,,,,,10,Ontime,short,k,1,2.018,4,0,16,3,1,,,,,
,0.69,,,,,,,,,k,purple,5ee29028fb6eba3d81ebf0f9,2021-09-27_23h08.08,forced_choiceRT_color,2021.2.3,MacIntel,62.5,,,,,,,,10,Ontime,short,k,1,2.02,4,1,17,3,1,,,,,
,1.5,,,,,,,,,j,red,5ee29028fb6eba3d81ebf0f9,2021-09-27_23h08.08,forced_choiceRT_color,2021.2.3,MacIntel,62.5,,,,,,,,10,Ontime,short,j,1,1.959,4,2,18,2,1,,,,,
,0.18,,,,,,,,,f,blue,5ee29028fb6eba3d81ebf0f9,2021-09-27_23h08.08,forced_choiceRT_color,2021.2.3,MacIntel,62.5,,,,,,,,10,Ontime,short,f,1,2.077,4,3,19,1,1,,,,,
,0.62,,,,,,,,,k,purple,5ee29028fb6eba3d81ebf0f9,2021-09-27_23h08.08,forced_choiceRT_color,2021.2.3,MacIntel,62.5,,,,,,,,10,Ontime,short,k,1,1.957,5,0,20,3,1,,,,,
,0.42,,,,,,,,,j,red,5ee29028fb6eba3d81ebf0f9,2021-09-27_23h08.08,forced_choiceRT_color,2021.2.3,MacIntel,62.5,,,,,,,,10,Ontime,short,j,1,1.935,5,1,21,2,1,,,,,
,0.24,,,,,,,,,k,purple,5ee29028fb6eba3d81ebf0f9,2021-09-27_23h08.08,forced_choiceRT_color,2021.2.3,MacIntel,62.5,,,,,,,,10,Ontime,short,k,1,1.958,5,2,22,3,1,,,,,
,0.02,,,,,,,,,k,purple,5ee29028fb6eba3d81ebf0f9,2021-09-27_23h08.08,forced_choiceRT_color,2021.2.3,MacIntel,62.5,,,,,,,,10,Ontime,short,k,1,2.041,5,3,23,3,1,,,,,
,0.16,,,,,,,,,f,blue,5ee29028fb6eba3d81ebf0f9,2021-09-27_23h08.08,forced_choiceRT_color,2021.2.3,MacIntel,62.5,,,,,,,,10,Ontime,short,j,0,1.994,6,0,24,1,1,,,,,
,1.98,,,,,,,,,d,orange,5ee29028fb6eba3d81ebf0f9,2021-09-27_23h08.08,forced_choiceRT_color,2021.2.3,MacIntel,62.5,,,,,,,,10,Slow,short,d,1,2.502,6,1,25,0,1,,,,,
,1.2,,,,,,,,,k,purple,5ee29028fb6eba3d81ebf0f9,2021-09-27_23h08.08,forced_choiceRT_color,2021.2.3,MacIntel,62.5,,,,,,,,10,Ontime,short,k,1,1.993,6,2,26,3,1,,,,,
,0.88,,,,,,,,,f,blue,5ee29028fb6eba3d81ebf0f9,2021-09-27_23h08.08,forced_choiceRT_color,2021.2.3,MacIntel,62.5,,,,,,,,10,Ontime,short,f,1,2.024,6,3,27,1,1,,,,,
,0.99,,,,,,,,,f,blue,5ee29028fb6eba3d81ebf0f9,2021-09-27_23h08.08,forced_choiceRT_color,2021.2.3,MacIntel,62.5,,,,,,,,10,Ontime,short,f,1,1.944,7,0,28,1,1,,,,,
,1.12,,,,,,,,,j,red,5ee29028fb6eba3d81ebf0f9,2021-09-27_23h08.08,forced_choiceRT_color,2021.2.3,MacIntel,62.5,,,,,,,,10,Ontime,short,j,1,1.943,7,1,29,2,1,,,,,
,1.91,,,,,,,,,j,red,5ee29028fb6eba3d81ebf0f9,2021-09-27_23h08.08,forced_choiceRT_color,2021.2.3,MacIntel,62.5,,,,,,,,10,Slow,short,j,1,2.461,7,2,30,2,1,,,,,
,0.93,,,,,,,,,k,purple,5ee29028fb6eba3d81ebf0f9,2021-09-27_23h08.08,forced_choiceRT_color,2021.2.3,MacIntel,62.5,,,,,,,,10,Ontime,short,k,1,1.968,7,3,31,3,1,,,,,
,0.41,,,,,,,,,j,red,5ee29028fb6eba3d81ebf0f9,2021-09-27_23h08.08,forced_choiceRT_color,2021.2.3,MacIntel,62.5,,,,,,,,10,Ontime,short,j,1,1.943,8,0,32,2,1,,,,,
,0.91,,,,,,,,,f,blue,5ee29028fb6eba3d81ebf0f9,2021-09-27_23h08.08,forced_choiceRT_color,2021.2.3,MacIntel,62.5,,,,,,,,10,Ontime,short,f,1,1.959,8,1,33,1,1,,,,,
,0.8,,,,,,,,,f,blue,5ee29028fb6eba3d81ebf0f9,2021-09-27_23h08.08,forced_choiceRT_color,2021.2.3,MacIntel,62.5,,,,,,,,10,Ontime,short,f,1,2.001,8,2,34,1,1,,,,,
,1.12,,,,,,,,,d,orange,5ee29028fb6eba3d81ebf0f9,2021-09-27_23h08.08,forced_choiceRT_color,2021.2.3,MacIntel,62.5,,,,,,,,10,Ontime,short,d,1,1.951,8,3,35,0,1,,,,,
,0.31,,,,,,,,,f,blue,5ee29028fb6eba3d81ebf0f9,2021-09-27_23h08.08,forced_choiceRT_color,2021.2.3,MacIntel,62.5,,,,,,,,10,Ontime,short,f,1,2.009,9,0,36,1,1,,,,,
,0.3,,,,,,,,,d,orange,5ee29028fb6eba3d81ebf0f9,2021-09-27_23h08.08,forced_choiceRT_color,2021.2.3,MacIntel,62.5,,,,,,,,10,Ontime,short,d,1,1.991,9,1,37,0,1,,,,,
,0.61,,,,,,,,,d,orange,5ee29028fb6eba3d81ebf0f9,2021-09-27_23h08.08,forced_choiceRT_color,2021.2.3,MacIntel,62.5,,,,,,,,10,Slow,short,d,1,2.119,9,2,38,0,1,,,,,
,0.05,,,,,,,,,j,red,5ee29028fb6eba3d81ebf0f9,2021-09-27_23h08.08,forced_choiceRT_color,2021.2.3,MacIntel,62.5,,,,,,,,10,Ontime,short,j,1,2.009,9,3,39,2,1,,,,,
,,,,,,,,,,,,5ee29028fb6eba3d81ebf0f9,2021-09-27_23h08.08,forced_choiceRT_color,2021.2.3,MacIntel,62.5,,,,,,,,,,,,,,,,,,,9,0,9,0,1
