IP_Addresss,target_onset,trial_resp_sp.keys,trial_resp_sp.corr,trial_resp_sp.rt,trials_train_loop.thisRepN,trials_train_loop.thisTrialN,trials_train_loop.thisN,trials_train_loop.thisIndex,trials_train_loop.ran,correct_key,color,participant,date,expName,psychopyVersion,OS,frameRate,trial_resp_timing.keys,trial_resp_timing.rt,trials_train_timing.thisRepN,trials_train_timing.thisTrialN,trials_train_timing.thisN,trials_train_timing.thisIndex,trials_train_timing.ran,block_id,ontime,feedback_cond,forcedRT_resp.keys,forcedRT_resp.corr,forcedRT_resp.rt,trials.thisRepN,trials.thisTrialN,trials.thisN,trials.thisIndex,trials.ran,blocks.thisRepN,blocks.thisTrialN,blocks.thisN,blocks.thisIndex,blocks.ran
169.232.83.193,0,d,1,1.2272,0,0,0,0,1,d,orange,5ee2c239f4ec4b804a79cf80,2021-09-27_14h08.05.439,forced_choiceRT_color,2021.2.3,MacIntel,59.97361161,,,,,,,,,,,,,,,,,,,,,,,
,0,f,1,1.7176,0,1,1,1,1,f,blue,5ee2c239f4ec4b804a79cf80,2021-09-27_14h08.05.439,forced_choiceRT_color,2021.2.3,MacIntel,59.97361161,,,,,,,,,,,,,,,,,,,,,,,
,0,j,1,1.4695,0,2,2,2,1,j,red,5ee2c239f4ec4b804a79cf80,2021-09-27_14h08.05.439,forced_choiceRT_color,2021.2.3,MacIntel,59.97361161,,,,,,,,,,,,,,,,,,,,,,,
,0,f,1,0.7515,0,3,3,1,1,f,blue,5ee2c239f4ec4b804a79cf80,2021-09-27_14h08.05.439,forced_choiceRT_color,2021.2.3,MacIntel,59.97361161,,,,,,,,,,,,,,,,,,,,,,,
,0,k,1,0.6016,1,0,4,3,1,k,purple,5ee2c239f4ec4b804a79cf80,2021-09-27_14h08.05.439,forced_choiceRT_color,2021.2.3,MacIntel,59.97361161,,,,,,,,,,,,,,,,,,,,,,,
,0,f,1,0.6004,1,1,5,1,1,f,blue,5ee2c239f4ec4b804a79cf80,2021-09-27_14h08.05.439,forced_choiceRT_color,2021.2.3,MacIntel,59.97361161,,,,,,,,,,,,,,,,,,,,,,,
,0,k,0,0.8306,1,2,6,2,1,j,red,5ee2c239f4ec4b804a79cf80,2021-09-27_14h08.05.439,forced_choiceRT_color,2021.2.3,MacIntel,59.97361161,,,,,,,,,,,,,,,,,,,,,,,
,0,k,1,0.6672,1,3,7,3,1,k,purple,5ee2c239f4ec4b804a79cf80,2021-09-27_14h08.05.439,forced_choiceRT_color,2021.2.3,MacIntel,59.97361161,,,,,,,,,,,,,,,,,,,,,,,
,0,k,1,0.5004,2,0,8,3,1,k,purple,5ee2c239f4ec4b804a79cf80,2021-09-27_14h08.05.439,forced_choiceRT_color,2021.2.3,MacIntel,59.97361161,,,,,,,,,,,,,,,,,,,,,,,
,0,k,1,0.5681,2,1,9,3,1,k,purple,5ee2c239f4ec4b804a79cf80,2021-09-27_14h08.05.439,forced_choiceRT_color,2021.2.3,MacIntel,59.97361161,,,,,,,,,,,,,,,,,,,,,,,
,0,d,1,0.6004,2,2,10,0,1,d,orange,5ee2c239f4ec4b804a79cf80,2021-09-27_14h08.05.439,forced_choiceRT_color,2021.2.3,MacIntel,59.97361161,,,,,,,,,,,,,,,,,,,,,,,
,0,j,1,0.7694,2,3,11,2,1,j,red,5ee2c239f4ec4b804a79cf80,2021-09-27_14h08.05.439,forced_choiceRT_color,2021.2.3,MacIntel,59.97361161,,,,,,,,,,,,,,,,,,,,,,,
,0,k,1,0.5508,3,0,12,3,1,k,purple,5ee2c239f4ec4b804a79cf80,2021-09-27_14h08.05.439,forced_choiceRT_color,2021.2.3,MacIntel,59.97361161,,,,,,,,,,,,,,,,,,,,,,,
,0,j,1,0.7342,3,1,13,2,1,j,red,5ee2c239f4ec4b804a79cf80,2021-09-27_14h08.05.439,forced_choiceRT_color,2021.2.3,MacIntel,59.97361161,,,,,,,,,,,,,,,,,,,,,,,
,0,d,1,0.8525,3,2,14,0,1,d,orange,5ee2c239f4ec4b804a79cf80,2021-09-27_14h08.05.439,forced_choiceRT_color,2021.2.3,MacIntel,59.97361161,,,,,,,,,,,,,,,,,,,,,,,
,0,d,1,0.7177,3,3,15,0,1,d,orange,5ee2c239f4ec4b804a79cf80,2021-09-27_14h08.05.439,forced_choiceRT_color,2021.2.3,MacIntel,59.97361161,,,,,,,,,,,,,,,,,,,,,,,
,0,j,1,0.6366,4,0,16,2,1,j,red,5ee2c239f4ec4b804a79cf80,2021-09-27_14h08.05.439,forced_choiceRT_color,2021.2.3,MacIntel,59.97361161,,,,,,,,,,,,,,,,,,,,,,,
,0,d,1,0.7197,4,1,17,0,1,d,orange,5ee2c239f4ec4b804a79cf80,2021-09-27_14h08.05.439,forced_choiceRT_color,2021.2.3,MacIntel,59.97361161,,,,,,,,,,,,,,,,,,,,,,,
,0,j,1,0.6994,4,2,18,2,1,j,red,5ee2c239f4ec4b804a79cf80,2021-09-27_14h08.05.439,forced_choiceRT_color,2021.2.3,MacIntel,59.97361161,,,,,,,,,,,,,,,,,,,,,,,
,0,d,1,0.7669,4,3,19,0,1,d,orange,5ee2c239f4ec4b804a79cf80,2021-09-27_14h08.05.439,forced_choiceRT_color,2021.2.3,MacIntel,59.97361161,,,,,,,,,,,,,,,,,,,,,,,
,0,d,1,0.9177,5,0,20,0,1,d,orange,5ee2c239f4ec4b804a79cf80,2021-09-27_14h08.05.439,forced_choiceRT_color,2021.2.3,MacIntel,59.97361161,,,,,,,,,,,,,,,,,,,,,,,
,0,f,1,0.7706,5,1,21,1,1,f,blue,5ee2c239f4ec4b804a79cf80,2021-09-27_14h08.05.439,forced_choiceRT_color,2021.2.3,MacIntel,59.97361161,,,,,,,,,,,,,,,,,,,,,,,
,0,j,1,0.835,5,2,22,2,1,j,red,5ee2c239f4ec4b804a79cf80,2021-09-27_14h08.05.439,forced_choiceRT_color,2021.2.3,MacIntel,59.97361161,,,,,,,,,,,,,,,,,,,,,,,
,0,d,1,0.6861,5,3,23,0,1,d,orange,5ee2c239f4ec4b804a79cf80,2021-09-27_14h08.05.439,forced_choiceRT_color,2021.2.3,MacIntel,59.97361161,,,,,,,,,,,,,,,,,,,,,,,
,0,f,1,0.6215,6,0,24,1,1,f,blue,5ee2c239f4ec4b804a79cf80,2021-09-27_14h08.05.439,forced_choiceRT_color,2021.2.3,MacIntel,59.97361161,,,,,,,,,,,,,,,,,,,,,,,
,0,f,1,0.551,6,1,25,1,1,f,blue,5ee2c239f4ec4b804a79cf80,2021-09-27_14h08.05.439,forced_choiceRT_color,2021.2.3,MacIntel,59.97361161,,,,,,,,,,,,,,,,,,,,,,,
,0,f,1,0.5348,6,2,26,1,1,f,blue,5ee2c239f4ec4b804a79cf80,2021-09-27_14h08.05.439,forced_choiceRT_color,2021.2.3,MacIntel,59.97361161,,,,,,,,,,,,,,,,,,,,,,,
,0,k,1,0.7381,6,3,27,3,1,k,purple,5ee2c239f4ec4b804a79cf80,2021-09-27_14h08.05.439,forced_choiceRT_color,2021.2.3,MacIntel,59.97361161,,,,,,,,,,,,,,,,,,,,,,,
,0,k,1,0.5029,7,0,28,3,1,k,purple,5ee2c239f4ec4b804a79cf80,2021-09-27_14h08.05.439,forced_choiceRT_color,2021.2.3,MacIntel,59.97361161,,,,,,,,,,,,,,,,,,,,,,,
,0,k,1,0.4692,7,1,29,3,1,k,purple,5ee2c239f4ec4b804a79cf80,2021-09-27_14h08.05.439,forced_choiceRT_color,2021.2.3,MacIntel,59.97361161,,,,,,,,,,,,,,,,,,,,,,,
,0,k,1,0.4523,7,2,30,3,1,k,purple,5ee2c239f4ec4b804a79cf80,2021-09-27_14h08.05.439,forced_choiceRT_color,2021.2.3,MacIntel,59.97361161,,,,,,,,,,,,,,,,,,,,,,,
,0,d,1,0.7023,7,3,31,0,1,d,orange,5ee2c239f4ec4b804a79cf80,2021-09-27_14h08.05.439,forced_choiceRT_color,2021.2.3,MacIntel,59.97361161,,,,,,,,,,,,,,,,,,,,,,,
,0,j,1,0.8542,8,0,32,2,1,j,red,5ee2c239f4ec4b804a79cf80,2021-09-27_14h08.05.439,forced_choiceRT_color,2021.2.3,MacIntel,59.97361161,,,,,,,,,,,,,,,,,,,,,,,
,0,f,1,1.0001,8,1,33,1,1,f,blue,5ee2c239f4ec4b804a79cf80,2021-09-27_14h08.05.439,forced_choiceRT_color,2021.2.3,MacIntel,59.97361161,,,,,,,,,,,,,,,,,,,,,,,
,0,d,1,0.6666,8,2,34,0,1,d,orange,5ee2c239f4ec4b804a79cf80,2021-09-27_14h08.05.439,forced_choiceRT_color,2021.2.3,MacIntel,59.97361161,,,,,,,,,,,,,,,,,,,,,,,
,0,f,1,0.6342,8,3,35,1,1,f,blue,5ee2c239f4ec4b804a79cf80,2021-09-27_14h08.05.439,forced_choiceRT_color,2021.2.3,MacIntel,59.97361161,,,,,,,,,,,,,,,,,,,,,,,
,0,k,1,0.7011,9,0,36,3,1,k,purple,5ee2c239f4ec4b804a79cf80,2021-09-27_14h08.05.439,forced_choiceRT_color,2021.2.3,MacIntel,59.97361161,,,,,,,,,,,,,,,,,,,,,,,
,0,d,1,0.7672,9,1,37,0,1,d,orange,5ee2c239f4ec4b804a79cf80,2021-09-27_14h08.05.439,forced_choiceRT_color,2021.2.3,MacIntel,59.97361161,,,,,,,,,,,,,,,,,,,,,,,
,0,f,1,0.8555,9,2,38,1,1,f,blue,5ee2c239f4ec4b804a79cf80,2021-09-27_14h08.05.439,forced_choiceRT_color,2021.2.3,MacIntel,59.97361161,,,,,,,,,,,,,,,,,,,,,,,
,0,f,1,0.6341,9,3,39,1,1,f,blue,5ee2c239f4ec4b804a79cf80,2021-09-27_14h08.05.439,forced_choiceRT_color,2021.2.3,MacIntel,59.97361161,,,,,,,,,,,,,,,,,,,,,,,
,0,k,1,0.5339,10,0,40,3,1,k,purple,5ee2c239f4ec4b804a79cf80,2021-09-27_14h08.05.439,forced_choiceRT_color,2021.2.3,MacIntel,59.97361161,,,,,,,,,,,,,,,,,,,,,,,
,0,d,1,0.6032,10,1,41,0,1,d,orange,5ee2c239f4ec4b804a79cf80,2021-09-27_14h08.05.439,forced_choiceRT_color,2021.2.3,MacIntel,59.97361161,,,,,,,,,,,,,,,,,,,,,,,
,0,k,1,0.6508,10,2,42,3,1,k,purple,5ee2c239f4ec4b804a79cf80,2021-09-27_14h08.05.439,forced_choiceRT_color,2021.2.3,MacIntel,59.97361161,,,,,,,,,,,,,,,,,,,,,,,
,0,f,1,0.6832,10,3,43,1,1,f,blue,5ee2c239f4ec4b804a79cf80,2021-09-27_14h08.05.439,forced_choiceRT_color,2021.2.3,MacIntel,59.97361161,,,,,,,,,,,,,,,,,,,,,,,
,0,d,1,0.6181,11,0,44,0,1,d,orange,5ee2c239f4ec4b804a79cf80,2021-09-27_14h08.05.439,forced_choiceRT_color,2021.2.3,MacIntel,59.97361161,,,,,,,,,,,,,,,,,,,,,,,
,0,j,1,0.688,11,1,45,2,1,j,red,5ee2c239f4ec4b804a79cf80,2021-09-27_14h08.05.439,forced_choiceRT_color,2021.2.3,MacIntel,59.97361161,,,,,,,,,,,,,,,,,,,,,,,
,0,j,1,0.5724,11,2,46,2,1,j,red,5ee2c239f4ec4b804a79cf80,2021-09-27_14h08.05.439,forced_choiceRT_color,2021.2.3,MacIntel,59.97361161,,,,,,,,,,,,,,,,,,,,,,,
,0,j,1,0.6175,11,3,47,2,1,j,red,5ee2c239f4ec4b804a79cf80,2021-09-27_14h08.05.439,forced_choiceRT_color,2021.2.3,MacIntel,59.97361161,,,,,,,,,,,,,,,,,,,,,,,
,0,d,1,0.5671,12,0,48,0,1,d,orange,5ee2c239f4ec4b804a79cf80,2021-09-27_14h08.05.439,forced_choiceRT_color,2021.2.3,MacIntel,59.97361161,,,,,,,,,,,,,,,,,,,,,,,
,0,f,1,0.6171,12,1,49,1,1,f,blue,5ee2c239f4ec4b804a79cf80,2021-09-27_14h08.05.439,forced_choiceRT_color,2021.2.3,MacIntel,59.97361161,,,,,,,,,,,,,,,,,,,,,,,
,0,k,1,0.4997,12,2,50,3,1,k,purple,5ee2c239f4ec4b804a79cf80,2021-09-27_14h08.05.439,forced_choiceRT_color,2021.2.3,MacIntel,59.97361161,,,,,,,,,,,,,,,,,,,,,,,
,0,j,1,0.5707,12,3,51,2,1,j,red,5ee2c239f4ec4b804a79cf80,2021-09-27_14h08.05.439,forced_choiceRT_color,2021.2.3,MacIntel,59.97361161,,,,,,,,,,,,,,,,,,,,,,,
,0,k,1,0.4681,13,0,52,3,1,k,purple,5ee2c239f4ec4b804a79cf80,2021-09-27_14h08.05.439,forced_choiceRT_color,2021.2.3,MacIntel,59.97361161,,,,,,,,,,,,,,,,,,,,,,,
,0,k,1,0.5219,13,1,53,3,1,k,purple,5ee2c239f4ec4b804a79cf80,2021-09-27_14h08.05.439,forced_choiceRT_color,2021.2.3,MacIntel,59.97361161,,,,,,,,,,,,,,,,,,,,,,,
,0,f,1,0.6022,13,2,54,1,1,f,blue,5ee2c239f4ec4b804a79cf80,2021-09-27_14h08.05.439,forced_choiceRT_color,2021.2.3,MacIntel,59.97361161,,,,,,,,,,,,,,,,,,,,,,,
,0,d,1,0.5344,13,3,55,0,1,d,orange,5ee2c239f4ec4b804a79cf80,2021-09-27_14h08.05.439,forced_choiceRT_color,2021.2.3,MacIntel,59.97361161,,,,,,,,,,,,,,,,,,,,,,,
,0,j,1,0.6498,14,0,56,2,1,j,red,5ee2c239f4ec4b804a79cf80,2021-09-27_14h08.05.439,forced_choiceRT_color,2021.2.3,MacIntel,59.97361161,,,,,,,,,,,,,,,,,,,,,,,
,0,j,1,0.5518,14,1,57,2,1,j,red,5ee2c239f4ec4b804a79cf80,2021-09-27_14h08.05.439,forced_choiceRT_color,2021.2.3,MacIntel,59.97361161,,,,,,,,,,,,,,,,,,,,,,,
,0,d,0,0.617,14,2,58,1,1,f,blue,5ee2c239f4ec4b804a79cf80,2021-09-27_14h08.05.439,forced_choiceRT_color,2021.2.3,MacIntel,59.97361161,,,,,,,,,,,,,,,,,,,,,,,
,0,j,1,0.818,14,3,59,2,1,j,red,5ee2c239f4ec4b804a79cf80,2021-09-27_14h08.05.439,forced_choiceRT_color,2021.2.3,MacIntel,59.97361161,,,,,,,,,,,,,,,,,,,,,,,
,,,,,,,,,,,,5ee2c239f4ec4b804a79cf80,2021-09-27_14h08.05.439,forced_choiceRT_color,2021.2.3,MacIntel,59.97361161,j,2.2571,0,0,0,0,1,,,,,,,,,,,,,,,,
,,,,,,,,,,,,5ee2c239f4ec4b804a79cf80,2021-09-27_14h08.05.439,forced_choiceRT_color,2021.2.3,MacIntel,59.97361161,j,1.6914,1,0,1,0,1,,,,,,,,,,,,,,,,
,,,,,,,,,,,,5ee2c239f4ec4b804a79cf80,2021-09-27_14h08.05.439,forced_choiceRT_color,2021.2.3,MacIntel,59.97361161,j,1.75,2,0,2,0,1,,,,,,,,,,,,,,,,
,,,,,,,,,,,,5ee2c239f4ec4b804a79cf80,2021-09-27_14h08.05.439,forced_choiceRT_color,2021.2.3,MacIntel,59.97361161,j,2.0682,3,0,3,0,1,,,,,,,,,,,,,,,,
,,,,,,,,,,,,5ee2c239f4ec4b804a79cf80,2021-09-27_14h08.05.439,forced_choiceRT_color,2021.2.3,MacIntel,59.97361161,j,2.0684,4,0,4,0,1,,,,,,,,,,,,,,,,
,,,,,,,,,,,,5ee2c239f4ec4b804a79cf80,2021-09-27_14h08.05.439,forced_choiceRT_color,2021.2.3,MacIntel,59.97361161,d,2.0999,5,0,5,0,1,,,,,,,,,,,,,,,,
,,,,,,,,,,,,5ee2c239f4ec4b804a79cf80,2021-09-27_14h08.05.439,forced_choiceRT_color,2021.2.3,MacIntel,59.97361161,f,2.0856,6,0,6,0,1,,,,,,,,,,,,,,,,
,,,,,,,,,,,,5ee2c239f4ec4b804a79cf80,2021-09-27_14h08.05.439,forced_choiceRT_color,2021.2.3,MacIntel,59.97361161,k,2.2361,7,0,7,0,1,,,,,,,,,,,,,,,,
,,,,,,,,,,,,5ee2c239f4ec4b804a79cf80,2021-09-27_14h08.05.439,forced_choiceRT_color,2021.2.3,MacIntel,59.97361161,k,2.0633,8,0,8,0,1,,,,,,,,,,,,,,,,
,,,,,,,,,,,,5ee2c239f4ec4b804a79cf80,2021-09-27_14h08.05.439,forced_choiceRT_color,2021.2.3,MacIntel,59.97361161,k,1.9342,9,0,9,0,1,,,,,,,,,,,,,,,,
,,,,,,,,,,,,5ee2c239f4ec4b804a79cf80,2021-09-27_14h08.05.439,forced_choiceRT_color,2021.2.3,MacIntel,59.97361161,k,2.1516,10,0,10,0,1,,,,,,,,,,,,,,,,
,,,,,,,,,,,,5ee2c239f4ec4b804a79cf80,2021-09-27_14h08.05.439,forced_choiceRT_color,2021.2.3,MacIntel,59.97361161,k,2.0809,11,0,11,0,1,,,,,,,,,,,,,,,,
,,,,,,,,,,,,5ee2c239f4ec4b804a79cf80,2021-09-27_14h08.05.439,forced_choiceRT_color,2021.2.3,MacIntel,59.97361161,k,2.0862,12,0,12,0,1,,,,,,,,,,,,,,,,
,,,,,,,,,,,,5ee2c239f4ec4b804a79cf80,2021-09-27_14h08.05.439,forced_choiceRT_color,2021.2.3,MacIntel,59.97361161,k,2.0184,13,0,13,0,1,,,,,,,,,,,,,,,,
,,,,,,,,,,,,5ee2c239f4ec4b804a79cf80,2021-09-27_14h08.05.439,forced_choiceRT_color,2021.2.3,MacIntel,59.97361161,k,2.2016,14,0,14,0,1,,,,,,,,,,,,,,,,
,,,,,,,,,,,,5ee2c239f4ec4b804a79cf80,2021-09-27_14h08.05.439,forced_choiceRT_color,2021.2.3,MacIntel,59.97361161,k,2.1121,15,0,15,0,1,,,,,,,,,,,,,,,,
,,,,,,,,,,,,5ee2c239f4ec4b804a79cf80,2021-09-27_14h08.05.439,forced_choiceRT_color,2021.2.3,MacIntel,59.97361161,d,0.4499,16,0,16,0,1,,,,,,,,,,,,,,,,
,,,,,,,,,,,,5ee2c239f4ec4b804a79cf80,2021-09-27_14h08.05.439,forced_choiceRT_color,2021.2.3,MacIntel,59.97361161,k,2.2033,17,0,17,0,1,,,,,,,,,,,,,,,,
,,,,,,,,,,,,5ee2c239f4ec4b804a79cf80,2021-09-27_14h08.05.439,forced_choiceRT_color,2021.2.3,MacIntel,59.97361161,k,1.8349,18,0,18,0,1,,,,,,,,,,,,,,,,
,,,,,,,,,,,,5ee2c239f4ec4b804a79cf80,2021-09-27_14h08.05.439,forced_choiceRT_color,2021.2.3,MacIntel,59.97361161,k,1.785,19,0,19,0,1,,,,,,,,,,,,,,,,
,0.16,,,,,,,,,k,purple,5ee2c239f4ec4b804a79cf80,2021-09-27_14h08.05.439,forced_choiceRT_color,2021.2.3,MacIntel,59.97361161,,,,,,,,1,Fast,long,k,1,1.3128,0,0,0,3,1,,,,,
,0.13,,,,,,,,,d,orange,5ee2c239f4ec4b804a79cf80,2021-09-27_14h08.05.439,forced_choiceRT_color,2021.2.3,MacIntel,59.97361161,,,,,,,,1,Fast,long,d,1,1.7511,0,1,1,0,1,,,,,
,1.78,,,,,,,,,f,blue,5ee2c239f4ec4b804a79cf80,2021-09-27_14h08.05.439,forced_choiceRT_color,2021.2.3,MacIntel,59.97361161,,,,,,,,1,Ontime,long,d,0,1.9556,0,2,2,1,1,,,,,
,0.48,,,,,,,,,f,blue,5ee2c239f4ec4b804a79cf80,2021-09-27_14h08.05.439,forced_choiceRT_color,2021.2.3,MacIntel,59.97361161,,,,,,,,1,Slow,long,f,1,2.1743,0,3,3,1,1,,,,,
,0.93,,,,,,,,,f,blue,5ee2c239f4ec4b804a79cf80,2021-09-27_14h08.05.439,forced_choiceRT_color,2021.2.3,MacIntel,59.97361161,,,,,,,,1,Ontime,long,f,1,2.078,1,0,4,1,1,,,,,
,1.64,,,,,,,,,f,blue,5ee2c239f4ec4b804a79cf80,2021-09-27_14h08.05.439,forced_choiceRT_color,2021.2.3,MacIntel,59.97361161,,,,,,,,1,Slow,long,f,1,2.1059,1,1,5,1,1,,,,,
,0.82,,,,,,,,,d,orange,5ee2c239f4ec4b804a79cf80,2021-09-27_14h08.05.439,forced_choiceRT_color,2021.2.3,MacIntel,59.97361161,,,,,,,,1,Ontime,long,d,1,2.0637,1,2,6,0,1,,,,,
,0.06,,,,,,,,,j,red,5ee2c239f4ec4b804a79cf80,2021-09-27_14h08.05.439,forced_choiceRT_color,2021.2.3,MacIntel,59.97361161,,,,,,,,1,Ontime,long,j,1,2.0256,1,3,7,2,1,,,,,
,0.6,,,,,,,,,j,red,5ee2c239f4ec4b804a79cf80,2021-09-27_14h08.05.439,forced_choiceRT_color,2021.2.3,MacIntel,59.97361161,,,,,,,,1,Ontime,long,j,1,2.0131,2,0,8,2,1,,,,,
,1.33,,,,,,,,,k,purple,5ee2c239f4ec4b804a79cf80,2021-09-27_14h08.05.439,forced_choiceRT_color,2021.2.3,MacIntel,59.97361161,,,,,,,,1,Slow,long,k,1,2.1445,2,1,9,3,1,,,,,
,1.66,,,,,,,,,d,orange,5ee2c239f4ec4b804a79cf80,2021-09-27_14h08.05.439,forced_choiceRT_color,2021.2.3,MacIntel,59.97361161,,,,,,,,1,Slow,long,d,1,2.2622,2,2,10,0,1,,,,,
,0.48,,,,,,,,,j,red,5ee2c239f4ec4b804a79cf80,2021-09-27_14h08.05.439,forced_choiceRT_color,2021.2.3,MacIntel,59.97361161,,,,,,,,1,Ontime,long,f,0,2.0625,2,3,11,2,1,,,,,
,0.61,,,,,,,,,k,purple,5ee2c239f4ec4b804a79cf80,2021-09-27_14h08.05.439,forced_choiceRT_color,2021.2.3,MacIntel,59.97361161,,,,,,,,1,Ontime,long,k,1,1.9114,3,0,12,3,1,,,,,
,1.51,,,,,,,,,f,blue,5ee2c239f4ec4b804a79cf80,2021-09-27_14h08.05.439,forced_choiceRT_color,2021.2.3,MacIntel,59.97361161,,,,,,,,1,Slow,long,f,1,2.3678,3,1,13,1,1,,,,,
,0.18,,,,,,,,,j,red,5ee2c239f4ec4b804a79cf80,2021-09-27_14h08.05.439,forced_choiceRT_color,2021.2.3,MacIntel,59.97361161,,,,,,,,1,Slow,long,f,0,2.1953,3,2,14,2,1,,,,,
,1.46,,,,,,,,,k,purple,5ee2c239f4ec4b804a79cf80,2021-09-27_14h08.05.439,forced_choiceRT_color,2021.2.3,MacIntel,59.97361161,,,,,,,,1,Fast,long,k,1,1.8657,3,3,15,3,1,,,,,
,1.51,,,,,,,,,j,red,5ee2c239f4ec4b804a79cf80,2021-09-27_14h08.05.439,forced_choiceRT_color,2021.2.3,MacIntel,59.97361161,,,,,,,,1,Fast,long,k,0,1.8985,4,0,16,2,1,,,,,
,0.72,,,,,,,,,k,purple,5ee2c239f4ec4b804a79cf80,2021-09-27_14h08.05.439,forced_choiceRT_color,2021.2.3,MacIntel,59.97361161,,,,,,,,1,Ontime,long,k,1,2.0938,4,1,17,3,1,,,,,
,0.21,,,,,,,,,k,purple,5ee2c239f4ec4b804a79cf80,2021-09-27_14h08.05.439,forced_choiceRT_color,2021.2.3,MacIntel,59.97361161,,,,,,,,1,Ontime,long,k,1,2.0109,4,2,18,3,1,,,,,
,0.56,,,,,,,,,j,red,5ee2c239f4ec4b804a79cf80,2021-09-27_14h08.05.439,forced_choiceRT_color,2021.2.3,MacIntel,59.97361161,,,,,,,,1,Slow,long,d,0,2.2099,4,3,19,2,1,,,,,
,1.24,,,,,,,,,d,orange,5ee2c239f4ec4b804a79cf80,2021-09-27_14h08.05.439,forced_choiceRT_color,2021.2.3,MacIntel,59.97361161,,,,,,,,1,Ontime,long,d,1,2.0433,5,0,20,0,1,,,,,
,0.88,,,,,,,,,j,red,5ee2c239f4ec4b804a79cf80,2021-09-27_14h08.05.439,forced_choiceRT_color,2021.2.3,MacIntel,59.97361161,,,,,,,,1,Slow,long,f,0,2.1622,5,1,21,2,1,,,,,
,0.37,,,,,,,,,k,purple,5ee2c239f4ec4b804a79cf80,2021-09-27_14h08.05.439,forced_choiceRT_color,2021.2.3,MacIntel,59.97361161,,,,,,,,1,Ontime,long,k,1,2.0961,5,2,22,3,1,,,,,
,0.76,,,,,,,,,f,blue,5ee2c239f4ec4b804a79cf80,2021-09-27_14h08.05.439,forced_choiceRT_color,2021.2.3,MacIntel,59.97361161,,,,,,,,1,Ontime,long,k,0,2.0079,5,3,23,1,1,,,,,
,0.66,,,,,,,,,j,red,5ee2c239f4ec4b804a79cf80,2021-09-27_14h08.05.439,forced_choiceRT_color,2021.2.3,MacIntel,59.97361161,,,,,,,,1,Slow,long,f,0,2.214,6,0,24,2,1,,,,,
,0.02,,,,,,,,,j,red,5ee2c239f4ec4b804a79cf80,2021-09-27_14h08.05.439,forced_choiceRT_color,2021.2.3,MacIntel,59.97361161,,,,,,,,1,Ontime,long,j,1,1.9795,6,1,25,2,1,,,,,
,1.19,,,,,,,,,f,blue,5ee2c239f4ec4b804a79cf80,2021-09-27_14h08.05.439,forced_choiceRT_color,2021.2.3,MacIntel,59.97361161,,,,,,,,1,Slow,long,f,1,2.247,6,2,26,1,1,,,,,
,0.46,,,,,,,,,k,purple,5ee2c239f4ec4b804a79cf80,2021-09-27_14h08.05.439,forced_choiceRT_color,2021.2.3,MacIntel,59.97361161,,,,,,,,1,Slow,long,k,1,2.2116,6,3,27,3,1,,,,,
,0.02,,,,,,,,,d,orange,5ee2c239f4ec4b804a79cf80,2021-09-27_14h08.05.439,forced_choiceRT_color,2021.2.3,MacIntel,59.97361161,,,,,,,,1,Fast,long,d,1,1.8442,7,0,28,0,1,,,,,
,1.95,,,,,,,,,d,orange,5ee2c239f4ec4b804a79cf80,2021-09-27_14h08.05.439,forced_choiceRT_color,2021.2.3,MacIntel,59.97361161,,,,,,,,1,Slow,long,d,1,2.3599,7,1,29,0,1,,,,,
,0.58,,,,,,,,,d,orange,5ee2c239f4ec4b804a79cf80,2021-09-27_14h08.05.439,forced_choiceRT_color,2021.2.3,MacIntel,59.97361161,,,,,,,,1,Slow,long,d,1,2.2126,7,2,30,0,1,,,,,
,0.34,,,,,,,,,f,blue,5ee2c239f4ec4b804a79cf80,2021-09-27_14h08.05.439,forced_choiceRT_color,2021.2.3,MacIntel,59.97361161,,,,,,,,1,Fast,long,d,0,1.8782,7,3,31,1,1,,,,,
,1.47,,,,,,,,,k,purple,5ee2c239f4ec4b804a79cf80,2021-09-27_14h08.05.439,forced_choiceRT_color,2021.2.3,MacIntel,59.97361161,,,,,,,,1,Ontime,long,k,1,1.9789,8,0,32,3,1,,,,,
,1.48,,,,,,,,,d,orange,5ee2c239f4ec4b804a79cf80,2021-09-27_14h08.05.439,forced_choiceRT_color,2021.2.3,MacIntel,59.97361161,,,,,,,,1,Slow,long,d,1,2.1119,8,1,33,0,1,,,,,
,0.19,,,,,,,,,j,red,5ee2c239f4ec4b804a79cf80,2021-09-27_14h08.05.439,forced_choiceRT_color,2021.2.3,MacIntel,59.97361161,,,,,,,,1,Ontime,long,f,0,2.0326,8,2,34,2,1,,,,,
,1.48,,,,,,,,,d,orange,5ee2c239f4ec4b804a79cf80,2021-09-27_14h08.05.439,forced_choiceRT_color,2021.2.3,MacIntel,59.97361161,,,,,,,,1,Fast,long,f,0,1.8139,8,3,35,0,1,,,,,
,1.39,,,,,,,,,k,purple,5ee2c239f4ec4b804a79cf80,2021-09-27_14h08.05.439,forced_choiceRT_color,2021.2.3,MacIntel,59.97361161,,,,,,,,1,Fast,long,k,1,1.7908,9,0,36,3,1,,,,,
,0.47,,,,,,,,,f,blue,5ee2c239f4ec4b804a79cf80,2021-09-27_14h08.05.439,forced_choiceRT_color,2021.2.3,MacIntel,59.97361161,,,,,,,,1,Ontime,long,f,1,2.0716,9,1,37,1,1,,,,,
,0.53,,,,,,,,,f,blue,5ee2c239f4ec4b804a79cf80,2021-09-27_14h08.05.439,forced_choiceRT_color,2021.2.3,MacIntel,59.97361161,,,,,,,,1,Ontime,long,f,1,2.0411,9,2,38,1,1,,,,,
,0.43,,,,,,,,,d,orange,5ee2c239f4ec4b804a79cf80,2021-09-27_14h08.05.439,forced_choiceRT_color,2021.2.3,MacIntel,59.97361161,,,,,,,,1,Ontime,long,d,1,1.9426,9,3,39,0,1,,,,,
,,,,,,,,,,,,5ee2c239f4ec4b804a79cf80,2021-09-27_14h08.05.439,forced_choiceRT_color,2021.2.3,MacIntel,59.97361161,,,,,,,,,,,,,,,,,,,0,0,0,0,1
,1.91,,,,,,,,,j,red,5ee2c239f4ec4b804a79cf80,2021-09-27_14h08.05.439,forced_choiceRT_color,2021.2.3,MacIntel,59.97361161,,,,,,,,2,Slow,long,k,0,2.2037,0,0,0,2,1,,,,,
,1.68,,,,,,,,,j,red,5ee2c239f4ec4b804a79cf80,2021-09-27_14h08.05.439,forced_choiceRT_color,2021.2.3,MacIntel,59.97361161,,,,,,,,2,Ontime,long,k,0,2.0302,0,1,1,2,1,,,,,
,0.26,,,,,,,,,k,purple,5ee2c239f4ec4b804a79cf80,2021-09-27_14h08.05.439,forced_choiceRT_color,2021.2.3,MacIntel,59.97361161,,,,,,,,2,Ontime,long,k,1,2.0457,0,2,2,3,1,,,,,
,0.15,,,,,,,,,f,blue,5ee2c239f4ec4b804a79cf80,2021-09-27_14h08.05.439,forced_choiceRT_color,2021.2.3,MacIntel,59.97361161,,,,,,,,2,Ontime,long,j,0,2.0803,0,3,3,1,1,,,,,
,0.4,,,,,,,,,d,orange,5ee2c239f4ec4b804a79cf80,2021-09-27_14h08.05.439,forced_choiceRT_color,2021.2.3,MacIntel,59.97361161,,,,,,,,2,Ontime,long,d,1,2.0756,1,0,4,0,1,,,,,
,0.2,,,,,,,,,j,red,5ee2c239f4ec4b804a79cf80,2021-09-27_14h08.05.439,forced_choiceRT_color,2021.2.3,MacIntel,59.97361161,,,,,,,,2,Ontime,long,d,0,1.9492,1,1,5,2,1,,,,,
,1.31,,,,,,,,,f,blue,5ee2c239f4ec4b804a79cf80,2021-09-27_14h08.05.439,forced_choiceRT_color,2021.2.3,MacIntel,59.97361161,,,,,,,,2,Ontime,long,f,1,2.0959,1,2,6,1,1,,,,,
,1.78,,,,,,,,,d,orange,5ee2c239f4ec4b804a79cf80,2021-09-27_14h08.05.439,forced_choiceRT_color,2021.2.3,MacIntel,59.97361161,,,,,,,,2,Slow,long,j,0,2.2261,1,3,7,0,1,,,,,
,1.85,,,,,,,,,j,red,5ee2c239f4ec4b804a79cf80,2021-09-27_14h08.05.439,forced_choiceRT_color,2021.2.3,MacIntel,59.97361161,,,,,,,,2,Slow,long,k,0,2.1617,2,0,8,2,1,,,,,
,0.91,,,,,,,,,k,purple,5ee2c239f4ec4b804a79cf80,2021-09-27_14h08.05.439,forced_choiceRT_color,2021.2.3,MacIntel,59.97361161,,,,,,,,2,Ontime,long,k,1,1.9613,2,1,9,3,1,,,,,
,1.6,,,,,,,,,d,orange,5ee2c239f4ec4b804a79cf80,2021-09-27_14h08.05.439,forced_choiceRT_color,2021.2.3,MacIntel,59.97361161,,,,,,,,2,Slow,long,d,1,2.2633,2,2,10,0,1,,,,,
,0.27,,,,,,,,,d,orange,5ee2c239f4ec4b804a79cf80,2021-09-27_14h08.05.439,forced_choiceRT_color,2021.2.3,MacIntel,59.97361161,,,,,,,,2,Ontime,long,d,1,1.9263,2,3,11,0,1,,,,,
,1.76,,,,,,,,,k,purple,5ee2c239f4ec4b804a79cf80,2021-09-27_14h08.05.439,forced_choiceRT_color,2021.2.3,MacIntel,59.97361161,,,,,,,,2,Slow,long,k,1,2.329,3,0,12,3,1,,,,,
,1.8,,,,,,,,,k,purple,5ee2c239f4ec4b804a79cf80,2021-09-27_14h08.05.439,forced_choiceRT_color,2021.2.3,MacIntel,59.97361161,,,,,,,,2,Slow,long,k,1,2.2131,3,1,13,3,1,,,,,
,1.07,,,,,,,,,k,purple,5ee2c239f4ec4b804a79cf80,2021-09-27_14h08.05.439,forced_choiceRT_color,2021.2.3,MacIntel,59.97361161,,,,,,,,2,Fast,long,k,1,1.5087,3,2,14,3,1,,,,,
,0.16,,,,,,,,,j,red,5ee2c239f4ec4b804a79cf80,2021-09-27_14h08.05.439,forced_choiceRT_color,2021.2.3,MacIntel,59.97361161,,,,,,,,2,Slow,long,d,0,2.1114,3,3,15,2,1,,,,,
,0.16,,,,,,,,,j,red,5ee2c239f4ec4b804a79cf80,2021-09-27_14h08.05.439,forced_choiceRT_color,2021.2.3,MacIntel,59.97361161,,,,,,,,2,Fast,long,d,0,0.644,4,0,16,2,1,,,,,
,1.25,,,,,,,,,k,purple,5ee2c239f4ec4b804a79cf80,2021-09-27_14h08.05.439,forced_choiceRT_color,2021.2.3,MacIntel,59.97361161,,,,,,,,2,Fast,long,j,0,1.7496,4,1,17,3,1,,,,,
,1.97,,,,,,,,,d,orange,5ee2c239f4ec4b804a79cf80,2021-09-27_14h08.05.439,forced_choiceRT_color,2021.2.3,MacIntel,59.97361161,,,,,,,,2,Ontime,long,k,0,2.0419,4,2,18,0,1,,,,,
,1.53,,,,,,,,,k,purple,5ee2c239f4ec4b804a79cf80,2021-09-27_14h08.05.439,forced_choiceRT_color,2021.2.3,MacIntel,59.97361161,,,,,,,,2,Slow,long,k,1,2.2107,4,3,19,3,1,,,,,
,0.17,,,,,,,,,j,red,5ee2c239f4ec4b804a79cf80,2021-09-27_14h08.05.439,forced_choiceRT_color,2021.2.3,MacIntel,59.97361161,,,,,,,,2,Slow,long,j,1,2.2118,5,0,20,2,1,,,,,
,0.03,,,,,,,,,d,orange,5ee2c239f4ec4b804a79cf80,2021-09-27_14h08.05.439,forced_choiceRT_color,2021.2.3,MacIntel,59.97361161,,,,,,,,2,Slow,long,d,1,2.2358,5,1,21,0,1,,,,,
,1.81,,,,,,,,,j,red,5ee2c239f4ec4b804a79cf80,2021-09-27_14h08.05.439,forced_choiceRT_color,2021.2.3,MacIntel,59.97361161,,,,,,,,2,Slow,long,d,0,2.2588,5,2,22,2,1,,,,,
,1.22,,,,,,,,,f,blue,5ee2c239f4ec4b804a79cf80,2021-09-27_14h08.05.439,forced_choiceRT_color,2021.2.3,MacIntel,59.97361161,,,,,,,,2,Fast,long,j,0,1.8632,5,3,23,1,1,,,,,
,1.29,,,,,,,,,j,red,5ee2c239f4ec4b804a79cf80,2021-09-27_14h08.05.439,forced_choiceRT_color,2021.2.3,MacIntel,59.97361161,,,,,,,,2,Ontime,long,k,0,1.9616,6,0,24,2,1,,,,,
,1.01,,,,,,,,,k,purple,5ee2c239f4ec4b804a79cf80,2021-09-27_14h08.05.439,forced_choiceRT_color,2021.2.3,MacIntel,59.97361161,,,,,,,,2,Ontime,long,d,0,1.9446,6,1,25,3,1,,,,,
,0.38,,,,,,,,,f,blue,5ee2c239f4ec4b804a79cf80,2021-09-27_14h08.05.439,forced_choiceRT_color,2021.2.3,MacIntel,59.97361161,,,,,,,,2,Fast,long,j,0,1.2112,6,2,26,1,1,,,,,
,0.61,,,,,,,,,k,purple,5ee2c239f4ec4b804a79cf80,2021-09-27_14h08.05.439,forced_choiceRT_color,2021.2.3,MacIntel,59.97361161,,,,,,,,2,Ontime,long,k,1,2.0786,6,3,27,3,1,,,,,
,1.84,,,,,,,,,f,blue,5ee2c239f4ec4b804a79cf80,2021-09-27_14h08.05.439,forced_choiceRT_color,2021.2.3,MacIntel,59.97361161,,,,,,,,2,Slow,long,k,0,2.3789,7,0,28,1,1,,,,,
,1.05,,,,,,,,,k,purple,5ee2c239f4ec4b804a79cf80,2021-09-27_14h08.05.439,forced_choiceRT_color,2021.2.3,MacIntel,59.97361161,,,,,,,,2,Slow,long,k,1,2.2786,7,1,29,3,1,,,,,
,0.92,,,,,,,,,f,blue,5ee2c239f4ec4b804a79cf80,2021-09-27_14h08.05.439,forced_choiceRT_color,2021.2.3,MacIntel,59.97361161,,,,,,,,2,Fast,long,j,0,1.7115,7,2,30,1,1,,,,,
,1.64,,,,,,,,,d,orange,5ee2c239f4ec4b804a79cf80,2021-09-27_14h08.05.439,forced_choiceRT_color,2021.2.3,MacIntel,59.97361161,,,,,,,,2,Slow,long,d,1,2.1115,7,3,31,0,1,,,,,
,0.8,,,,,,,,,f,blue,5ee2c239f4ec4b804a79cf80,2021-09-27_14h08.05.439,forced_choiceRT_color,2021.2.3,MacIntel,59.97361161,,,,,,,,2,Fast,long,f,1,1.7962,8,0,32,1,1,,,,,
,1.53,,,,,,,,,d,orange,5ee2c239f4ec4b804a79cf80,2021-09-27_14h08.05.439,forced_choiceRT_color,2021.2.3,MacIntel,59.97361161,,,,,,,,2,Slow,long,d,1,2.2817,8,1,33,0,1,,,,,
,1.58,,,,,,,,,d,orange,5ee2c239f4ec4b804a79cf80,2021-09-27_14h08.05.439,forced_choiceRT_color,2021.2.3,MacIntel,59.97361161,,,,,,,,2,Slow,long,d,1,2.1799,8,2,34,0,1,,,,,
,1.19,,,,,,,,,f,blue,5ee2c239f4ec4b804a79cf80,2021-09-27_14h08.05.439,forced_choiceRT_color,2021.2.3,MacIntel,59.97361161,,,,,,,,2,Fast,long,d,0,1.863,8,3,35,1,1,,,,,
,1.2,,,,,,,,,j,red,5ee2c239f4ec4b804a79cf80,2021-09-27_14h08.05.439,forced_choiceRT_color,2021.2.3,MacIntel,59.97361161,,,,,,,,2,Fast,long,d,0,1.8622,9,0,36,2,1,,,,,
,0.84,,,,,,,,,f,blue,5ee2c239f4ec4b804a79cf80,2021-09-27_14h08.05.439,forced_choiceRT_color,2021.2.3,MacIntel,59.97361161,,,,,,,,2,Fast,long,f,1,1.4933,9,1,37,1,1,,,,,
,0.95,,,,,,,,,d,orange,5ee2c239f4ec4b804a79cf80,2021-09-27_14h08.05.439,forced_choiceRT_color,2021.2.3,MacIntel,59.97361161,,,,,,,,2,Ontime,long,d,1,2.0289,9,2,38,0,1,,,,,
,0.29,,,,,,,,,f,blue,5ee2c239f4ec4b804a79cf80,2021-09-27_14h08.05.439,forced_choiceRT_color,2021.2.3,MacIntel,59.97361161,,,,,,,,2,Slow,long,j,0,2.1302,9,3,39,1,1,,,,,
,,,,,,,,,,,,5ee2c239f4ec4b804a79cf80,2021-09-27_14h08.05.439,forced_choiceRT_color,2021.2.3,MacIntel,59.97361161,,,,,,,,,,,,,,,,,,,1,0,1,0,1
,1.18,,,,,,,,,d,orange,5ee2c239f4ec4b804a79cf80,2021-09-27_14h08.05.439,forced_choiceRT_color,2021.2.3,MacIntel,59.97361161,,,,,,,,3,Ontime,long,d,1,1.9685,0,0,0,0,1,,,,,
,1.25,,,,,,,,,j,red,5ee2c239f4ec4b804a79cf80,2021-09-27_14h08.05.439,forced_choiceRT_color,2021.2.3,MacIntel,59.97361161,,,,,,,,3,Ontime,long,j,1,1.9623,0,1,1,2,1,,,,,
,0,,,,,,,,,j,red,5ee2c239f4ec4b804a79cf80,2021-09-27_14h08.05.439,forced_choiceRT_color,2021.2.3,MacIntel,59.97361161,,,,,,,,3,Slow,long,j,1,2.1458,0,2,2,2,1,,,,,
,1.96,,,,,,,,,d,orange,5ee2c239f4ec4b804a79cf80,2021-09-27_14h08.05.439,forced_choiceRT_color,2021.2.3,MacIntel,59.97361161,,,,,,,,3,Slow,long,d,1,2.211,0,3,3,0,1,,,,,
,1.91,,,,,,,,,j,red,5ee2c239f4ec4b804a79cf80,2021-09-27_14h08.05.439,forced_choiceRT_color,2021.2.3,MacIntel,59.97361161,,,,,,,,3,Ontime,long,f,0,2.042,1,0,4,2,1,,,,,
,1.02,,,,,,,,,j,red,5ee2c239f4ec4b804a79cf80,2021-09-27_14h08.05.439,forced_choiceRT_color,2021.2.3,MacIntel,59.97361161,,,,,,,,3,Fast,long,j,1,1.8275,1,1,5,2,1,,,,,
,0.97,,,,,,,,,k,purple,5ee2c239f4ec4b804a79cf80,2021-09-27_14h08.05.439,forced_choiceRT_color,2021.2.3,MacIntel,59.97361161,,,,,,,,3,Fast,long,k,1,1.8581,1,2,6,3,1,,,,,
,1.73,,,,,,,,,f,blue,5ee2c239f4ec4b804a79cf80,2021-09-27_14h08.05.439,forced_choiceRT_color,2021.2.3,MacIntel,59.97361161,,,,,,,,3,Slow,long,j,0,2.3093,1,3,7,1,1,,,,,
,1.27,,,,,,,,,f,blue,5ee2c239f4ec4b804a79cf80,2021-09-27_14h08.05.439,forced_choiceRT_color,2021.2.3,MacIntel,59.97361161,,,,,,,,3,Ontime,long,j,0,1.9991,2,0,8,1,1,,,,,
,1.44,,,,,,,,,k,purple,5ee2c239f4ec4b804a79cf80,2021-09-27_14h08.05.439,forced_choiceRT_color,2021.2.3,MacIntel,59.97361161,,,,,,,,3,Slow,long,k,1,2.1777,2,1,9,3,1,,,,,
,0.82,,,,,,,,,f,blue,5ee2c239f4ec4b804a79cf80,2021-09-27_14h08.05.439,forced_choiceRT_color,2021.2.3,MacIntel,59.97361161,,,,,,,,3,Ontime,long,j,0,1.928,2,2,10,1,1,,,,,
,0.25,,,,,,,,,j,red,5ee2c239f4ec4b804a79cf80,2021-09-27_14h08.05.439,forced_choiceRT_color,2021.2.3,MacIntel,59.97361161,,,,,,,,3,Ontime,long,d,0,1.9616,2,3,11,2,1,,,,,
,1.49,,,,,,,,,k,purple,5ee2c239f4ec4b804a79cf80,2021-09-27_14h08.05.439,forced_choiceRT_color,2021.2.3,MacIntel,59.97361161,,,,,,,,3,Slow,long,k,1,2.3802,3,0,12,3,1,,,,,
,0.39,,,,,,,,,f,blue,5ee2c239f4ec4b804a79cf80,2021-09-27_14h08.05.439,forced_choiceRT_color,2021.2.3,MacIntel,59.97361161,,,,,,,,3,Ontime,long,j,0,2.0114,3,1,13,1,1,,,,,
,0.68,,,,,,,,,j,red,5ee2c239f4ec4b804a79cf80,2021-09-27_14h08.05.439,forced_choiceRT_color,2021.2.3,MacIntel,59.97361161,,,,,,,,3,Fast,long,f,0,1.8445,3,2,14,2,1,,,,,
,1.92,,,,,,,,,f,blue,5ee2c239f4ec4b804a79cf80,2021-09-27_14h08.05.439,forced_choiceRT_color,2021.2.3,MacIntel,59.97361161,,,,,,,,3,Slow,long,f,1,2.2112,3,3,15,1,1,,,,,
,1.4,,,,,,,,,d,orange,5ee2c239f4ec4b804a79cf80,2021-09-27_14h08.05.439,forced_choiceRT_color,2021.2.3,MacIntel,59.97361161,,,,,,,,3,Slow,long,j,0,2.1118,4,0,16,0,1,,,,,
,1.35,,,,,,,,,k,purple,5ee2c239f4ec4b804a79cf80,2021-09-27_14h08.05.439,forced_choiceRT_color,2021.2.3,MacIntel,59.97361161,,,,,,,,3,Ontime,long,k,1,1.9797,4,1,17,3,1,,,,,
,1.3,,,,,,,,,f,blue,5ee2c239f4ec4b804a79cf80,2021-09-27_14h08.05.439,forced_choiceRT_color,2021.2.3,MacIntel,59.97361161,,,,,,,,3,Slow,long,j,0,2.1777,4,2,18,1,1,,,,,
,0.84,,,,,,,,,f,blue,5ee2c239f4ec4b804a79cf80,2021-09-27_14h08.05.439,forced_choiceRT_color,2021.2.3,MacIntel,59.97361161,,,,,,,,3,Fast,long,f,1,1.5672,4,3,19,1,1,,,,,
,1.47,,,,,,,,,d,orange,5ee2c239f4ec4b804a79cf80,2021-09-27_14h08.05.439,forced_choiceRT_color,2021.2.3,MacIntel,59.97361161,,,,,,,,3,Slow,long,d,1,2.2267,5,0,20,0,1,,,,,
,0.63,,,,,,,,,j,red,5ee2c239f4ec4b804a79cf80,2021-09-27_14h08.05.439,forced_choiceRT_color,2021.2.3,MacIntel,59.97361161,,,,,,,,3,Slow,long,f,0,2.1336,5,1,21,2,1,,,,,
,0.39,,,,,,,,,j,red,5ee2c239f4ec4b804a79cf80,2021-09-27_14h08.05.439,forced_choiceRT_color,2021.2.3,MacIntel,59.97361161,,,,,,,,3,Slow,long,j,1,2.3352,5,2,22,2,1,,,,,
,1.06,,,,,,,,,k,purple,5ee2c239f4ec4b804a79cf80,2021-09-27_14h08.05.439,forced_choiceRT_color,2021.2.3,MacIntel,59.97361161,,,,,,,,3,Ontime,long,k,1,1.9264,5,3,23,3,1,,,,,
,1.8,,,,,,,,,d,orange,5ee2c239f4ec4b804a79cf80,2021-09-27_14h08.05.439,forced_choiceRT_color,2021.2.3,MacIntel,59.97361161,,,,,,,,3,Slow,long,f,0,2.297,6,0,24,0,1,,,,,
,0.5,,,,,,,,,f,blue,5ee2c239f4ec4b804a79cf80,2021-09-27_14h08.05.439,forced_choiceRT_color,2021.2.3,MacIntel,59.97361161,,,,,,,,3,Slow,long,j,0,2.293,6,1,25,1,1,,,,,
,0.05,,,,,,,,,j,red,5ee2c239f4ec4b804a79cf80,2021-09-27_14h08.05.439,forced_choiceRT_color,2021.2.3,MacIntel,59.97361161,,,,,,,,3,Fast,long,j,1,1.8122,6,2,26,2,1,,,,,
,0.64,,,,,,,,,k,purple,5ee2c239f4ec4b804a79cf80,2021-09-27_14h08.05.439,forced_choiceRT_color,2021.2.3,MacIntel,59.97361161,,,,,,,,3,Slow,long,k,1,2.13,6,3,27,3,1,,,,,
,1.37,,,,,,,,,d,orange,5ee2c239f4ec4b804a79cf80,2021-09-27_14h08.05.439,forced_choiceRT_color,2021.2.3,MacIntel,59.97361161,,,,,,,,3,Slow,long,d,1,2.1302,7,0,28,0,1,,,,,
,1.34,,,,,,,,,k,purple,5ee2c239f4ec4b804a79cf80,2021-09-27_14h08.05.439,forced_choiceRT_color,2021.2.3,MacIntel,59.97361161,,,,,,,,3,Slow,long,k,1,2.1302,7,1,29,3,1,,,,,
,0.63,,,,,,,,,d,orange,5ee2c239f4ec4b804a79cf80,2021-09-27_14h08.05.439,forced_choiceRT_color,2021.2.3,MacIntel,59.97361161,,,,,,,,3,Fast,long,d,1,1.5462,7,2,30,0,1,,,,,
,0.78,,,,,,,,,d,orange,5ee2c239f4ec4b804a79cf80,2021-09-27_14h08.05.439,forced_choiceRT_color,2021.2.3,MacIntel,59.97361161,,,,,,,,3,Fast,long,d,1,1.4153,7,3,31,0,1,,,,,
,1.08,,,,,,,,,f,blue,5ee2c239f4ec4b804a79cf80,2021-09-27_14h08.05.439,forced_choiceRT_color,2021.2.3,MacIntel,59.97361161,,,,,,,,3,Fast,long,d,0,1.8116,8,0,32,1,1,,,,,
,0.9,,,,,,,,,d,orange,5ee2c239f4ec4b804a79cf80,2021-09-27_14h08.05.439,forced_choiceRT_color,2021.2.3,MacIntel,59.97361161,,,,,,,,3,Slow,long,d,1,2.5281,8,1,33,0,1,,,,,
,0.6,,,,,,,,,f,blue,5ee2c239f4ec4b804a79cf80,2021-09-27_14h08.05.439,forced_choiceRT_color,2021.2.3,MacIntel,59.97361161,,,,,,,,3,Ontime,long,j,0,2.077,8,2,34,1,1,,,,,
,1.14,,,,,,,,,d,orange,5ee2c239f4ec4b804a79cf80,2021-09-27_14h08.05.439,forced_choiceRT_color,2021.2.3,MacIntel,59.97361161,,,,,,,,3,Ontime,long,d,1,1.9131,8,3,35,0,1,,,,,
,1.39,,,,,,,,,j,red,5ee2c239f4ec4b804a79cf80,2021-09-27_14h08.05.439,forced_choiceRT_color,2021.2.3,MacIntel,59.97361161,,,,,,,,3,Ontime,long,d,0,2.0595,9,0,36,2,1,,,,,
,0.64,,,,,,,,,k,purple,5ee2c239f4ec4b804a79cf80,2021-09-27_14h08.05.439,forced_choiceRT_color,2021.2.3,MacIntel,59.97361161,,,,,,,,3,Ontime,long,k,1,2.0953,9,1,37,3,1,,,,,
,0.54,,,,,,,,,k,purple,5ee2c239f4ec4b804a79cf80,2021-09-27_14h08.05.439,forced_choiceRT_color,2021.2.3,MacIntel,59.97361161,,,,,,,,3,Ontime,long,k,1,1.9632,9,2,38,3,1,,,,,
,1.81,,,,,,,,,k,purple,5ee2c239f4ec4b804a79cf80,2021-09-27_14h08.05.439,forced_choiceRT_color,2021.2.3,MacIntel,59.97361161,,,,,,,,3,Fast,long,k,1,1.8942,9,3,39,3,1,,,,,
,,,,,,,,,,,,5ee2c239f4ec4b804a79cf80,2021-09-27_14h08.05.439,forced_choiceRT_color,2021.2.3,MacIntel,59.97361161,,,,,,,,,,,,,,,,,,,2,0,2,0,1
,0.36,,,,,,,,,d,orange,5ee2c239f4ec4b804a79cf80,2021-09-27_14h08.05.439,forced_choiceRT_color,2021.2.3,MacIntel,59.97361161,,,,,,,,4,Slow,long,d,1,158.6223,0,0,0,0,1,,,,,
,0.65,,,,,,,,,f,blue,5ee2c239f4ec4b804a79cf80,2021-09-27_14h08.05.439,forced_choiceRT_color,2021.2.3,MacIntel,59.97361161,,,,,,,,4,Fast,long,j,0,1.8258,0,1,1,1,1,,,,,
,1.36,,,,,,,,,f,blue,5ee2c239f4ec4b804a79cf80,2021-09-27_14h08.05.439,forced_choiceRT_color,2021.2.3,MacIntel,59.97361161,,,,,,,,4,Slow,long,d,0,2.1958,0,2,2,1,1,,,,,
,0.84,,,,,,,,,d,orange,5ee2c239f4ec4b804a79cf80,2021-09-27_14h08.05.439,forced_choiceRT_color,2021.2.3,MacIntel,59.97361161,,,,,,,,4,Fast,long,d,1,1.5429,0,3,3,0,1,,,,,
,0.38,,,,,,,,,d,orange,5ee2c239f4ec4b804a79cf80,2021-09-27_14h08.05.439,forced_choiceRT_color,2021.2.3,MacIntel,59.97361161,,,,,,,,4,Fast,long,d,1,1.6125,1,0,4,0,1,,,,,
,0.19,,,,,,,,,f,blue,5ee2c239f4ec4b804a79cf80,2021-09-27_14h08.05.439,forced_choiceRT_color,2021.2.3,MacIntel,59.97361161,,,,,,,,4,Fast,long,d,0,1.3849,1,1,5,1,1,,,,,
,0.51,,,,,,,,,d,orange,5ee2c239f4ec4b804a79cf80,2021-09-27_14h08.05.439,forced_choiceRT_color,2021.2.3,MacIntel,59.97361161,,,,,,,,4,Fast,long,d,1,1.8843,1,2,6,0,1,,,,,
,0.98,,,,,,,,,d,orange,5ee2c239f4ec4b804a79cf80,2021-09-27_14h08.05.439,forced_choiceRT_color,2021.2.3,MacIntel,59.97361161,,,,,,,,4,Fast,long,j,0,1.7802,1,3,7,0,1,,,,,
,1.27,,,,,,,,,k,purple,5ee2c239f4ec4b804a79cf80,2021-09-27_14h08.05.439,forced_choiceRT_color,2021.2.3,MacIntel,59.97361161,,,,,,,,4,Fast,long,k,1,1.8785,2,0,8,3,1,,,,,
,1.66,,,,,,,,,f,blue,5ee2c239f4ec4b804a79cf80,2021-09-27_14h08.05.439,forced_choiceRT_color,2021.2.3,MacIntel,59.97361161,,,,,,,,4,Slow,long,j,0,2.3303,2,1,9,1,1,,,,,
,1.26,,,,,,,,,j,red,5ee2c239f4ec4b804a79cf80,2021-09-27_14h08.05.439,forced_choiceRT_color,2021.2.3,MacIntel,59.97361161,,,,,,,,4,Slow,long,k,0,2.1139,2,2,10,2,1,,,,,
,0.44,,,,,,,,,k,purple,5ee2c239f4ec4b804a79cf80,2021-09-27_14h08.05.439,forced_choiceRT_color,2021.2.3,MacIntel,59.97361161,,,,,,,,4,Ontime,long,k,1,1.957,2,3,11,3,1,,,,,
,1.13,,,,,,,,,j,red,5ee2c239f4ec4b804a79cf80,2021-09-27_14h08.05.439,forced_choiceRT_color,2021.2.3,MacIntel,59.97361161,,,,,,,,4,Fast,long,d,0,1.7785,3,0,12,2,1,,,,,
,0.13,,,,,,,,,f,blue,5ee2c239f4ec4b804a79cf80,2021-09-27_14h08.05.439,forced_choiceRT_color,2021.2.3,MacIntel,59.97361161,,,,,,,,4,Ontime,long,f,1,1.9291,3,1,13,1,1,,,,,
,1.31,,,,,,,,,d,orange,5ee2c239f4ec4b804a79cf80,2021-09-27_14h08.05.439,forced_choiceRT_color,2021.2.3,MacIntel,59.97361161,,,,,,,,4,Ontime,long,f,0,2.0131,3,2,14,0,1,,,,,
,0.51,,,,,,,,,k,purple,5ee2c239f4ec4b804a79cf80,2021-09-27_14h08.05.439,forced_choiceRT_color,2021.2.3,MacIntel,59.97361161,,,,,,,,4,Fast,long,d,0,1.2341,3,3,15,3,1,,,,,
,0.18,,,,,,,,,k,purple,5ee2c239f4ec4b804a79cf80,2021-09-27_14h08.05.439,forced_choiceRT_color,2021.2.3,MacIntel,59.97361161,,,,,,,,4,Fast,long,k,1,0.7881,4,0,16,3,1,,,,,
,1.05,,,,,,,,,j,red,5ee2c239f4ec4b804a79cf80,2021-09-27_14h08.05.439,forced_choiceRT_color,2021.2.3,MacIntel,59.97361161,,,,,,,,4,Slow,long,d,0,2.5949,4,1,17,2,1,,,,,
,0.26,,,,,,,,,j,red,5ee2c239f4ec4b804a79cf80,2021-09-27_14h08.05.439,forced_choiceRT_color,2021.2.3,MacIntel,59.97361161,,,,,,,,4,Fast,long,f,0,1.2282,4,2,18,2,1,,,,,
,0.73,,,,,,,,,f,blue,5ee2c239f4ec4b804a79cf80,2021-09-27_14h08.05.439,forced_choiceRT_color,2021.2.3,MacIntel,59.97361161,,,,,,,,4,Slow,long,k,0,26.1682,4,3,19,1,1,,,,,
,1.45,,,,,,,,,k,purple,5ee2c239f4ec4b804a79cf80,2021-09-27_14h08.05.439,forced_choiceRT_color,2021.2.3,MacIntel,59.97361161,,,,,,,,4,Ontime,long,k,1,1.9798,5,0,20,3,1,,,,,
,1.45,,,,,,,,,d,orange,5ee2c239f4ec4b804a79cf80,2021-09-27_14h08.05.439,forced_choiceRT_color,2021.2.3,MacIntel,59.97361161,,,,,,,,4,Slow,long,k,0,2.2887,5,1,21,0,1,,,,,
,0.27,,,,,,,,,j,red,5ee2c239f4ec4b804a79cf80,2021-09-27_14h08.05.439,forced_choiceRT_color,2021.2.3,MacIntel,59.97361161,,,,,,,,4,Slow,long,k,0,2.1954,5,2,22,2,1,,,,,
,0.82,,,,,,,,,j,red,5ee2c239f4ec4b804a79cf80,2021-09-27_14h08.05.439,forced_choiceRT_color,2021.2.3,MacIntel,59.97361161,,,,,,,,4,Slow,long,k,0,2.9994,5,3,23,2,1,,,,,
,1.98,,,,,,,,,j,red,5ee2c239f4ec4b804a79cf80,2021-09-27_14h08.05.439,forced_choiceRT_color,2021.2.3,MacIntel,59.97361161,,,,,,,,4,Fast,long,k,0,1.2337,6,0,24,2,1,,,,,
,0.38,,,,,,,,,j,red,5ee2c239f4ec4b804a79cf80,2021-09-27_14h08.05.439,forced_choiceRT_color,2021.2.3,MacIntel,59.97361161,,,,,,,,4,Fast,long,k,0,1.0781,6,1,25,2,1,,,,,
,1.45,,,,,,,,,k,purple,5ee2c239f4ec4b804a79cf80,2021-09-27_14h08.05.439,forced_choiceRT_color,2021.2.3,MacIntel,59.97361161,,,,,,,,4,Ontime,long,k,1,1.9932,6,2,26,3,1,,,,,
,0.6,,,,,,,,,f,blue,5ee2c239f4ec4b804a79cf80,2021-09-27_14h08.05.439,forced_choiceRT_color,2021.2.3,MacIntel,59.97361161,,,,,,,,4,Fast,long,f,1,1.6442,6,3,27,1,1,,,,,
,1.48,,,,,,,,,k,purple,5ee2c239f4ec4b804a79cf80,2021-09-27_14h08.05.439,forced_choiceRT_color,2021.2.3,MacIntel,59.97361161,,,,,,,,4,Slow,long,k,1,2.228,7,0,28,3,1,,,,,
,0.36,,,,,,,,,d,orange,5ee2c239f4ec4b804a79cf80,2021-09-27_14h08.05.439,forced_choiceRT_color,2021.2.3,MacIntel,59.97361161,,,,,,,,4,Fast,long,d,1,1.6468,7,1,29,0,1,,,,,
,0.27,,,,,,,,,k,purple,5ee2c239f4ec4b804a79cf80,2021-09-27_14h08.05.439,forced_choiceRT_color,2021.2.3,MacIntel,59.97361161,,,,,,,,4,Ontime,long,k,1,2.0291,7,2,30,3,1,,,,,
,0.44,,,,,,,,,k,purple,5ee2c239f4ec4b804a79cf80,2021-09-27_14h08.05.439,forced_choiceRT_color,2021.2.3,MacIntel,59.97361161,,,,,,,,4,Ontime,long,k,1,2.0621,7,3,31,3,1,,,,,
,1.2,,,,,,,,,d,orange,5ee2c239f4ec4b804a79cf80,2021-09-27_14h08.05.439,forced_choiceRT_color,2021.2.3,MacIntel,59.97361161,,,,,,,,4,Ontime,long,d,1,1.9941,8,0,32,0,1,,,,,
,1.14,,,,,,,,,f,blue,5ee2c239f4ec4b804a79cf80,2021-09-27_14h08.05.439,forced_choiceRT_color,2021.2.3,MacIntel,59.97361161,,,,,,,,4,Ontime,long,f,1,1.9694,8,1,33,1,1,,,,,
,0.96,,,,,,,,,f,blue,5ee2c239f4ec4b804a79cf80,2021-09-27_14h08.05.439,forced_choiceRT_color,2021.2.3,MacIntel,59.97361161,,,,,,,,4,Slow,long,f,1,2.2495,8,2,34,1,1,,,,,
,0.33,,,,,,,,,d,orange,5ee2c239f4ec4b804a79cf80,2021-09-27_14h08.05.439,forced_choiceRT_color,2021.2.3,MacIntel,59.97361161,,,,,,,,4,Fast,long,f,0,1.1639,8,3,35,0,1,,,,,
,0.3,,,,,,,,,j,red,5ee2c239f4ec4b804a79cf80,2021-09-27_14h08.05.439,forced_choiceRT_color,2021.2.3,MacIntel,59.97361161,,,,,,,,4,Fast,long,d,0,1.3452,9,0,36,2,1,,,,,
,1.84,,,,,,,,,f,blue,5ee2c239f4ec4b804a79cf80,2021-09-27_14h08.05.439,forced_choiceRT_color,2021.2.3,MacIntel,59.97361161,,,,,,,,4,Slow,long,k,0,2.1553,9,1,37,1,1,,,,,
,1.32,,,,,,,,,k,purple,5ee2c239f4ec4b804a79cf80,2021-09-27_14h08.05.439,forced_choiceRT_color,2021.2.3,MacIntel,59.97361161,,,,,,,,4,Ontime,long,k,1,2.0895,9,2,38,3,1,,,,,
,1.04,,,,,,,,,j,red,5ee2c239f4ec4b804a79cf80,2021-09-27_14h08.05.439,forced_choiceRT_color,2021.2.3,MacIntel,59.97361161,,,,,,,,4,Fast,long,d,0,1.7794,9,3,39,2,1,,,,,
,,,,,,,,,,,,5ee2c239f4ec4b804a79cf80,2021-09-27_14h08.05.439,forced_choiceRT_color,2021.2.3,MacIntel,59.97361161,,,,,,,,,,,,,,,,,,,3,0,3,0,1
,1.11,,,,,,,,,f,blue,5ee2c239f4ec4b804a79cf80,2021-09-27_14h08.05.439,forced_choiceRT_color,2021.2.3,MacIntel,59.97361161,,,,,,,,5,Fast,long,d,0,1.8643,0,0,0,1,1,,,,,
,1.93,,,,,,,,,f,blue,5ee2c239f4ec4b804a79cf80,2021-09-27_14h08.05.439,forced_choiceRT_color,2021.2.3,MacIntel,59.97361161,,,,,,,,5,Slow,long,j,0,2.3448,0,1,1,1,1,,,,,
,1.16,,,,,,,,,k,purple,5ee2c239f4ec4b804a79cf80,2021-09-27_14h08.05.439,forced_choiceRT_color,2021.2.3,MacIntel,59.97361161,,,,,,,,5,Fast,long,k,1,1.5114,0,2,2,3,1,,,,,
,0.97,,,,,,,,,d,orange,5ee2c239f4ec4b804a79cf80,2021-09-27_14h08.05.439,forced_choiceRT_color,2021.2.3,MacIntel,59.97361161,,,,,,,,5,Ontime,long,d,1,2.0967,0,3,3,0,1,,,,,
,0.36,,,,,,,,,d,orange,5ee2c239f4ec4b804a79cf80,2021-09-27_14h08.05.439,forced_choiceRT_color,2021.2.3,MacIntel,59.97361161,,,,,,,,5,Slow,long,d,1,2.1942,1,0,4,0,1,,,,,
,1.09,,,,,,,,,j,red,5ee2c239f4ec4b804a79cf80,2021-09-27_14h08.05.439,forced_choiceRT_color,2021.2.3,MacIntel,59.97361161,,,,,,,,5,Ontime,long,f,0,1.9636,1,1,5,2,1,,,,,
,1.03,,,,,,,,,d,orange,5ee2c239f4ec4b804a79cf80,2021-09-27_14h08.05.439,forced_choiceRT_color,2021.2.3,MacIntel,59.97361161,,,,,,,,5,Fast,long,d,1,1.882,1,2,6,0,1,,,,,
,0.08,,,,,,,,,f,blue,5ee2c239f4ec4b804a79cf80,2021-09-27_14h08.05.439,forced_choiceRT_color,2021.2.3,MacIntel,59.97361161,,,,,,,,5,Fast,long,j,0,1.8121,1,3,7,1,1,,,,,
,1.76,,,,,,,,,j,red,5ee2c239f4ec4b804a79cf80,2021-09-27_14h08.05.439,forced_choiceRT_color,2021.2.3,MacIntel,59.97361161,,,,,,,,5,Ontime,long,k,0,2.095,2,0,8,2,1,,,,,
,1.82,,,,,,,,,f,blue,5ee2c239f4ec4b804a79cf80,2021-09-27_14h08.05.439,forced_choiceRT_color,2021.2.3,MacIntel,59.97361161,,,,,,,,5,Ontime,long,j,0,2.06,2,1,9,1,1,,,,,
,1.67,,,,,,,,,d,orange,5ee2c239f4ec4b804a79cf80,2021-09-27_14h08.05.439,forced_choiceRT_color,2021.2.3,MacIntel,59.97361161,,,,,,,,5,Ontime,long,d,1,2.0116,2,2,10,0,1,,,,,
,1.78,,,,,,,,,d,orange,5ee2c239f4ec4b804a79cf80,2021-09-27_14h08.05.439,forced_choiceRT_color,2021.2.3,MacIntel,59.97361161,,,,,,,,5,Slow,long,d,1,2.3123,2,3,11,0,1,,,,,
,0.75,,,,,,,,,d,orange,5ee2c239f4ec4b804a79cf80,2021-09-27_14h08.05.439,forced_choiceRT_color,2021.2.3,MacIntel,59.97361161,,,,,,,,5,Fast,long,d,1,1.3608,3,0,12,0,1,,,,,
,1.69,,,,,,,,,k,purple,5ee2c239f4ec4b804a79cf80,2021-09-27_14h08.05.439,forced_choiceRT_color,2021.2.3,MacIntel,59.97361161,,,,,,,,5,Ontime,long,k,1,2.0142,3,1,13,3,1,,,,,
,1.98,,,,,,,,,k,purple,5ee2c239f4ec4b804a79cf80,2021-09-27_14h08.05.439,forced_choiceRT_color,2021.2.3,MacIntel,59.97361161,,,,,,,,5,Ontime,long,f,0,1.9792,3,2,14,3,1,,,,,
,1.09,,,,,,,,,j,red,5ee2c239f4ec4b804a79cf80,2021-09-27_14h08.05.439,forced_choiceRT_color,2021.2.3,MacIntel,59.97361161,,,,,,,,5,Fast,long,d,0,1.8812,3,3,15,2,1,,,,,
,1.95,,,,,,,,,j,red,5ee2c239f4ec4b804a79cf80,2021-09-27_14h08.05.439,forced_choiceRT_color,2021.2.3,MacIntel,59.97361161,,,,,,,,5,Slow,long,f,0,2.8113,4,0,16,2,1,,,,,
,0.11,,,,,,,,,f,blue,5ee2c239f4ec4b804a79cf80,2021-09-27_14h08.05.439,forced_choiceRT_color,2021.2.3,MacIntel,59.97361161,,,,,,,,5,Ontime,long,f,1,2.0779,4,1,17,1,1,,,,,
,0.56,,,,,,,,,k,purple,5ee2c239f4ec4b804a79cf80,2021-09-27_14h08.05.439,forced_choiceRT_color,2021.2.3,MacIntel,59.97361161,,,,,,,,5,Fast,long,k,1,1.8138,4,2,18,3,1,,,,,
,0.88,,,,,,,,,d,orange,5ee2c239f4ec4b804a79cf80,2021-09-27_14h08.05.439,forced_choiceRT_color,2021.2.3,MacIntel,59.97361161,,,,,,,,5,Slow,long,d,1,2.1282,4,3,19,0,1,,,,,
,0.74,,,,,,,,,j,red,5ee2c239f4ec4b804a79cf80,2021-09-27_14h08.05.439,forced_choiceRT_color,2021.2.3,MacIntel,59.97361161,,,,,,,,5,Fast,long,d,0,1.8441,5,0,20,2,1,,,,,
,1.41,,,,,,,,,k,purple,5ee2c239f4ec4b804a79cf80,2021-09-27_14h08.05.439,forced_choiceRT_color,2021.2.3,MacIntel,59.97361161,,,,,,,,5,Ontime,long,d,0,2.03,5,1,21,3,1,,,,,
,0.74,,,,,,,,,j,red,5ee2c239f4ec4b804a79cf80,2021-09-27_14h08.05.439,forced_choiceRT_color,2021.2.3,MacIntel,59.97361161,,,,,,,,5,Ontime,long,f,0,2.0094,5,2,22,2,1,,,,,
,1.98,,,,,,,,,d,orange,5ee2c239f4ec4b804a79cf80,2021-09-27_14h08.05.439,forced_choiceRT_color,2021.2.3,MacIntel,59.97361161,,,,,,,,5,Ontime,long,k,0,1.9968,5,3,23,0,1,,,,,
,0.21,,,,,,,,,j,red,5ee2c239f4ec4b804a79cf80,2021-09-27_14h08.05.439,forced_choiceRT_color,2021.2.3,MacIntel,59.97361161,,,,,,,,5,Fast,long,d,0,1.8109,6,0,24,2,1,,,,,
,1.6,,,,,,,,,f,blue,5ee2c239f4ec4b804a79cf80,2021-09-27_14h08.05.439,forced_choiceRT_color,2021.2.3,MacIntel,59.97361161,,,,,,,,5,Slow,long,j,0,2.2438,6,1,25,1,1,,,,,
,0.4,,,,,,,,,k,purple,5ee2c239f4ec4b804a79cf80,2021-09-27_14h08.05.439,forced_choiceRT_color,2021.2.3,MacIntel,59.97361161,,,,,,,,5,Slow,long,k,1,2.1108,6,2,26,3,1,,,,,
,1.39,,,,,,,,,f,blue,5ee2c239f4ec4b804a79cf80,2021-09-27_14h08.05.439,forced_choiceRT_color,2021.2.3,MacIntel,59.97361161,,,,,,,,5,Fast,long,j,0,1.8492,6,3,27,1,1,,,,,
,0.7,,,,,,,,,k,purple,5ee2c239f4ec4b804a79cf80,2021-09-27_14h08.05.439,forced_choiceRT_color,2021.2.3,MacIntel,59.97361161,,,,,,,,5,Ontime,long,k,1,2.0786,7,0,28,3,1,,,,,
,1.76,,,,,,,,,j,red,5ee2c239f4ec4b804a79cf80,2021-09-27_14h08.05.439,forced_choiceRT_color,2021.2.3,MacIntel,59.97361161,,,,,,,,5,Fast,long,j,1,1.8288,7,1,29,2,1,,,,,
,1.62,,,,,,,,,k,purple,5ee2c239f4ec4b804a79cf80,2021-09-27_14h08.05.439,forced_choiceRT_color,2021.2.3,MacIntel,59.97361161,,,,,,,,5,Ontime,long,f,0,1.9749,7,2,30,3,1,,,,,
,0.28,,,,,,,,,f,blue,5ee2c239f4ec4b804a79cf80,2021-09-27_14h08.05.439,forced_choiceRT_color,2021.2.3,MacIntel,59.97361161,,,,,,,,5,Slow,long,k,0,2.1858,7,3,31,1,1,,,,,
,1.16,,,,,,,,,d,orange,5ee2c239f4ec4b804a79cf80,2021-09-27_14h08.05.439,forced_choiceRT_color,2021.2.3,MacIntel,59.97361161,,,,,,,,5,Ontime,long,d,1,1.963,8,0,32,0,1,,,,,
,0.23,,,,,,,,,f,blue,5ee2c239f4ec4b804a79cf80,2021-09-27_14h08.05.439,forced_choiceRT_color,2021.2.3,MacIntel,59.97361161,,,,,,,,5,Ontime,long,j,0,2.0604,8,1,33,1,1,,,,,
,1.34,,,,,,,,,f,blue,5ee2c239f4ec4b804a79cf80,2021-09-27_14h08.05.439,forced_choiceRT_color,2021.2.3,MacIntel,59.97361161,,,,,,,,5,Slow,long,j,0,2.6594,8,2,34,1,1,,,,,
,0.34,,,,,,,,,d,orange,5ee2c239f4ec4b804a79cf80,2021-09-27_14h08.05.439,forced_choiceRT_color,2021.2.3,MacIntel,59.97361161,,,,,,,,5,Ontime,long,d,1,2.0291,8,3,35,0,1,,,,,
,0.99,,,,,,,,,k,purple,5ee2c239f4ec4b804a79cf80,2021-09-27_14h08.05.439,forced_choiceRT_color,2021.2.3,MacIntel,59.97361161,,,,,,,,5,Slow,long,k,1,2.3615,9,0,36,3,1,,,,,
,0.75,,,,,,,,,j,red,5ee2c239f4ec4b804a79cf80,2021-09-27_14h08.05.439,forced_choiceRT_color,2021.2.3,MacIntel,59.97361161,,,,,,,,5,Fast,long,f,0,1.8105,9,1,37,2,1,,,,,
,1.29,,,,,,,,,j,red,5ee2c239f4ec4b804a79cf80,2021-09-27_14h08.05.439,forced_choiceRT_color,2021.2.3,MacIntel,59.97361161,,,,,,,,5,Fast,long,j,1,1.7937,9,2,38,2,1,,,,,
,0.28,,,,,,,,,k,purple,5ee2c239f4ec4b804a79cf80,2021-09-27_14h08.05.439,forced_choiceRT_color,2021.2.3,MacIntel,59.97361161,,,,,,,,5,Ontime,long,k,1,2.0629,9,3,39,3,1,,,,,
,,,,,,,,,,,,5ee2c239f4ec4b804a79cf80,2021-09-27_14h08.05.439,forced_choiceRT_color,2021.2.3,MacIntel,59.97361161,,,,,,,,,,,,,,,,,,,4,0,4,0,1
,0.62,,,,,,,,,d,orange,5ee2c239f4ec4b804a79cf80,2021-09-27_14h08.05.439,forced_choiceRT_color,2021.2.3,MacIntel,59.97361161,,,,,,,,6,Slow,long,d,1,2.101,0,0,0,0,1,,,,,
,0.97,,,,,,,,,j,red,5ee2c239f4ec4b804a79cf80,2021-09-27_14h08.05.439,forced_choiceRT_color,2021.2.3,MacIntel,59.97361161,,,,,,,,6,Slow,long,j,1,2.2086,0,1,1,2,1,,,,,
,1.74,,,,,,,,,j,red,5ee2c239f4ec4b804a79cf80,2021-09-27_14h08.05.439,forced_choiceRT_color,2021.2.3,MacIntel,59.97361161,,,,,,,,6,Ontime,long,k,0,2.029,0,2,2,2,1,,,,,
,1.31,,,,,,,,,f,blue,5ee2c239f4ec4b804a79cf80,2021-09-27_14h08.05.439,forced_choiceRT_color,2021.2.3,MacIntel,59.97361161,,,,,,,,6,Slow,long,k,0,2.5454,0,3,3,1,1,,,,,
,0.29,,,,,,,,,f,blue,5ee2c239f4ec4b804a79cf80,2021-09-27_14h08.05.439,forced_choiceRT_color,2021.2.3,MacIntel,59.97361161,,,,,,,,6,Fast,long,j,0,0.9469,1,0,4,1,1,,,,,
,0.51,,,,,,,,,j,red,5ee2c239f4ec4b804a79cf80,2021-09-27_14h08.05.439,forced_choiceRT_color,2021.2.3,MacIntel,59.97361161,,,,,,,,6,Slow,long,k,0,8.0213,1,1,5,2,1,,,,,
,0.44,,,,,,,,,f,blue,5ee2c239f4ec4b804a79cf80,2021-09-27_14h08.05.439,forced_choiceRT_color,2021.2.3,MacIntel,59.97361161,,,,,,,,6,Slow,long,k,0,2.5341,1,2,6,1,1,,,,,
,1.36,,,,,,,,,f,blue,5ee2c239f4ec4b804a79cf80,2021-09-27_14h08.05.439,forced_choiceRT_color,2021.2.3,MacIntel,59.97361161,,,,,,,,6,Slow,long,j,0,2.1633,1,3,7,1,1,,,,,
,1.23,,,,,,,,,j,red,5ee2c239f4ec4b804a79cf80,2021-09-27_14h08.05.439,forced_choiceRT_color,2021.2.3,MacIntel,59.97361161,,,,,,,,6,Ontime,long,j,1,2.0099,2,0,8,2,1,,,,,
,1.81,,,,,,,,,k,purple,5ee2c239f4ec4b804a79cf80,2021-09-27_14h08.05.439,forced_choiceRT_color,2021.2.3,MacIntel,59.97361161,,,,,,,,6,Slow,long,j,0,2.6961,2,1,9,3,1,,,,,
,1.05,,,,,,,,,k,purple,5ee2c239f4ec4b804a79cf80,2021-09-27_14h08.05.439,forced_choiceRT_color,2021.2.3,MacIntel,59.97361161,,,,,,,,6,Fast,long,k,1,0.8605,2,2,10,3,1,,,,,
,0.04,,,,,,,,,f,blue,5ee2c239f4ec4b804a79cf80,2021-09-27_14h08.05.439,forced_choiceRT_color,2021.2.3,MacIntel,59.97361161,,,,,,,,6,Fast,long,k,0,1.2256,2,3,11,1,1,,,,,
,0.94,,,,,,,,,k,purple,5ee2c239f4ec4b804a79cf80,2021-09-27_14h08.05.439,forced_choiceRT_color,2021.2.3,MacIntel,59.97361161,,,,,,,,6,Fast,long,k,1,1.6618,3,0,12,3,1,,,,,
,0.67,,,,,,,,,k,purple,5ee2c239f4ec4b804a79cf80,2021-09-27_14h08.05.439,forced_choiceRT_color,2021.2.3,MacIntel,59.97361161,,,,,,,,6,Fast,long,k,1,1.6804,3,1,13,3,1,,,,,
,1.88,,,,,,,,,d,orange,5ee2c239f4ec4b804a79cf80,2021-09-27_14h08.05.439,forced_choiceRT_color,2021.2.3,MacIntel,59.97361161,,,,,,,,6,Fast,long,k,0,1.2449,3,2,14,0,1,,,,,
,0.41,,,,,,,,,f,blue,5ee2c239f4ec4b804a79cf80,2021-09-27_14h08.05.439,forced_choiceRT_color,2021.2.3,MacIntel,59.97361161,,,,,,,,6,Fast,long,k,0,1.1283,3,3,15,1,1,,,,,
,0.59,,,,,,,,,d,orange,5ee2c239f4ec4b804a79cf80,2021-09-27_14h08.05.439,forced_choiceRT_color,2021.2.3,MacIntel,59.97361161,,,,,,,,6,Fast,long,k,0,1.47,4,0,16,0,1,,,,,
,0.23,,,,,,,,,j,red,5ee2c239f4ec4b804a79cf80,2021-09-27_14h08.05.439,forced_choiceRT_color,2021.2.3,MacIntel,59.97361161,,,,,,,,6,Fast,long,k,0,0.7106,4,1,17,2,1,,,,,
,1.82,,,,,,,,,k,purple,5ee2c239f4ec4b804a79cf80,2021-09-27_14h08.05.439,forced_choiceRT_color,2021.2.3,MacIntel,59.97361161,,,,,,,,6,Slow,long,d,0,2.1103,4,2,18,3,1,,,,,
,0.56,,,,,,,,,d,orange,5ee2c239f4ec4b804a79cf80,2021-09-27_14h08.05.439,forced_choiceRT_color,2021.2.3,MacIntel,59.97361161,,,,,,,,6,Fast,long,d,1,1.8303,4,3,19,0,1,,,,,
,1.45,,,,,,,,,d,orange,5ee2c239f4ec4b804a79cf80,2021-09-27_14h08.05.439,forced_choiceRT_color,2021.2.3,MacIntel,59.97361161,,,,,,,,6,Slow,long,d,1,2.2116,5,0,20,0,1,,,,,
,1.11,,,,,,,,,j,red,5ee2c239f4ec4b804a79cf80,2021-09-27_14h08.05.439,forced_choiceRT_color,2021.2.3,MacIntel,59.97361161,,,,,,,,6,Fast,long,d,0,1.2296,5,1,21,2,1,,,,,
,1.7,,,,,,,,,d,orange,5ee2c239f4ec4b804a79cf80,2021-09-27_14h08.05.439,forced_choiceRT_color,2021.2.3,MacIntel,59.97361161,,,,,,,,6,Slow,long,f,0,2.1345,5,2,22,0,1,,,,,
,0.65,,,,,,,,,k,purple,5ee2c239f4ec4b804a79cf80,2021-09-27_14h08.05.439,forced_choiceRT_color,2021.2.3,MacIntel,59.97361161,,,,,,,,6,Ontime,long,f,0,2.0433,5,3,23,3,1,,,,,
,0.01,,,,,,,,,j,red,5ee2c239f4ec4b804a79cf80,2021-09-27_14h08.05.439,forced_choiceRT_color,2021.2.3,MacIntel,59.97361161,,,,,,,,6,Slow,long,k,0,2.1767,6,0,24,2,1,,,,,
,0.85,,,,,,,,,d,orange,5ee2c239f4ec4b804a79cf80,2021-09-27_14h08.05.439,forced_choiceRT_color,2021.2.3,MacIntel,59.97361161,,,,,,,,6,Fast,long,j,0,1.4488,6,1,25,0,1,,,,,
,0.98,,,,,,,,,k,purple,5ee2c239f4ec4b804a79cf80,2021-09-27_14h08.05.439,forced_choiceRT_color,2021.2.3,MacIntel,59.97361161,,,,,,,,6,Ontime,long,k,1,1.917,6,2,26,3,1,,,,,
,1.42,,,,,,,,,j,red,5ee2c239f4ec4b804a79cf80,2021-09-27_14h08.05.439,forced_choiceRT_color,2021.2.3,MacIntel,59.97361161,,,,,,,,6,Ontime,long,k,0,2.0804,6,3,27,2,1,,,,,
,1.24,,,,,,,,,f,blue,5ee2c239f4ec4b804a79cf80,2021-09-27_14h08.05.439,forced_choiceRT_color,2021.2.3,MacIntel,59.97361161,,,,,,,,6,Slow,long,f,1,2.5939,7,0,28,1,1,,,,,
,0.91,,,,,,,,,k,purple,5ee2c239f4ec4b804a79cf80,2021-09-27_14h08.05.439,forced_choiceRT_color,2021.2.3,MacIntel,59.97361161,,,,,,,,6,Slow,long,f,0,4.5761,7,1,29,3,1,,,,,
,1.36,,,,,,,,,j,red,5ee2c239f4ec4b804a79cf80,2021-09-27_14h08.05.439,forced_choiceRT_color,2021.2.3,MacIntel,59.97361161,,,,,,,,6,Slow,long,j,1,30.645,7,2,30,2,1,,,,,
,0.28,,,,,,,,,d,orange,5ee2c239f4ec4b804a79cf80,2021-09-27_14h08.05.439,forced_choiceRT_color,2021.2.3,MacIntel,59.97361161,,,,,,,,6,Slow,long,d,1,2.1115,7,3,31,0,1,,,,,
,1.57,,,,,,,,,d,orange,5ee2c239f4ec4b804a79cf80,2021-09-27_14h08.05.439,forced_choiceRT_color,2021.2.3,MacIntel,59.97361161,,,,,,,,6,Ontime,long,d,1,2.0186,8,0,32,0,1,,,,,
,1.63,,,,,,,,,j,red,5ee2c239f4ec4b804a79cf80,2021-09-27_14h08.05.439,forced_choiceRT_color,2021.2.3,MacIntel,59.97361161,,,,,,,,6,Slow,long,d,0,2.3993,8,1,33,2,1,,,,,
,0.4,,,,,,,,,f,blue,5ee2c239f4ec4b804a79cf80,2021-09-27_14h08.05.439,forced_choiceRT_color,2021.2.3,MacIntel,59.97361161,,,,,,,,6,Slow,long,f,1,2.3255,8,2,34,1,1,,,,,
,0.41,,,,,,,,,k,purple,5ee2c239f4ec4b804a79cf80,2021-09-27_14h08.05.439,forced_choiceRT_color,2021.2.3,MacIntel,59.97361161,,,,,,,,6,Fast,long,k,1,1.8925,8,3,35,3,1,,,,,
,0.08,,,,,,,,,k,purple,5ee2c239f4ec4b804a79cf80,2021-09-27_14h08.05.439,forced_choiceRT_color,2021.2.3,MacIntel,59.97361161,,,,,,,,6,Fast,long,k,1,1.3068,9,0,36,3,1,,,,,
,0.57,,,,,,,,,f,blue,5ee2c239f4ec4b804a79cf80,2021-09-27_14h08.05.439,forced_choiceRT_color,2021.2.3,MacIntel,59.97361161,,,,,,,,6,Slow,long,f,1,2.129,9,1,37,1,1,,,,,
,0.97,,,,,,,,,d,orange,5ee2c239f4ec4b804a79cf80,2021-09-27_14h08.05.439,forced_choiceRT_color,2021.2.3,MacIntel,59.97361161,,,,,,,,6,Slow,long,d,1,2.3301,9,2,38,0,1,,,,,
,1.7,,,,,,,,,f,blue,5ee2c239f4ec4b804a79cf80,2021-09-27_14h08.05.439,forced_choiceRT_color,2021.2.3,MacIntel,59.97361161,,,,,,,,6,Fast,long,d,0,0.1146,9,3,39,1,1,,,,,
,,,,,,,,,,,,5ee2c239f4ec4b804a79cf80,2021-09-27_14h08.05.439,forced_choiceRT_color,2021.2.3,MacIntel,59.97361161,,,,,,,,,,,,,,,,,,,5,0,5,0,1
,0.28,,,,,,,,,k,purple,5ee2c239f4ec4b804a79cf80,2021-09-27_14h08.05.439,forced_choiceRT_color,2021.2.3,MacIntel,59.97361161,,,,,,,,7,Fast,long,k,1,1.8091,0,0,0,3,1,,,,,
,1.55,,,,,,,,,k,purple,5ee2c239f4ec4b804a79cf80,2021-09-27_14h08.05.439,forced_choiceRT_color,2021.2.3,MacIntel,59.97361161,,,,,,,,7,Slow,long,k,1,2.1815,0,1,1,3,1,,,,,
,1.63,,,,,,,,,f,blue,5ee2c239f4ec4b804a79cf80,2021-09-27_14h08.05.439,forced_choiceRT_color,2021.2.3,MacIntel,59.97361161,,,,,,,,7,Slow,long,j,0,2.277,0,2,2,1,1,,,,,
,1.66,,,,,,,,,d,orange,5ee2c239f4ec4b804a79cf80,2021-09-27_14h08.05.439,forced_choiceRT_color,2021.2.3,MacIntel,59.97361161,,,,,,,,7,Slow,long,d,1,3.0964,0,3,3,0,1,,,,,
,1.95,,,,,,,,,f,blue,5ee2c239f4ec4b804a79cf80,2021-09-27_14h08.05.439,forced_choiceRT_color,2021.2.3,MacIntel,59.97361161,,,,,,,,7,Slow,long,f,1,2.2466,1,0,4,1,1,,,,,
,0.57,,,,,,,,,k,purple,5ee2c239f4ec4b804a79cf80,2021-09-27_14h08.05.439,forced_choiceRT_color,2021.2.3,MacIntel,59.97361161,,,,,,,,7,Fast,long,k,1,1.0654,1,1,5,3,1,,,,,
,1,,,,,,,,,k,purple,5ee2c239f4ec4b804a79cf80,2021-09-27_14h08.05.439,forced_choiceRT_color,2021.2.3,MacIntel,59.97361161,,,,,,,,7,Slow,long,k,1,2.2187,1,2,6,3,1,,,,,
,0.59,,,,,,,,,d,orange,5ee2c239f4ec4b804a79cf80,2021-09-27_14h08.05.439,forced_choiceRT_color,2021.2.3,MacIntel,59.97361161,,,,,,,,7,Fast,long,k,0,0.0007,1,3,7,0,1,,,,,
,1.09,,,,,,,,,k,purple,5ee2c239f4ec4b804a79cf80,2021-09-27_14h08.05.439,forced_choiceRT_color,2021.2.3,MacIntel,59.97361161,,,,,,,,7,Fast,long,k,1,0.7578,2,0,8,3,1,,,,,
,1.29,,,,,,,,,j,red,5ee2c239f4ec4b804a79cf80,2021-09-27_14h08.05.439,forced_choiceRT_color,2021.2.3,MacIntel,59.97361161,,,,,,,,7,Fast,long,k,0,1.8001,2,1,9,2,1,,,,,
,0.05,,,,,,,,,j,red,5ee2c239f4ec4b804a79cf80,2021-09-27_14h08.05.439,forced_choiceRT_color,2021.2.3,MacIntel,59.97361161,,,,,,,,7,Ontime,long,f,0,2.0274,2,2,10,2,1,,,,,
,1.53,,,,,,,,,f,blue,5ee2c239f4ec4b804a79cf80,2021-09-27_14h08.05.439,forced_choiceRT_color,2021.2.3,MacIntel,59.97361161,,,,,,,,7,Slow,long,f,1,2.4933,2,3,11,1,1,,,,,
,1.73,,,,,,,,,d,orange,5ee2c239f4ec4b804a79cf80,2021-09-27_14h08.05.439,forced_choiceRT_color,2021.2.3,MacIntel,59.97361161,,,,,,,,7,Ontime,long,k,0,2.0609,3,0,12,0,1,,,,,
,0.26,,,,,,,,,d,orange,5ee2c239f4ec4b804a79cf80,2021-09-27_14h08.05.439,forced_choiceRT_color,2021.2.3,MacIntel,59.97361161,,,,,,,,7,Slow,long,d,1,2.2617,3,1,13,0,1,,,,,
,1.4,,,,,,,,,f,blue,5ee2c239f4ec4b804a79cf80,2021-09-27_14h08.05.439,forced_choiceRT_color,2021.2.3,MacIntel,59.97361161,,,,,,,,7,Fast,long,d,0,1.7611,3,2,14,1,1,,,,,
,0.59,,,,,,,,,j,red,5ee2c239f4ec4b804a79cf80,2021-09-27_14h08.05.439,forced_choiceRT_color,2021.2.3,MacIntel,59.97361161,,,,,,,,7,Fast,long,d,0,0.6284,3,3,15,2,1,,,,,
,1.29,,,,,,,,,j,red,5ee2c239f4ec4b804a79cf80,2021-09-27_14h08.05.439,forced_choiceRT_color,2021.2.3,MacIntel,59.97361161,,,,,,,,7,Slow,long,d,0,2.1614,4,0,16,2,1,,,,,
,1.92,,,,,,,,,j,red,5ee2c239f4ec4b804a79cf80,2021-09-27_14h08.05.439,forced_choiceRT_color,2021.2.3,MacIntel,59.97361161,,,,,,,,7,Fast,long,f,0,1.7795,4,1,17,2,1,,,,,
,1.06,,,,,,,,,d,orange,5ee2c239f4ec4b804a79cf80,2021-09-27_14h08.05.439,forced_choiceRT_color,2021.2.3,MacIntel,59.97361161,,,,,,,,7,Fast,long,j,0,1.577,4,2,18,0,1,,,,,
,0.02,,,,,,,,,k,purple,5ee2c239f4ec4b804a79cf80,2021-09-27_14h08.05.439,forced_choiceRT_color,2021.2.3,MacIntel,59.97361161,,,,,,,,7,Fast,long,k,1,1.347,4,3,19,3,1,,,,,
,1.23,,,,,,,,,j,red,5ee2c239f4ec4b804a79cf80,2021-09-27_14h08.05.439,forced_choiceRT_color,2021.2.3,MacIntel,59.97361161,,,,,,,,7,Slow,long,d,0,2.3871,5,0,20,2,1,,,,,
,0.46,,,,,,,,,d,orange,5ee2c239f4ec4b804a79cf80,2021-09-27_14h08.05.439,forced_choiceRT_color,2021.2.3,MacIntel,59.97361161,,,,,,,,7,Ontime,long,d,1,2.0698,5,1,21,0,1,,,,,
,1.76,,,,,,,,,k,purple,5ee2c239f4ec4b804a79cf80,2021-09-27_14h08.05.439,forced_choiceRT_color,2021.2.3,MacIntel,59.97361161,,,,,,,,7,Ontime,long,f,0,2.0455,5,2,22,3,1,,,,,
,1.43,,,,,,,,,f,blue,5ee2c239f4ec4b804a79cf80,2021-09-27_14h08.05.439,forced_choiceRT_color,2021.2.3,MacIntel,59.97361161,,,,,,,,7,Slow,long,j,0,2.2912,5,3,23,1,1,,,,,
,0.77,,,,,,,,,d,orange,5ee2c239f4ec4b804a79cf80,2021-09-27_14h08.05.439,forced_choiceRT_color,2021.2.3,MacIntel,59.97361161,,,,,,,,7,Fast,long,d,1,1.79,6,0,24,0,1,,,,,
,1.77,,,,,,,,,f,blue,5ee2c239f4ec4b804a79cf80,2021-09-27_14h08.05.439,forced_choiceRT_color,2021.2.3,MacIntel,59.97361161,,,,,,,,7,Ontime,long,d,0,2.027,6,1,25,1,1,,,,,
,0.46,,,,,,,,,j,red,5ee2c239f4ec4b804a79cf80,2021-09-27_14h08.05.439,forced_choiceRT_color,2021.2.3,MacIntel,59.97361161,,,,,,,,7,Slow,long,j,1,2.1427,6,2,26,2,1,,,,,
,0.86,,,,,,,,,k,purple,5ee2c239f4ec4b804a79cf80,2021-09-27_14h08.05.439,forced_choiceRT_color,2021.2.3,MacIntel,59.97361161,,,,,,,,7,Slow,long,k,1,2.1121,6,3,27,3,1,,,,,
,0.93,,,,,,,,,j,red,5ee2c239f4ec4b804a79cf80,2021-09-27_14h08.05.439,forced_choiceRT_color,2021.2.3,MacIntel,59.97361161,,,,,,,,7,Ontime,long,f,0,2.0601,7,0,28,2,1,,,,,
,0.54,,,,,,,,,k,purple,5ee2c239f4ec4b804a79cf80,2021-09-27_14h08.05.439,forced_choiceRT_color,2021.2.3,MacIntel,59.97361161,,,,,,,,7,Slow,long,k,1,2.1301,7,1,29,3,1,,,,,
,0.43,,,,,,,,,f,blue,5ee2c239f4ec4b804a79cf80,2021-09-27_14h08.05.439,forced_choiceRT_color,2021.2.3,MacIntel,59.97361161,,,,,,,,7,Slow,long,f,1,2.1599,7,2,30,1,1,,,,,
,0.39,,,,,,,,,d,orange,5ee2c239f4ec4b804a79cf80,2021-09-27_14h08.05.439,forced_choiceRT_color,2021.2.3,MacIntel,59.97361161,,,,,,,,7,Ontime,long,d,1,1.9605,7,3,31,0,1,,,,,
,0.1,,,,,,,,,f,blue,5ee2c239f4ec4b804a79cf80,2021-09-27_14h08.05.439,forced_choiceRT_color,2021.2.3,MacIntel,59.97361161,,,,,,,,7,Slow,long,f,1,2.1459,8,0,32,1,1,,,,,
,0.54,,,,,,,,,j,red,5ee2c239f4ec4b804a79cf80,2021-09-27_14h08.05.439,forced_choiceRT_color,2021.2.3,MacIntel,59.97361161,,,,,,,,7,Ontime,long,j,1,2.0276,8,1,33,2,1,,,,,
,0.21,,,,,,,,,f,blue,5ee2c239f4ec4b804a79cf80,2021-09-27_14h08.05.439,forced_choiceRT_color,2021.2.3,MacIntel,59.97361161,,,,,,,,7,Ontime,long,f,1,1.9966,8,2,34,1,1,,,,,
,1.12,,,,,,,,,j,red,5ee2c239f4ec4b804a79cf80,2021-09-27_14h08.05.439,forced_choiceRT_color,2021.2.3,MacIntel,59.97361161,,,,,,,,7,Ontime,long,f,0,2.0771,8,3,35,2,1,,,,,
,0.41,,,,,,,,,d,orange,5ee2c239f4ec4b804a79cf80,2021-09-27_14h08.05.439,forced_choiceRT_color,2021.2.3,MacIntel,59.97361161,,,,,,,,7,Ontime,long,d,1,1.9777,9,0,36,0,1,,,,,
,1.86,,,,,,,,,f,blue,5ee2c239f4ec4b804a79cf80,2021-09-27_14h08.05.439,forced_choiceRT_color,2021.2.3,MacIntel,59.97361161,,,,,,,,7,Slow,long,d,0,2.1609,9,1,37,1,1,,,,,
,1.73,,,,,,,,,d,orange,5ee2c239f4ec4b804a79cf80,2021-09-27_14h08.05.439,forced_choiceRT_color,2021.2.3,MacIntel,59.97361161,,,,,,,,7,Slow,long,f,0,2.1599,9,2,38,0,1,,,,,
,0.32,,,,,,,,,k,purple,5ee2c239f4ec4b804a79cf80,2021-09-27_14h08.05.439,forced_choiceRT_color,2021.2.3,MacIntel,59.97361161,,,,,,,,7,Ontime,long,k,1,2.0767,9,3,39,3,1,,,,,
,,,,,,,,,,,,5ee2c239f4ec4b804a79cf80,2021-09-27_14h08.05.439,forced_choiceRT_color,2021.2.3,MacIntel,59.97361161,,,,,,,,,,,,,,,,,,,6,0,6,0,1
,1.99,,,,,,,,,f,blue,5ee2c239f4ec4b804a79cf80,2021-09-27_14h08.05.439,forced_choiceRT_color,2021.2.3,MacIntel,59.97361161,,,,,,,,8,Slow,long,f,1,2.4759,0,0,0,1,1,,,,,
,1.35,,,,,,,,,k,purple,5ee2c239f4ec4b804a79cf80,2021-09-27_14h08.05.439,forced_choiceRT_color,2021.2.3,MacIntel,59.97361161,,,,,,,,8,Slow,long,k,1,2.1097,0,1,1,3,1,,,,,
,1.68,,,,,,,,,d,orange,5ee2c239f4ec4b804a79cf80,2021-09-27_14h08.05.439,forced_choiceRT_color,2021.2.3,MacIntel,59.97361161,,,,,,,,8,Ontime,long,d,1,1.9921,0,2,2,0,1,,,,,
,1.63,,,,,,,,,j,red,5ee2c239f4ec4b804a79cf80,2021-09-27_14h08.05.439,forced_choiceRT_color,2021.2.3,MacIntel,59.97361161,,,,,,,,8,Slow,long,f,0,2.263,0,3,3,2,1,,,,,
,1.44,,,,,,,,,d,orange,5ee2c239f4ec4b804a79cf80,2021-09-27_14h08.05.439,forced_choiceRT_color,2021.2.3,MacIntel,59.97361161,,,,,,,,8,Fast,long,j,0,1.859,1,0,4,0,1,,,,,
,0.81,,,,,,,,,k,purple,5ee2c239f4ec4b804a79cf80,2021-09-27_14h08.05.439,forced_choiceRT_color,2021.2.3,MacIntel,59.97361161,,,,,,,,8,Fast,long,k,1,1.7432,1,1,5,3,1,,,,,
,1.26,,,,,,,,,d,orange,5ee2c239f4ec4b804a79cf80,2021-09-27_14h08.05.439,forced_choiceRT_color,2021.2.3,MacIntel,59.97361161,,,,,,,,8,Fast,long,j,0,1.3625,1,2,6,0,1,,,,,
,0.65,,,,,,,,,k,purple,5ee2c239f4ec4b804a79cf80,2021-09-27_14h08.05.439,forced_choiceRT_color,2021.2.3,MacIntel,59.97361161,,,,,,,,8,Ontime,long,k,1,2.0367,1,3,7,3,1,,,,,
,1.7,,,,,,,,,d,orange,5ee2c239f4ec4b804a79cf80,2021-09-27_14h08.05.439,forced_choiceRT_color,2021.2.3,MacIntel,59.97361161,,,,,,,,8,Slow,long,f,0,2.1805,2,0,8,0,1,,,,,
,0.76,,,,,,,,,k,purple,5ee2c239f4ec4b804a79cf80,2021-09-27_14h08.05.439,forced_choiceRT_color,2021.2.3,MacIntel,59.97361161,,,,,,,,8,Ontime,long,k,1,2.0114,2,1,9,3,1,,,,,
,1.53,,,,,,,,,j,red,5ee2c239f4ec4b804a79cf80,2021-09-27_14h08.05.439,forced_choiceRT_color,2021.2.3,MacIntel,59.97361161,,,,,,,,8,Ontime,long,k,0,1.9328,2,2,10,2,1,,,,,
,1.93,,,,,,,,,k,purple,5ee2c239f4ec4b804a79cf80,2021-09-27_14h08.05.439,forced_choiceRT_color,2021.2.3,MacIntel,59.97361161,,,,,,,,8,Slow,long,k,1,2.244,2,3,11,3,1,,,,,
,0.65,,,,,,,,,k,purple,5ee2c239f4ec4b804a79cf80,2021-09-27_14h08.05.439,forced_choiceRT_color,2021.2.3,MacIntel,59.97361161,,,,,,,,8,Fast,long,k,1,1.1435,3,0,12,3,1,,,,,
,1.66,,,,,,,,,j,red,5ee2c239f4ec4b804a79cf80,2021-09-27_14h08.05.439,forced_choiceRT_color,2021.2.3,MacIntel,59.97361161,,,,,,,,8,Ontime,long,j,1,2.0608,3,1,13,2,1,,,,,
,1.81,,,,,,,,,d,orange,5ee2c239f4ec4b804a79cf80,2021-09-27_14h08.05.439,forced_choiceRT_color,2021.2.3,MacIntel,59.97361161,,,,,,,,8,Slow,long,j,0,2.3448,3,2,14,0,1,,,,,
,1.7,,,,,,,,,k,purple,5ee2c239f4ec4b804a79cf80,2021-09-27_14h08.05.439,forced_choiceRT_color,2021.2.3,MacIntel,59.97361161,,,,,,,,8,Slow,long,j,0,2.1155,3,3,15,3,1,,,,,
,0.29,,,,,,,,,f,blue,5ee2c239f4ec4b804a79cf80,2021-09-27_14h08.05.439,forced_choiceRT_color,2021.2.3,MacIntel,59.97361161,,,,,,,,8,Fast,long,k,0,1.1642,4,0,16,1,1,,,,,
,0.37,,,,,,,,,f,blue,5ee2c239f4ec4b804a79cf80,2021-09-27_14h08.05.439,forced_choiceRT_color,2021.2.3,MacIntel,59.97361161,,,,,,,,8,Fast,long,j,0,1.8142,4,1,17,1,1,,,,,
,0.2,,,,,,,,,k,purple,5ee2c239f4ec4b804a79cf80,2021-09-27_14h08.05.439,forced_choiceRT_color,2021.2.3,MacIntel,59.97361161,,,,,,,,8,Slow,long,k,1,2.1121,4,2,18,3,1,,,,,
,1.66,,,,,,,,,d,orange,5ee2c239f4ec4b804a79cf80,2021-09-27_14h08.05.439,forced_choiceRT_color,2021.2.3,MacIntel,59.97361161,,,,,,,,8,Slow,long,k,0,2.1286,4,3,19,0,1,,,,,
,0.23,,,,,,,,,j,red,5ee2c239f4ec4b804a79cf80,2021-09-27_14h08.05.439,forced_choiceRT_color,2021.2.3,MacIntel,59.97361161,,,,,,,,8,Slow,long,j,1,2.1295,5,0,20,2,1,,,,,
,1.98,,,,,,,,,f,blue,5ee2c239f4ec4b804a79cf80,2021-09-27_14h08.05.439,forced_choiceRT_color,2021.2.3,MacIntel,59.97361161,,,,,,,,8,Ontime,long,j,0,2.0274,5,1,21,1,1,,,,,
,1,,,,,,,,,d,orange,5ee2c239f4ec4b804a79cf80,2021-09-27_14h08.05.439,forced_choiceRT_color,2021.2.3,MacIntel,59.97361161,,,,,,,,8,Slow,long,d,1,2.2767,5,2,22,0,1,,,,,
,1.05,,,,,,,,,f,blue,5ee2c239f4ec4b804a79cf80,2021-09-27_14h08.05.439,forced_choiceRT_color,2021.2.3,MacIntel,59.97361161,,,,,,,,8,Ontime,long,k,0,1.9812,5,3,23,1,1,,,,,
,1.12,,,,,,,,,f,blue,5ee2c239f4ec4b804a79cf80,2021-09-27_14h08.05.439,forced_choiceRT_color,2021.2.3,MacIntel,59.97361161,,,,,,,,8,Fast,long,k,0,1.7959,6,0,24,1,1,,,,,
,1.5,,,,,,,,,k,purple,5ee2c239f4ec4b804a79cf80,2021-09-27_14h08.05.439,forced_choiceRT_color,2021.2.3,MacIntel,59.97361161,,,,,,,,8,Ontime,long,j,0,1.9142,6,1,25,3,1,,,,,
,1.2,,,,,,,,,j,red,5ee2c239f4ec4b804a79cf80,2021-09-27_14h08.05.439,forced_choiceRT_color,2021.2.3,MacIntel,59.97361161,,,,,,,,8,Slow,long,j,1,2.3788,6,2,26,2,1,,,,,
,1.24,,,,,,,,,f,blue,5ee2c239f4ec4b804a79cf80,2021-09-27_14h08.05.439,forced_choiceRT_color,2021.2.3,MacIntel,59.97361161,,,,,,,,8,Slow,long,j,0,2.277,6,3,27,1,1,,,,,
,0.41,,,,,,,,,j,red,5ee2c239f4ec4b804a79cf80,2021-09-27_14h08.05.439,forced_choiceRT_color,2021.2.3,MacIntel,59.97361161,,,,,,,,8,Fast,long,j,1,0.4945,7,0,28,2,1,,,,,
,1.24,,,,,,,,,d,orange,5ee2c239f4ec4b804a79cf80,2021-09-27_14h08.05.439,forced_choiceRT_color,2021.2.3,MacIntel,59.97361161,,,,,,,,8,Fast,long,j,0,1.1452,7,1,29,0,1,,,,,
,0.37,,,,,,,,,f,blue,5ee2c239f4ec4b804a79cf80,2021-09-27_14h08.05.439,forced_choiceRT_color,2021.2.3,MacIntel,59.97361161,,,,,,,,8,Fast,long,j,0,1.1109,7,2,30,1,1,,,,,
,0.03,,,,,,,,,k,purple,5ee2c239f4ec4b804a79cf80,2021-09-27_14h08.05.439,forced_choiceRT_color,2021.2.3,MacIntel,59.97361161,,,,,,,,8,Fast,long,k,1,0.9554,7,3,31,3,1,,,,,
,1.67,,,,,,,,,j,red,5ee2c239f4ec4b804a79cf80,2021-09-27_14h08.05.439,forced_choiceRT_color,2021.2.3,MacIntel,59.97361161,,,,,,,,8,Slow,long,k,0,2.3605,8,0,32,2,1,,,,,
,1.97,,,,,,,,,f,blue,5ee2c239f4ec4b804a79cf80,2021-09-27_14h08.05.439,forced_choiceRT_color,2021.2.3,MacIntel,59.97361161,,,,,,,,8,Slow,long,j,0,9.8335,8,1,33,1,1,,,,,
,1.29,,,,,,,,,d,orange,5ee2c239f4ec4b804a79cf80,2021-09-27_14h08.05.439,forced_choiceRT_color,2021.2.3,MacIntel,59.97361161,,,,,,,,8,Slow,long,d,1,2.1446,8,2,34,0,1,,,,,
,1.12,,,,,,,,,j,red,5ee2c239f4ec4b804a79cf80,2021-09-27_14h08.05.439,forced_choiceRT_color,2021.2.3,MacIntel,59.97361161,,,,,,,,8,Ontime,long,f,0,2.0799,8,3,35,2,1,,,,,
,0.05,,,,,,,,,j,red,5ee2c239f4ec4b804a79cf80,2021-09-27_14h08.05.439,forced_choiceRT_color,2021.2.3,MacIntel,59.97361161,,,,,,,,8,Ontime,long,j,1,2.0945,9,0,36,2,1,,,,,
,0.93,,,,,,,,,f,blue,5ee2c239f4ec4b804a79cf80,2021-09-27_14h08.05.439,forced_choiceRT_color,2021.2.3,MacIntel,59.97361161,,,,,,,,8,Slow,long,f,1,2.109,9,1,37,1,1,,,,,
,1.59,,,,,,,,,j,red,5ee2c239f4ec4b804a79cf80,2021-09-27_14h08.05.439,forced_choiceRT_color,2021.2.3,MacIntel,59.97361161,,,,,,,,8,Ontime,long,f,0,2.0448,9,2,38,2,1,,,,,
,1.57,,,,,,,,,d,orange,5ee2c239f4ec4b804a79cf80,2021-09-27_14h08.05.439,forced_choiceRT_color,2021.2.3,MacIntel,59.97361161,,,,,,,,8,Slow,long,f,0,2.4814,9,3,39,0,1,,,,,
,,,,,,,,,,,,5ee2c239f4ec4b804a79cf80,2021-09-27_14h08.05.439,forced_choiceRT_color,2021.2.3,MacIntel,59.97361161,,,,,,,,,,,,,,,,,,,7,0,7,0,1
,0.55,,,,,,,,,k,purple,5ee2c239f4ec4b804a79cf80,2021-09-27_14h08.05.439,forced_choiceRT_color,2021.2.3,MacIntel,59.97361161,,,,,,,,9,Ontime,long,k,1,2.0641,0,0,0,3,1,,,,,
,0.28,,,,,,,,,k,purple,5ee2c239f4ec4b804a79cf80,2021-09-27_14h08.05.439,forced_choiceRT_color,2021.2.3,MacIntel,59.97361161,,,,,,,,9,Slow,long,k,1,2.1636,0,1,1,3,1,,,,,
,1.61,,,,,,,,,d,orange,5ee2c239f4ec4b804a79cf80,2021-09-27_14h08.05.439,forced_choiceRT_color,2021.2.3,MacIntel,59.97361161,,,,,,,,9,Ontime,long,j,0,1.9609,0,2,2,0,1,,,,,
,1.81,,,,,,,,,d,orange,5ee2c239f4ec4b804a79cf80,2021-09-27_14h08.05.439,forced_choiceRT_color,2021.2.3,MacIntel,59.97361161,,,,,,,,9,Slow,long,f,0,2.1902,0,3,3,0,1,,,,,
,1.62,,,,,,,,,j,red,5ee2c239f4ec4b804a79cf80,2021-09-27_14h08.05.439,forced_choiceRT_color,2021.2.3,MacIntel,59.97361161,,,,,,,,9,Slow,long,d,0,2.2338,1,0,4,2,1,,,,,
,1.34,,,,,,,,,f,blue,5ee2c239f4ec4b804a79cf80,2021-09-27_14h08.05.439,forced_choiceRT_color,2021.2.3,MacIntel,59.97361161,,,,,,,,9,Fast,long,j,0,1.7307,1,1,5,1,1,,,,,
,1.92,,,,,,,,,k,purple,5ee2c239f4ec4b804a79cf80,2021-09-27_14h08.05.439,forced_choiceRT_color,2021.2.3,MacIntel,59.97361161,,,,,,,,9,Slow,long,f,0,2.2283,1,2,6,3,1,,,,,
,0.51,,,,,,,,,j,red,5ee2c239f4ec4b804a79cf80,2021-09-27_14h08.05.439,forced_choiceRT_color,2021.2.3,MacIntel,59.97361161,,,,,,,,9,Fast,long,f,0,1.8108,1,3,7,2,1,,,,,
,0.75,,,,,,,,,j,red,5ee2c239f4ec4b804a79cf80,2021-09-27_14h08.05.439,forced_choiceRT_color,2021.2.3,MacIntel,59.97361161,,,,,,,,9,Slow,long,f,0,2.1286,2,0,8,2,1,,,,,
,1.28,,,,,,,,,j,red,5ee2c239f4ec4b804a79cf80,2021-09-27_14h08.05.439,forced_choiceRT_color,2021.2.3,MacIntel,59.97361161,,,,,,,,9,Ontime,long,f,0,1.9294,2,1,9,2,1,,,,,
,1.84,,,,,,,,,f,blue,5ee2c239f4ec4b804a79cf80,2021-09-27_14h08.05.439,forced_choiceRT_color,2021.2.3,MacIntel,59.97361161,,,,,,,,9,Slow,long,k,0,2.1405,2,2,10,1,1,,,,,
,0.67,,,,,,,,,k,purple,5ee2c239f4ec4b804a79cf80,2021-09-27_14h08.05.439,forced_choiceRT_color,2021.2.3,MacIntel,59.97361161,,,,,,,,9,Fast,long,k,1,1.6613,2,3,11,3,1,,,,,
,0.85,,,,,,,,,d,orange,5ee2c239f4ec4b804a79cf80,2021-09-27_14h08.05.439,forced_choiceRT_color,2021.2.3,MacIntel,59.97361161,,,,,,,,9,Fast,long,d,1,1.699,3,0,12,0,1,,,,,
,1.79,,,,,,,,,j,red,5ee2c239f4ec4b804a79cf80,2021-09-27_14h08.05.439,forced_choiceRT_color,2021.2.3,MacIntel,59.97361161,,,,,,,,9,Slow,long,d,0,2.2957,3,1,13,2,1,,,,,
,0.93,,,,,,,,,d,orange,5ee2c239f4ec4b804a79cf80,2021-09-27_14h08.05.439,forced_choiceRT_color,2021.2.3,MacIntel,59.97361161,,,,,,,,9,Ontime,long,d,1,1.9434,3,2,14,0,1,,,,,
,1.27,,,,,,,,,d,orange,5ee2c239f4ec4b804a79cf80,2021-09-27_14h08.05.439,forced_choiceRT_color,2021.2.3,MacIntel,59.97361161,,,,,,,,9,Fast,long,k,0,1.5972,3,3,15,0,1,,,,,
,0.99,,,,,,,,,j,red,5ee2c239f4ec4b804a79cf80,2021-09-27_14h08.05.439,forced_choiceRT_color,2021.2.3,MacIntel,59.97361161,,,,,,,,9,Fast,long,f,0,1.8941,4,0,16,2,1,,,,,
,0.37,,,,,,,,,f,blue,5ee2c239f4ec4b804a79cf80,2021-09-27_14h08.05.439,forced_choiceRT_color,2021.2.3,MacIntel,59.97361161,,,,,,,,9,Fast,long,f,1,1.8667,4,1,17,1,1,,,,,
,1.51,,,,,,,,,k,purple,5ee2c239f4ec4b804a79cf80,2021-09-27_14h08.05.439,forced_choiceRT_color,2021.2.3,MacIntel,59.97361161,,,,,,,,9,Slow,long,k,1,2.125,4,2,18,3,1,,,,,
,0.74,,,,,,,,,k,purple,5ee2c239f4ec4b804a79cf80,2021-09-27_14h08.05.439,forced_choiceRT_color,2021.2.3,MacIntel,59.97361161,,,,,,,,9,Ontime,long,k,1,2.0769,4,3,19,3,1,,,,,
,1.9,,,,,,,,,k,purple,5ee2c239f4ec4b804a79cf80,2021-09-27_14h08.05.439,forced_choiceRT_color,2021.2.3,MacIntel,59.97361161,,,,,,,,9,Slow,long,d,0,2.5281,5,0,20,3,1,,,,,
,0.26,,,,,,,,,f,blue,5ee2c239f4ec4b804a79cf80,2021-09-27_14h08.05.439,forced_choiceRT_color,2021.2.3,MacIntel,59.97361161,,,,,,,,9,Fast,long,f,1,1.7799,5,1,21,1,1,,,,,
,0.15,,,,,,,,,f,blue,5ee2c239f4ec4b804a79cf80,2021-09-27_14h08.05.439,forced_choiceRT_color,2021.2.3,MacIntel,59.97361161,,,,,,,,9,Fast,long,f,1,0.6091,5,2,22,1,1,,,,,
,1.07,,,,,,,,,j,red,5ee2c239f4ec4b804a79cf80,2021-09-27_14h08.05.439,forced_choiceRT_color,2021.2.3,MacIntel,59.97361161,,,,,,,,9,Slow,long,j,1,2.33,5,3,23,2,1,,,,,
,0.78,,,,,,,,,f,blue,5ee2c239f4ec4b804a79cf80,2021-09-27_14h08.05.439,forced_choiceRT_color,2021.2.3,MacIntel,59.97361161,,,,,,,,9,Fast,long,k,0,1.7611,6,0,24,1,1,,,,,
,1.62,,,,,,,,,f,blue,5ee2c239f4ec4b804a79cf80,2021-09-27_14h08.05.439,forced_choiceRT_color,2021.2.3,MacIntel,59.97361161,,,,,,,,9,Slow,long,d,0,2.2784,6,1,25,1,1,,,,,
,1.55,,,,,,,,,d,orange,5ee2c239f4ec4b804a79cf80,2021-09-27_14h08.05.439,forced_choiceRT_color,2021.2.3,MacIntel,59.97361161,,,,,,,,9,Ontime,long,k,0,1.945,6,2,26,0,1,,,,,
,1.32,,,,,,,,,d,orange,5ee2c239f4ec4b804a79cf80,2021-09-27_14h08.05.439,forced_choiceRT_color,2021.2.3,MacIntel,59.97361161,,,,,,,,9,Ontime,long,d,1,2.0937,6,3,27,0,1,,,,,
,1.85,,,,,,,,,d,orange,5ee2c239f4ec4b804a79cf80,2021-09-27_14h08.05.439,forced_choiceRT_color,2021.2.3,MacIntel,59.97361161,,,,,,,,9,Slow,long,k,0,2.5811,7,0,28,0,1,,,,,
,1.33,,,,,,,,,k,purple,5ee2c239f4ec4b804a79cf80,2021-09-27_14h08.05.439,forced_choiceRT_color,2021.2.3,MacIntel,59.97361161,,,,,,,,9,Slow,long,f,0,15.3667,7,1,29,3,1,,,,,
,1.42,,,,,,,,,j,red,5ee2c239f4ec4b804a79cf80,2021-09-27_14h08.05.439,forced_choiceRT_color,2021.2.3,MacIntel,59.97361161,,,,,,,,9,Slow,long,f,0,2.1751,7,2,30,2,1,,,,,
,1.54,,,,,,,,,f,blue,5ee2c239f4ec4b804a79cf80,2021-09-27_14h08.05.439,forced_choiceRT_color,2021.2.3,MacIntel,59.97361161,,,,,,,,9,Fast,long,f,1,0.6252,7,3,31,1,1,,,,,
,1.72,,,,,,,,,j,red,5ee2c239f4ec4b804a79cf80,2021-09-27_14h08.05.439,forced_choiceRT_color,2021.2.3,MacIntel,59.97361161,,,,,,,,9,Ontime,long,d,0,2.0015,8,0,32,2,1,,,,,
,1.5,,,,,,,,,k,purple,5ee2c239f4ec4b804a79cf80,2021-09-27_14h08.05.439,forced_choiceRT_color,2021.2.3,MacIntel,59.97361161,,,,,,,,9,Slow,long,k,1,2.3478,8,1,33,3,1,,,,,
,1.71,,,,,,,,,k,purple,5ee2c239f4ec4b804a79cf80,2021-09-27_14h08.05.439,forced_choiceRT_color,2021.2.3,MacIntel,59.97361161,,,,,,,,9,Ontime,long,k,1,2.0595,8,2,34,3,1,,,,,
,1.66,,,,,,,,,d,orange,5ee2c239f4ec4b804a79cf80,2021-09-27_14h08.05.439,forced_choiceRT_color,2021.2.3,MacIntel,59.97361161,,,,,,,,9,Slow,long,k,0,2.2943,8,3,35,0,1,,,,,
,0.43,,,,,,,,,j,red,5ee2c239f4ec4b804a79cf80,2021-09-27_14h08.05.439,forced_choiceRT_color,2021.2.3,MacIntel,59.97361161,,,,,,,,9,Fast,long,f,0,1.596,9,0,36,2,1,,,,,
,0.45,,,,,,,,,f,blue,5ee2c239f4ec4b804a79cf80,2021-09-27_14h08.05.439,forced_choiceRT_color,2021.2.3,MacIntel,59.97361161,,,,,,,,9,Fast,long,f,1,0.9581,9,1,37,1,1,,,,,
,0.24,,,,,,,,,f,blue,5ee2c239f4ec4b804a79cf80,2021-09-27_14h08.05.439,forced_choiceRT_color,2021.2.3,MacIntel,59.97361161,,,,,,,,9,Slow,long,f,1,6.1147,9,2,38,1,1,,,,,
,1.61,,,,,,,,,d,orange,5ee2c239f4ec4b804a79cf80,2021-09-27_14h08.05.439,forced_choiceRT_color,2021.2.3,MacIntel,59.97361161,,,,,,,,9,Slow,long,d,1,2.2622,9,3,39,0,1,,,,,
,,,,,,,,,,,,5ee2c239f4ec4b804a79cf80,2021-09-27_14h08.05.439,forced_choiceRT_color,2021.2.3,MacIntel,59.97361161,,,,,,,,,,,,,,,,,,,8,0,8,0,1
,1.6,,,,,,,,,d,orange,5ee2c239f4ec4b804a79cf80,2021-09-27_14h08.05.439,forced_choiceRT_color,2021.2.3,MacIntel,59.97361161,,,,,,,,10,Slow,long,d,1,2.153,0,0,0,0,1,,,,,
,0.1,,,,,,,,,d,orange,5ee2c239f4ec4b804a79cf80,2021-09-27_14h08.05.439,forced_choiceRT_color,2021.2.3,MacIntel,59.97361161,,,,,,,,10,Slow,long,d,1,2.1487,0,1,1,0,1,,,,,
,1.73,,,,,,,,,j,red,5ee2c239f4ec4b804a79cf80,2021-09-27_14h08.05.439,forced_choiceRT_color,2021.2.3,MacIntel,59.97361161,,,,,,,,10,Slow,long,d,0,2.1099,0,2,2,2,1,,,,,
,1.94,,,,,,,,,d,orange,5ee2c239f4ec4b804a79cf80,2021-09-27_14h08.05.439,forced_choiceRT_color,2021.2.3,MacIntel,59.97361161,,,,,,,,10,Fast,long,d,1,0.5304,0,3,3,0,1,,,,,
,0.34,,,,,,,,,k,purple,5ee2c239f4ec4b804a79cf80,2021-09-27_14h08.05.439,forced_choiceRT_color,2021.2.3,MacIntel,59.97361161,,,,,,,,10,Fast,long,k,1,1.7929,1,0,4,3,1,,,,,
,1.25,,,,,,,,,f,blue,5ee2c239f4ec4b804a79cf80,2021-09-27_14h08.05.439,forced_choiceRT_color,2021.2.3,MacIntel,59.97361161,,,,,,,,10,Slow,long,f,1,2.1779,1,1,5,1,1,,,,,
,0.88,,,,,,,,,d,orange,5ee2c239f4ec4b804a79cf80,2021-09-27_14h08.05.439,forced_choiceRT_color,2021.2.3,MacIntel,59.97361161,,,,,,,,10,Fast,long,f,0,0.0011,1,2,6,0,1,,,,,
,1.52,,,,,,,,,j,red,5ee2c239f4ec4b804a79cf80,2021-09-27_14h08.05.439,forced_choiceRT_color,2021.2.3,MacIntel,59.97361161,,,,,,,,10,Ontime,long,f,0,2.0581,1,3,7,2,1,,,,,
,0.07,,,,,,,,,d,orange,5ee2c239f4ec4b804a79cf80,2021-09-27_14h08.05.439,forced_choiceRT_color,2021.2.3,MacIntel,59.97361161,,,,,,,,10,Fast,long,f,0,0.8101,2,0,8,0,1,,,,,
,1.01,,,,,,,,,f,blue,5ee2c239f4ec4b804a79cf80,2021-09-27_14h08.05.439,forced_choiceRT_color,2021.2.3,MacIntel,59.97361161,,,,,,,,10,Fast,long,f,1,0.0515,2,1,9,1,1,,,,,
,0.3,,,,,,,,,f,blue,5ee2c239f4ec4b804a79cf80,2021-09-27_14h08.05.439,forced_choiceRT_color,2021.2.3,MacIntel,59.97361161,,,,,,,,10,Slow,long,f,1,2.5813,2,2,10,1,1,,,,,
,1.54,,,,,,,,,k,purple,5ee2c239f4ec4b804a79cf80,2021-09-27_14h08.05.439,forced_choiceRT_color,2021.2.3,MacIntel,59.97361161,,,,,,,,10,Slow,long,k,1,2.2776,2,3,11,3,1,,,,,
,1.25,,,,,,,,,k,purple,5ee2c239f4ec4b804a79cf80,2021-09-27_14h08.05.439,forced_choiceRT_color,2021.2.3,MacIntel,59.97361161,,,,,,,,10,Fast,long,k,1,1.1954,3,0,12,3,1,,,,,
,1.36,,,,,,,,,f,blue,5ee2c239f4ec4b804a79cf80,2021-09-27_14h08.05.439,forced_choiceRT_color,2021.2.3,MacIntel,59.97361161,,,,,,,,10,Ontime,long,k,0,1.9626,3,1,13,1,1,,,,,
,0.14,,,,,,,,,f,blue,5ee2c239f4ec4b804a79cf80,2021-09-27_14h08.05.439,forced_choiceRT_color,2021.2.3,MacIntel,59.97361161,,,,,,,,10,Fast,long,k,0,1.4436,3,2,14,1,1,,,,,
,1.66,,,,,,,,,d,orange,5ee2c239f4ec4b804a79cf80,2021-09-27_14h08.05.439,forced_choiceRT_color,2021.2.3,MacIntel,59.97361161,,,,,,,,10,Fast,long,f,0,1.6447,3,3,15,0,1,,,,,
,1.39,,,,,,,,,j,red,5ee2c239f4ec4b804a79cf80,2021-09-27_14h08.05.439,forced_choiceRT_color,2021.2.3,MacIntel,59.97361161,,,,,,,,10,Ontime,long,d,0,1.9971,4,0,16,2,1,,,,,
,0.01,,,,,,,,,k,purple,5ee2c239f4ec4b804a79cf80,2021-09-27_14h08.05.439,forced_choiceRT_color,2021.2.3,MacIntel,59.97361161,,,,,,,,10,Ontime,long,k,1,2.0773,4,1,17,3,1,,,,,
,1.48,,,,,,,,,k,purple,5ee2c239f4ec4b804a79cf80,2021-09-27_14h08.05.439,forced_choiceRT_color,2021.2.3,MacIntel,59.97361161,,,,,,,,10,Slow,long,k,1,2.228,4,2,18,3,1,,,,,
,1.84,,,,,,,,,j,red,5ee2c239f4ec4b804a79cf80,2021-09-27_14h08.05.439,forced_choiceRT_color,2021.2.3,MacIntel,59.97361161,,,,,,,,10,Slow,long,k,0,2.1077,4,3,19,2,1,,,,,
,0.01,,,,,,,,,d,orange,5ee2c239f4ec4b804a79cf80,2021-09-27_14h08.05.439,forced_choiceRT_color,2021.2.3,MacIntel,59.97361161,,,,,,,,10,Ontime,long,d,1,1.9448,5,0,20,0,1,,,,,
,1.52,,,,,,,,,d,orange,5ee2c239f4ec4b804a79cf80,2021-09-27_14h08.05.439,forced_choiceRT_color,2021.2.3,MacIntel,59.97361161,,,,,,,,10,Slow,long,d,1,2.3474,5,1,21,0,1,,,,,
,0.57,,,,,,,,,k,purple,5ee2c239f4ec4b804a79cf80,2021-09-27_14h08.05.439,forced_choiceRT_color,2021.2.3,MacIntel,59.97361161,,,,,,,,10,Slow,long,k,1,2.211,5,2,22,3,1,,,,,
,1.61,,,,,,,,,k,purple,5ee2c239f4ec4b804a79cf80,2021-09-27_14h08.05.439,forced_choiceRT_color,2021.2.3,MacIntel,59.97361161,,,,,,,,10,Slow,long,k,1,2.3968,5,3,23,3,1,,,,,
,1.11,,,,,,,,,j,red,5ee2c239f4ec4b804a79cf80,2021-09-27_14h08.05.439,forced_choiceRT_color,2021.2.3,MacIntel,59.97361161,,,,,,,,10,Fast,long,d,0,1.8951,6,0,24,2,1,,,,,
,1.26,,,,,,,,,j,red,5ee2c239f4ec4b804a79cf80,2021-09-27_14h08.05.439,forced_choiceRT_color,2021.2.3,MacIntel,59.97361161,,,,,,,,10,Fast,long,d,0,0.6895,6,1,25,2,1,,,,,
,0.26,,,,,,,,,j,red,5ee2c239f4ec4b804a79cf80,2021-09-27_14h08.05.439,forced_choiceRT_color,2021.2.3,MacIntel,59.97361161,,,,,,,,10,Fast,long,f,0,1.6997,6,2,26,2,1,,,,,
,1.9,,,,,,,,,f,blue,5ee2c239f4ec4b804a79cf80,2021-09-27_14h08.05.439,forced_choiceRT_color,2021.2.3,MacIntel,59.97361161,,,,,,,,10,Slow,long,f,1,2.2626,6,3,27,1,1,,,,,
,0.05,,,,,,,,,f,blue,5ee2c239f4ec4b804a79cf80,2021-09-27_14h08.05.439,forced_choiceRT_color,2021.2.3,MacIntel,59.97361161,,,,,,,,10,Ontime,long,f,1,1.9764,7,0,28,1,1,,,,,
,0.33,,,,,,,,,j,red,5ee2c239f4ec4b804a79cf80,2021-09-27_14h08.05.439,forced_choiceRT_color,2021.2.3,MacIntel,59.97361161,,,,,,,,10,Slow,long,d,0,2.263,7,1,29,2,1,,,,,
,0.54,,,,,,,,,k,purple,5ee2c239f4ec4b804a79cf80,2021-09-27_14h08.05.439,forced_choiceRT_color,2021.2.3,MacIntel,59.97361161,,,,,,,,10,Ontime,long,k,1,1.9759,7,2,30,3,1,,,,,
,1.57,,,,,,,,,f,blue,5ee2c239f4ec4b804a79cf80,2021-09-27_14h08.05.439,forced_choiceRT_color,2021.2.3,MacIntel,59.97361161,,,,,,,,10,Slow,long,f,1,2.2802,7,3,31,1,1,,,,,
,0.56,,,,,,,,,d,orange,5ee2c239f4ec4b804a79cf80,2021-09-27_14h08.05.439,forced_choiceRT_color,2021.2.3,MacIntel,59.97361161,,,,,,,,10,Slow,long,d,1,2.1763,8,0,32,0,1,,,,,
,1.29,,,,,,,,,f,blue,5ee2c239f4ec4b804a79cf80,2021-09-27_14h08.05.439,forced_choiceRT_color,2021.2.3,MacIntel,59.97361161,,,,,,,,10,Fast,long,f,1,1.8957,8,1,33,1,1,,,,,
,0.86,,,,,,,,,k,purple,5ee2c239f4ec4b804a79cf80,2021-09-27_14h08.05.439,forced_choiceRT_color,2021.2.3,MacIntel,59.97361161,,,,,,,,10,Fast,long,k,1,1.6272,8,2,34,3,1,,,,,
,1.23,,,,,,,,,f,blue,5ee2c239f4ec4b804a79cf80,2021-09-27_14h08.05.439,forced_choiceRT_color,2021.2.3,MacIntel,59.97361161,,,,,,,,10,Ontime,long,f,1,2.0953,8,3,35,1,1,,,,,
,1.7,,,,,,,,,k,purple,5ee2c239f4ec4b804a79cf80,2021-09-27_14h08.05.439,forced_choiceRT_color,2021.2.3,MacIntel,59.97361161,,,,,,,,10,Slow,long,f,0,2.3139,9,0,36,3,1,,,,,
,1.61,,,,,,,,,j,red,5ee2c239f4ec4b804a79cf80,2021-09-27_14h08.05.439,forced_choiceRT_color,2021.2.3,MacIntel,59.97361161,,,,,,,,10,Fast,long,k,0,0.8105,9,1,37,2,1,,,,,
,1.46,,,,,,,,,d,orange,5ee2c239f4ec4b804a79cf80,2021-09-27_14h08.05.439,forced_choiceRT_color,2021.2.3,MacIntel,59.97361161,,,,,,,,10,Ontime,long,f,0,2.0025,9,2,38,0,1,,,,,
,1.19,,,,,,,,,j,red,5ee2c239f4ec4b804a79cf80,2021-09-27_14h08.05.439,forced_choiceRT_color,2021.2.3,MacIntel,59.97361161,,,,,,,,10,Fast,long,k,0,1.7644,9,3,39,2,1,,,,,
,,,,,,,,,,,,5ee2c239f4ec4b804a79cf80,2021-09-27_14h08.05.439,forced_choiceRT_color,2021.2.3,MacIntel,59.97361161,,,,,,,,,,,,,,,,,,,9,0,9,0,1
