target_onset,trial_resp_sp.keys,trial_resp_sp.corr,trial_resp_sp.rt,trials_train_loop.thisRepN,trials_train_loop.thisTrialN,trials_train_loop.thisN,trials_train_loop.thisIndex,trials_train_loop.ran,correct_key,color,participant,date,expName,psychopyVersion,OS,frameRate,trial_resp_timing.keys,trial_resp_timing.rt,trials_train_timing.thisRepN,trials_train_timing.thisTrialN,trials_train_timing.thisN,trials_train_timing.thisIndex,trials_train_timing.ran,block_id,ontime,feedback_cond,forcedRT_resp.keys,forcedRT_resp.corr,forcedRT_resp.rt,trials.thisRepN,trials.thisTrialN,trials.thisN,trials.thisIndex,trials.ran,blocks.thisRepN,blocks.thisTrialN,blocks.thisN,blocks.thisIndex,blocks.ran
0,k,1,1.0631,0,0,0,3,1,k,purple,5ee6fc62447e98486758afc6,2021-09-27_18h00.45.897,forced_choiceRT_color,2021.2.3,Win32,59.94125757,,,,,,,,,,,,,,,,,,,,,,,
0,k,1,0.4882,0,1,1,3,1,k,purple,5ee6fc62447e98486758afc6,2021-09-27_18h00.45.897,forced_choiceRT_color,2021.2.3,Win32,59.94125757,,,,,,,,,,,,,,,,,,,,,,,
0,k,1,0.455,0,2,2,3,1,k,purple,5ee6fc62447e98486758afc6,2021-09-27_18h00.45.897,forced_choiceRT_color,2021.2.3,Win32,59.94125757,,,,,,,,,,,,,,,,,,,,,,,
0,d,1,0.6472,0,3,3,0,1,d,orange,5ee6fc62447e98486758afc6,2021-09-27_18h00.45.897,forced_choiceRT_color,2021.2.3,Win32,59.94125757,,,,,,,,,,,,,,,,,,,,,,,
0,f,1,0.5632,1,0,4,1,1,f,blue,5ee6fc62447e98486758afc6,2021-09-27_18h00.45.897,forced_choiceRT_color,2021.2.3,Win32,59.94125757,,,,,,,,,,,,,,,,,,,,,,,
0,f,1,0.5799,1,1,5,1,1,f,blue,5ee6fc62447e98486758afc6,2021-09-27_18h00.45.897,forced_choiceRT_color,2021.2.3,Win32,59.94125757,,,,,,,,,,,,,,,,,,,,,,,
0,f,1,0.4055,1,2,6,1,1,f,blue,5ee6fc62447e98486758afc6,2021-09-27_18h00.45.897,forced_choiceRT_color,2021.2.3,Win32,59.94125757,,,,,,,,,,,,,,,,,,,,,,,
0,j,1,0.4964,1,3,7,2,1,j,red,5ee6fc62447e98486758afc6,2021-09-27_18h00.45.897,forced_choiceRT_color,2021.2.3,Win32,59.94125757,,,,,,,,,,,,,,,,,,,,,,,
0,d,1,0.6856,2,0,8,0,1,d,orange,5ee6fc62447e98486758afc6,2021-09-27_18h00.45.897,forced_choiceRT_color,2021.2.3,Win32,59.94125757,,,,,,,,,,,,,,,,,,,,,,,
0,f,1,0.6801,2,1,9,1,1,f,blue,5ee6fc62447e98486758afc6,2021-09-27_18h00.45.897,forced_choiceRT_color,2021.2.3,Win32,59.94125757,,,,,,,,,,,,,,,,,,,,,,,
0,k,1,0.5799,2,2,10,3,1,k,purple,5ee6fc62447e98486758afc6,2021-09-27_18h00.45.897,forced_choiceRT_color,2021.2.3,Win32,59.94125757,,,,,,,,,,,,,,,,,,,,,,,
0,d,1,0.6299,2,3,11,0,1,d,orange,5ee6fc62447e98486758afc6,2021-09-27_18h00.45.897,forced_choiceRT_color,2021.2.3,Win32,59.94125757,,,,,,,,,,,,,,,,,,,,,,,
0,k,1,1.1903,3,0,12,3,1,k,purple,5ee6fc62447e98486758afc6,2021-09-27_18h00.45.897,forced_choiceRT_color,2021.2.3,Win32,59.94125757,,,,,,,,,,,,,,,,,,,,,,,
0,f,1,0.7203,3,1,13,1,1,f,blue,5ee6fc62447e98486758afc6,2021-09-27_18h00.45.897,forced_choiceRT_color,2021.2.3,Win32,59.94125757,,,,,,,,,,,,,,,,,,,,,,,
0,f,1,0.4964,3,2,14,1,1,f,blue,5ee6fc62447e98486758afc6,2021-09-27_18h00.45.897,forced_choiceRT_color,2021.2.3,Win32,59.94125757,,,,,,,,,,,,,,,,,,,,,,,
0,f,1,0.413,3,3,15,1,1,f,blue,5ee6fc62447e98486758afc6,2021-09-27_18h00.45.897,forced_choiceRT_color,2021.2.3,Win32,59.94125757,,,,,,,,,,,,,,,,,,,,,,,
0,j,1,0.6131,4,0,16,2,1,j,red,5ee6fc62447e98486758afc6,2021-09-27_18h00.45.897,forced_choiceRT_color,2021.2.3,Win32,59.94125757,,,,,,,,,,,,,,,,,,,,,,,
0,j,1,0.4308,4,1,17,2,1,j,red,5ee6fc62447e98486758afc6,2021-09-27_18h00.45.897,forced_choiceRT_color,2021.2.3,Win32,59.94125757,,,,,,,,,,,,,,,,,,,,,,,
0,j,1,0.3963,4,2,18,2,1,j,red,5ee6fc62447e98486758afc6,2021-09-27_18h00.45.897,forced_choiceRT_color,2021.2.3,Win32,59.94125757,,,,,,,,,,,,,,,,,,,,,,,
0,d,1,0.5698,4,3,19,0,1,d,orange,5ee6fc62447e98486758afc6,2021-09-27_18h00.45.897,forced_choiceRT_color,2021.2.3,Win32,59.94125757,,,,,,,,,,,,,,,,,,,,,,,
0,k,1,0.4965,5,0,20,3,1,k,purple,5ee6fc62447e98486758afc6,2021-09-27_18h00.45.897,forced_choiceRT_color,2021.2.3,Win32,59.94125757,,,,,,,,,,,,,,,,,,,,,,,
0,j,1,0.6354,5,1,21,2,1,j,red,5ee6fc62447e98486758afc6,2021-09-27_18h00.45.897,forced_choiceRT_color,2021.2.3,Win32,59.94125757,,,,,,,,,,,,,,,,,,,,,,,
0,f,1,0.6634,5,2,22,1,1,f,blue,5ee6fc62447e98486758afc6,2021-09-27_18h00.45.897,forced_choiceRT_color,2021.2.3,Win32,59.94125757,,,,,,,,,,,,,,,,,,,,,,,
0,d,1,0.5634,5,3,23,0,1,d,orange,5ee6fc62447e98486758afc6,2021-09-27_18h00.45.897,forced_choiceRT_color,2021.2.3,Win32,59.94125757,,,,,,,,,,,,,,,,,,,,,,,
0,j,1,0.5906,6,0,24,2,1,j,red,5ee6fc62447e98486758afc6,2021-09-27_18h00.45.897,forced_choiceRT_color,2021.2.3,Win32,59.94125757,,,,,,,,,,,,,,,,,,,,,,,
0,j,1,0.4656,6,1,25,2,1,j,red,5ee6fc62447e98486758afc6,2021-09-27_18h00.45.897,forced_choiceRT_color,2021.2.3,Win32,59.94125757,,,,,,,,,,,,,,,,,,,,,,,
0,k,1,0.4299,6,2,26,3,1,k,purple,5ee6fc62447e98486758afc6,2021-09-27_18h00.45.897,forced_choiceRT_color,2021.2.3,Win32,59.94125757,,,,,,,,,,,,,,,,,,,,,,,
0,j,1,0.6821,6,3,27,2,1,j,red,5ee6fc62447e98486758afc6,2021-09-27_18h00.45.897,forced_choiceRT_color,2021.2.3,Win32,59.94125757,,,,,,,,,,,,,,,,,,,,,,,
0,d,1,0.8167,7,0,28,0,1,d,orange,5ee6fc62447e98486758afc6,2021-09-27_18h00.45.897,forced_choiceRT_color,2021.2.3,Win32,59.94125757,,,,,,,,,,,,,,,,,,,,,,,
0,d,1,0.4178,7,1,29,0,1,d,orange,5ee6fc62447e98486758afc6,2021-09-27_18h00.45.897,forced_choiceRT_color,2021.2.3,Win32,59.94125757,,,,,,,,,,,,,,,,,,,,,,,
0,d,1,0.3963,7,2,30,0,1,d,orange,5ee6fc62447e98486758afc6,2021-09-27_18h00.45.897,forced_choiceRT_color,2021.2.3,Win32,59.94125757,,,,,,,,,,,,,,,,,,,,,,,
0,f,1,0.6466,7,3,31,1,1,f,blue,5ee6fc62447e98486758afc6,2021-09-27_18h00.45.897,forced_choiceRT_color,2021.2.3,Win32,59.94125757,,,,,,,,,,,,,,,,,,,,,,,
0,f,1,0.3734,8,0,32,1,1,f,blue,5ee6fc62447e98486758afc6,2021-09-27_18h00.45.897,forced_choiceRT_color,2021.2.3,Win32,59.94125757,,,,,,,,,,,,,,,,,,,,,,,
0,j,1,0.441,8,1,33,2,1,j,red,5ee6fc62447e98486758afc6,2021-09-27_18h00.45.897,forced_choiceRT_color,2021.2.3,Win32,59.94125757,,,,,,,,,,,,,,,,,,,,,,,
0,j,1,0.3463,8,2,34,2,1,j,red,5ee6fc62447e98486758afc6,2021-09-27_18h00.45.897,forced_choiceRT_color,2021.2.3,Win32,59.94125757,,,,,,,,,,,,,,,,,,,,,,,
0,k,1,0.3903,8,3,35,3,1,k,purple,5ee6fc62447e98486758afc6,2021-09-27_18h00.45.897,forced_choiceRT_color,2021.2.3,Win32,59.94125757,,,,,,,,,,,,,,,,,,,,,,,
0,f,1,0.5799,9,0,36,1,1,f,blue,5ee6fc62447e98486758afc6,2021-09-27_18h00.45.897,forced_choiceRT_color,2021.2.3,Win32,59.94125757,,,,,,,,,,,,,,,,,,,,,,,
0,d,1,0.4845,9,1,37,0,1,d,orange,5ee6fc62447e98486758afc6,2021-09-27_18h00.45.897,forced_choiceRT_color,2021.2.3,Win32,59.94125757,,,,,,,,,,,,,,,,,,,,,,,
0,f,1,0.571,9,2,38,1,1,f,blue,5ee6fc62447e98486758afc6,2021-09-27_18h00.45.897,forced_choiceRT_color,2021.2.3,Win32,59.94125757,,,,,,,,,,,,,,,,,,,,,,,
0,d,1,0.6063,9,3,39,0,1,d,orange,5ee6fc62447e98486758afc6,2021-09-27_18h00.45.897,forced_choiceRT_color,2021.2.3,Win32,59.94125757,,,,,,,,,,,,,,,,,,,,,,,
0,k,1,0.5632,10,0,40,3,1,k,purple,5ee6fc62447e98486758afc6,2021-09-27_18h00.45.897,forced_choiceRT_color,2021.2.3,Win32,59.94125757,,,,,,,,,,,,,,,,,,,,,,,
0,k,1,0.4633,10,1,41,3,1,k,purple,5ee6fc62447e98486758afc6,2021-09-27_18h00.45.897,forced_choiceRT_color,2021.2.3,Win32,59.94125757,,,,,,,,,,,,,,,,,,,,,,,
0,k,1,0.4194,10,2,42,3,1,k,purple,5ee6fc62447e98486758afc6,2021-09-27_18h00.45.897,forced_choiceRT_color,2021.2.3,Win32,59.94125757,,,,,,,,,,,,,,,,,,,,,,,
0,f,1,0.5809,10,3,43,1,1,f,blue,5ee6fc62447e98486758afc6,2021-09-27_18h00.45.897,forced_choiceRT_color,2021.2.3,Win32,59.94125757,,,,,,,,,,,,,,,,,,,,,,,
0,j,1,0.4797,11,0,44,2,1,j,red,5ee6fc62447e98486758afc6,2021-09-27_18h00.45.897,forced_choiceRT_color,2021.2.3,Win32,59.94125757,,,,,,,,,,,,,,,,,,,,,,,
0,j,1,0.4065,11,1,45,2,1,j,red,5ee6fc62447e98486758afc6,2021-09-27_18h00.45.897,forced_choiceRT_color,2021.2.3,Win32,59.94125757,,,,,,,,,,,,,,,,,,,,,,,
0,d,1,0.6568,11,2,46,0,1,d,orange,5ee6fc62447e98486758afc6,2021-09-27_18h00.45.897,forced_choiceRT_color,2021.2.3,Win32,59.94125757,,,,,,,,,,,,,,,,,,,,,,,
0,j,1,0.4487,11,3,47,2,1,j,red,5ee6fc62447e98486758afc6,2021-09-27_18h00.45.897,forced_choiceRT_color,2021.2.3,Win32,59.94125757,,,,,,,,,,,,,,,,,,,,,,,
0,j,1,0.4173,12,0,48,2,1,j,red,5ee6fc62447e98486758afc6,2021-09-27_18h00.45.897,forced_choiceRT_color,2021.2.3,Win32,59.94125757,,,,,,,,,,,,,,,,,,,,,,,
0,f,1,0.4347,12,1,49,1,1,f,blue,5ee6fc62447e98486758afc6,2021-09-27_18h00.45.897,forced_choiceRT_color,2021.2.3,Win32,59.94125757,,,,,,,,,,,,,,,,,,,,,,,
0,k,1,0.5394,12,2,50,3,1,k,purple,5ee6fc62447e98486758afc6,2021-09-27_18h00.45.897,forced_choiceRT_color,2021.2.3,Win32,59.94125757,,,,,,,,,,,,,,,,,,,,,,,
0,d,1,0.6164,12,3,51,0,1,d,orange,5ee6fc62447e98486758afc6,2021-09-27_18h00.45.897,forced_choiceRT_color,2021.2.3,Win32,59.94125757,,,,,,,,,,,,,,,,,,,,,,,
0,d,1,0.5965,13,0,52,0,1,d,orange,5ee6fc62447e98486758afc6,2021-09-27_18h00.45.897,forced_choiceRT_color,2021.2.3,Win32,59.94125757,,,,,,,,,,,,,,,,,,,,,,,
0,j,1,0.8918,13,1,53,2,1,j,red,5ee6fc62447e98486758afc6,2021-09-27_18h00.45.897,forced_choiceRT_color,2021.2.3,Win32,59.94125757,,,,,,,,,,,,,,,,,,,,,,,
0,k,1,0.5138,13,2,54,3,1,k,purple,5ee6fc62447e98486758afc6,2021-09-27_18h00.45.897,forced_choiceRT_color,2021.2.3,Win32,59.94125757,,,,,,,,,,,,,,,,,,,,,,,
0,f,1,0.4875,13,3,55,1,1,f,blue,5ee6fc62447e98486758afc6,2021-09-27_18h00.45.897,forced_choiceRT_color,2021.2.3,Win32,59.94125757,,,,,,,,,,,,,,,,,,,,,,,
0,d,1,0.4862,14,0,56,0,1,d,orange,5ee6fc62447e98486758afc6,2021-09-27_18h00.45.897,forced_choiceRT_color,2021.2.3,Win32,59.94125757,,,,,,,,,,,,,,,,,,,,,,,
0,d,1,0.3891,14,1,57,0,1,d,orange,5ee6fc62447e98486758afc6,2021-09-27_18h00.45.897,forced_choiceRT_color,2021.2.3,Win32,59.94125757,,,,,,,,,,,,,,,,,,,,,,,
0,k,1,0.5301,14,2,58,3,1,k,purple,5ee6fc62447e98486758afc6,2021-09-27_18h00.45.897,forced_choiceRT_color,2021.2.3,Win32,59.94125757,,,,,,,,,,,,,,,,,,,,,,,
0,k,1,0.3729,14,3,59,3,1,k,purple,5ee6fc62447e98486758afc6,2021-09-27_18h00.45.897,forced_choiceRT_color,2021.2.3,Win32,59.94125757,,,,,,,,,,,,,,,,,,,,,,,
,,,,,,,,,,,5ee6fc62447e98486758afc6,2021-09-27_18h00.45.897,forced_choiceRT_color,2021.2.3,Win32,59.94125757,d,2.3451,0,0,0,0,1,,,,,,,,,,,,,,,,
,,,,,,,,,,,5ee6fc62447e98486758afc6,2021-09-27_18h00.45.897,forced_choiceRT_color,2021.2.3,Win32,59.94125757,d,2.0317,1,0,1,0,1,,,,,,,,,,,,,,,,
,,,,,,,,,,,5ee6fc62447e98486758afc6,2021-09-27_18h00.45.897,forced_choiceRT_color,2021.2.3,Win32,59.94125757,d,2.0586,2,0,2,0,1,,,,,,,,,,,,,,,,
,,,,,,,,,,,5ee6fc62447e98486758afc6,2021-09-27_18h00.45.897,forced_choiceRT_color,2021.2.3,Win32,59.94125757,f,2.0411,3,0,3,0,1,,,,,,,,,,,,,,,,
,,,,,,,,,,,5ee6fc62447e98486758afc6,2021-09-27_18h00.45.897,forced_choiceRT_color,2021.2.3,Win32,59.94125757,j,2.1148,4,0,4,0,1,,,,,,,,,,,,,,,,
,,,,,,,,,,,5ee6fc62447e98486758afc6,2021-09-27_18h00.45.897,forced_choiceRT_color,2021.2.3,Win32,59.94125757,j,1.9982,5,0,5,0,1,,,,,,,,,,,,,,,,
,,,,,,,,,,,5ee6fc62447e98486758afc6,2021-09-27_18h00.45.897,forced_choiceRT_color,2021.2.3,Win32,59.94125757,j,2.0522,6,0,6,0,1,,,,,,,,,,,,,,,,
,,,,,,,,,,,5ee6fc62447e98486758afc6,2021-09-27_18h00.45.897,forced_choiceRT_color,2021.2.3,Win32,59.94125757,j,2.0498,7,0,7,0,1,,,,,,,,,,,,,,,,
,,,,,,,,,,,5ee6fc62447e98486758afc6,2021-09-27_18h00.45.897,forced_choiceRT_color,2021.2.3,Win32,59.94125757,k,2.0652,8,0,8,0,1,,,,,,,,,,,,,,,,
,,,,,,,,,,,5ee6fc62447e98486758afc6,2021-09-27_18h00.45.897,forced_choiceRT_color,2021.2.3,Win32,59.94125757,k,2.015,9,0,9,0,1,,,,,,,,,,,,,,,,
,,,,,,,,,,,5ee6fc62447e98486758afc6,2021-09-27_18h00.45.897,forced_choiceRT_color,2021.2.3,Win32,59.94125757,k,2.0151,10,0,10,0,1,,,,,,,,,,,,,,,,
,,,,,,,,,,,5ee6fc62447e98486758afc6,2021-09-27_18h00.45.897,forced_choiceRT_color,2021.2.3,Win32,59.94125757,f,2.0537,11,0,11,0,1,,,,,,,,,,,,,,,,
,,,,,,,,,,,5ee6fc62447e98486758afc6,2021-09-27_18h00.45.897,forced_choiceRT_color,2021.2.3,Win32,59.94125757,d,1.9982,12,0,12,0,1,,,,,,,,,,,,,,,,
,,,,,,,,,,,5ee6fc62447e98486758afc6,2021-09-27_18h00.45.897,forced_choiceRT_color,2021.2.3,Win32,59.94125757,f,2.015,13,0,13,0,1,,,,,,,,,,,,,,,,
,,,,,,,,,,,5ee6fc62447e98486758afc6,2021-09-27_18h00.45.897,forced_choiceRT_color,2021.2.3,Win32,59.94125757,d,2.0352,14,0,14,0,1,,,,,,,,,,,,,,,,
,,,,,,,,,,,5ee6fc62447e98486758afc6,2021-09-27_18h00.45.897,forced_choiceRT_color,2021.2.3,Win32,59.94125757,j,2.0516,15,0,15,0,1,,,,,,,,,,,,,,,,
,,,,,,,,,,,5ee6fc62447e98486758afc6,2021-09-27_18h00.45.897,forced_choiceRT_color,2021.2.3,Win32,59.94125757,k,2.0179,16,0,16,0,1,,,,,,,,,,,,,,,,
,,,,,,,,,,,5ee6fc62447e98486758afc6,2021-09-27_18h00.45.897,forced_choiceRT_color,2021.2.3,Win32,59.94125757,j,2.0019,17,0,17,0,1,,,,,,,,,,,,,,,,
,,,,,,,,,,,5ee6fc62447e98486758afc6,2021-09-27_18h00.45.897,forced_choiceRT_color,2021.2.3,Win32,59.94125757,k,2.0572,18,0,18,0,1,,,,,,,,,,,,,,,,
,,,,,,,,,,,5ee6fc62447e98486758afc6,2021-09-27_18h00.45.897,forced_choiceRT_color,2021.2.3,Win32,59.94125757,f,2.0563,19,0,19,0,1,,,,,,,,,,,,,,,,
0.3,,,,,,,,,j,red,5ee6fc62447e98486758afc6,2021-09-27_18h00.45.897,forced_choiceRT_color,2021.2.3,Win32,59.94125757,,,,,,,,1,Ontime,short,j,1,2.0685,0,0,0,2,1,,,,,
1.33,,,,,,,,,k,purple,5ee6fc62447e98486758afc6,2021-09-27_18h00.45.897,forced_choiceRT_color,2021.2.3,Win32,59.94125757,,,,,,,,1,Ontime,short,k,1,2.0623,0,1,1,3,1,,,,,
1.9,,,,,,,,,j,red,5ee6fc62447e98486758afc6,2021-09-27_18h00.45.897,forced_choiceRT_color,2021.2.3,Win32,59.94125757,,,,,,,,1,Slow,short,j,1,2.3204,0,2,2,2,1,,,,,
1.91,,,,,,,,,f,blue,5ee6fc62447e98486758afc6,2021-09-27_18h00.45.897,forced_choiceRT_color,2021.2.3,Win32,59.94125757,,,,,,,,1,Slow,short,f,1,2.2318,0,3,3,1,1,,,,,
1.4,,,,,,,,,f,blue,5ee6fc62447e98486758afc6,2021-09-27_18h00.45.897,forced_choiceRT_color,2021.2.3,Win32,59.94125757,,,,,,,,1,Ontime,short,f,1,1.9059,1,0,4,1,1,,,,,
1.69,,,,,,,,,j,red,5ee6fc62447e98486758afc6,2021-09-27_18h00.45.897,forced_choiceRT_color,2021.2.3,Win32,59.94125757,,,,,,,,1,Slow,short,j,1,2.2153,1,1,5,2,1,,,,,
0.96,,,,,,,,,k,purple,5ee6fc62447e98486758afc6,2021-09-27_18h00.45.897,forced_choiceRT_color,2021.2.3,Win32,59.94125757,,,,,,,,1,Ontime,short,k,1,1.948,1,2,6,3,1,,,,,
1.68,,,,,,,,,k,purple,5ee6fc62447e98486758afc6,2021-09-27_18h00.45.897,forced_choiceRT_color,2021.2.3,Win32,59.94125757,,,,,,,,1,Slow,short,k,1,2.2575,1,3,7,3,1,,,,,
0.61,,,,,,,,,f,blue,5ee6fc62447e98486758afc6,2021-09-27_18h00.45.897,forced_choiceRT_color,2021.2.3,Win32,59.94125757,,,,,,,,1,Ontime,short,f,1,2.0075,2,0,8,1,1,,,,,
0.53,,,,,,,,,j,red,5ee6fc62447e98486758afc6,2021-09-27_18h00.45.897,forced_choiceRT_color,2021.2.3,Win32,59.94125757,,,,,,,,1,Ontime,short,j,1,2.0531,2,1,9,2,1,,,,,
1.66,,,,,,,,,f,blue,5ee6fc62447e98486758afc6,2021-09-27_18h00.45.897,forced_choiceRT_color,2021.2.3,Win32,59.94125757,,,,,,,,1,Slow,short,f,1,2.1361,2,2,10,1,1,,,,,
0.19,,,,,,,,,j,red,5ee6fc62447e98486758afc6,2021-09-27_18h00.45.897,forced_choiceRT_color,2021.2.3,Win32,59.94125757,,,,,,,,1,Ontime,short,j,1,2.003,2,3,11,2,1,,,,,
1.38,,,,,,,,,j,red,5ee6fc62447e98486758afc6,2021-09-27_18h00.45.897,forced_choiceRT_color,2021.2.3,Win32,59.94125757,,,,,,,,1,Ontime,short,j,1,2.0715,3,0,12,2,1,,,,,
1.72,,,,,,,,,f,blue,5ee6fc62447e98486758afc6,2021-09-27_18h00.45.897,forced_choiceRT_color,2021.2.3,Win32,59.94125757,,,,,,,,1,Slow,short,f,1,2.1203,3,1,13,1,1,,,,,
1.1,,,,,,,,,k,purple,5ee6fc62447e98486758afc6,2021-09-27_18h00.45.897,forced_choiceRT_color,2021.2.3,Win32,59.94125757,,,,,,,,1,Ontime,short,k,1,1.9574,3,2,14,3,1,,,,,
1.05,,,,,,,,,k,purple,5ee6fc62447e98486758afc6,2021-09-27_18h00.45.897,forced_choiceRT_color,2021.2.3,Win32,59.94125757,,,,,,,,1,Ontime,short,k,1,2.0364,3,3,15,3,1,,,,,
0.25,,,,,,,,,d,orange,5ee6fc62447e98486758afc6,2021-09-27_18h00.45.897,forced_choiceRT_color,2021.2.3,Win32,59.94125757,,,,,,,,1,Ontime,short,d,1,2.024,4,0,16,0,1,,,,,
1.76,,,,,,,,,d,orange,5ee6fc62447e98486758afc6,2021-09-27_18h00.45.897,forced_choiceRT_color,2021.2.3,Win32,59.94125757,,,,,,,,1,Ontime,short,f,0,2.0923,4,1,17,0,1,,,,,
0.94,,,,,,,,,k,purple,5ee6fc62447e98486758afc6,2021-09-27_18h00.45.897,forced_choiceRT_color,2021.2.3,Win32,59.94125757,,,,,,,,1,Ontime,short,k,1,2.0219,4,2,18,3,1,,,,,
0.72,,,,,,,,,k,purple,5ee6fc62447e98486758afc6,2021-09-27_18h00.45.897,forced_choiceRT_color,2021.2.3,Win32,59.94125757,,,,,,,,1,Ontime,short,k,1,2.0664,4,3,19,3,1,,,,,
0.52,,,,,,,,,k,purple,5ee6fc62447e98486758afc6,2021-09-27_18h00.45.897,forced_choiceRT_color,2021.2.3,Win32,59.94125757,,,,,,,,1,Ontime,short,k,1,2.0365,5,0,20,3,1,,,,,
0.09,,,,,,,,,d,orange,5ee6fc62447e98486758afc6,2021-09-27_18h00.45.897,forced_choiceRT_color,2021.2.3,Win32,59.94125757,,,,,,,,1,Ontime,short,d,1,1.9682,5,1,21,0,1,,,,,
1.1,,,,,,,,,d,orange,5ee6fc62447e98486758afc6,2021-09-27_18h00.45.897,forced_choiceRT_color,2021.2.3,Win32,59.94125757,,,,,,,,1,Ontime,short,d,1,2.0064,5,2,22,0,1,,,,,
1.49,,,,,,,,,d,orange,5ee6fc62447e98486758afc6,2021-09-27_18h00.45.897,forced_choiceRT_color,2021.2.3,Win32,59.94125757,,,,,,,,1,Ontime,short,d,1,2.0317,5,3,23,0,1,,,,,
0.26,,,,,,,,,d,orange,5ee6fc62447e98486758afc6,2021-09-27_18h00.45.897,forced_choiceRT_color,2021.2.3,Win32,59.94125757,,,,,,,,1,Ontime,short,d,1,2.0551,6,0,24,0,1,,,,,
0.68,,,,,,,,,f,blue,5ee6fc62447e98486758afc6,2021-09-27_18h00.45.897,forced_choiceRT_color,2021.2.3,Win32,59.94125757,,,,,,,,1,Ontime,short,f,1,2.0099,6,1,25,1,1,,,,,
0.75,,,,,,,,,f,blue,5ee6fc62447e98486758afc6,2021-09-27_18h00.45.897,forced_choiceRT_color,2021.2.3,Win32,59.94125757,,,,,,,,1,Ontime,short,f,1,2.015,6,2,26,1,1,,,,,
0.29,,,,,,,,,j,red,5ee6fc62447e98486758afc6,2021-09-27_18h00.45.897,forced_choiceRT_color,2021.2.3,Win32,59.94125757,,,,,,,,1,Ontime,short,j,1,2.0514,6,3,27,2,1,,,,,
1.94,,,,,,,,,j,red,5ee6fc62447e98486758afc6,2021-09-27_18h00.45.897,forced_choiceRT_color,2021.2.3,Win32,59.94125757,,,,,,,,1,Slow,short,f,0,2.2487,7,0,28,2,1,,,,,
1.27,,,,,,,,,k,purple,5ee6fc62447e98486758afc6,2021-09-27_18h00.45.897,forced_choiceRT_color,2021.2.3,Win32,59.94125757,,,,,,,,1,Ontime,short,k,1,1.9815,7,1,29,3,1,,,,,
1.61,,,,,,,,,j,red,5ee6fc62447e98486758afc6,2021-09-27_18h00.45.897,forced_choiceRT_color,2021.2.3,Win32,59.94125757,,,,,,,,1,Slow,short,j,1,2.2022,7,2,30,2,1,,,,,
1.37,,,,,,,,,d,orange,5ee6fc62447e98486758afc6,2021-09-27_18h00.45.897,forced_choiceRT_color,2021.2.3,Win32,59.94125757,,,,,,,,1,Ontime,short,k,0,1.9304,7,3,31,0,1,,,,,
1.61,,,,,,,,,f,blue,5ee6fc62447e98486758afc6,2021-09-27_18h00.45.897,forced_choiceRT_color,2021.2.3,Win32,59.94125757,,,,,,,,1,Ontime,short,f,1,2.0573,8,0,32,1,1,,,,,
0.57,,,,,,,,,d,orange,5ee6fc62447e98486758afc6,2021-09-27_18h00.45.897,forced_choiceRT_color,2021.2.3,Win32,59.94125757,,,,,,,,1,Ontime,short,d,1,1.9562,8,1,33,0,1,,,,,
1.16,,,,,,,,,k,purple,5ee6fc62447e98486758afc6,2021-09-27_18h00.45.897,forced_choiceRT_color,2021.2.3,Win32,59.94125757,,,,,,,,1,Ontime,short,k,1,2.0593,8,2,34,3,1,,,,,
0.69,,,,,,,,,f,blue,5ee6fc62447e98486758afc6,2021-09-27_18h00.45.897,forced_choiceRT_color,2021.2.3,Win32,59.94125757,,,,,,,,1,Ontime,short,f,1,2.0222,8,3,35,1,1,,,,,
1.84,,,,,,,,,j,red,5ee6fc62447e98486758afc6,2021-09-27_18h00.45.897,forced_choiceRT_color,2021.2.3,Win32,59.94125757,,,,,,,,1,Slow,short,j,1,2.2265,9,0,36,2,1,,,,,
1.2,,,,,,,,,d,orange,5ee6fc62447e98486758afc6,2021-09-27_18h00.45.897,forced_choiceRT_color,2021.2.3,Win32,59.94125757,,,,,,,,1,Ontime,short,d,1,2.0258,9,1,37,0,1,,,,,
1.64,,,,,,,,,d,orange,5ee6fc62447e98486758afc6,2021-09-27_18h00.45.897,forced_choiceRT_color,2021.2.3,Win32,59.94125757,,,,,,,,1,Slow,short,f,0,2.1029,9,2,38,0,1,,,,,
1.94,,,,,,,,,f,blue,5ee6fc62447e98486758afc6,2021-09-27_18h00.45.897,forced_choiceRT_color,2021.2.3,Win32,59.94125757,,,,,,,,1,Slow,short,j,0,2.2506,9,3,39,1,1,,,,,
,,,,,,,,,,,5ee6fc62447e98486758afc6,2021-09-27_18h00.45.897,forced_choiceRT_color,2021.2.3,Win32,59.94125757,,,,,,,,,,,,,,,,,,,0,0,0,0,1
0.19,,,,,,,,,k,purple,5ee6fc62447e98486758afc6,2021-09-27_18h00.45.897,forced_choiceRT_color,2021.2.3,Win32,59.94125757,,,,,,,,2,Ontime,short,j,0,2.0575,0,0,0,3,1,,,,,
0.36,,,,,,,,,f,blue,5ee6fc62447e98486758afc6,2021-09-27_18h00.45.897,forced_choiceRT_color,2021.2.3,Win32,59.94125757,,,,,,,,2,Ontime,short,f,1,2.0484,0,1,1,1,1,,,,,
1.87,,,,,,,,,d,orange,5ee6fc62447e98486758afc6,2021-09-27_18h00.45.897,forced_choiceRT_color,2021.2.3,Win32,59.94125757,,,,,,,,2,Slow,short,d,1,2.2745,0,2,2,0,1,,,,,
1.14,,,,,,,,,j,red,5ee6fc62447e98486758afc6,2021-09-27_18h00.45.897,forced_choiceRT_color,2021.2.3,Win32,59.94125757,,,,,,,,2,Ontime,short,j,1,1.9992,0,3,3,2,1,,,,,
1.5,,,,,,,,,f,blue,5ee6fc62447e98486758afc6,2021-09-27_18h00.45.897,forced_choiceRT_color,2021.2.3,Win32,59.94125757,,,,,,,,2,Ontime,short,f,1,2.0485,1,0,4,1,1,,,,,
1.54,,,,,,,,,k,purple,5ee6fc62447e98486758afc6,2021-09-27_18h00.45.897,forced_choiceRT_color,2021.2.3,Win32,59.94125757,,,,,,,,2,Ontime,short,k,1,2.0232,1,1,5,3,1,,,,,
1.78,,,,,,,,,k,purple,5ee6fc62447e98486758afc6,2021-09-27_18h00.45.897,forced_choiceRT_color,2021.2.3,Win32,59.94125757,,,,,,,,2,Slow,short,j,0,2.1077,1,2,6,3,1,,,,,
1.86,,,,,,,,,d,orange,5ee6fc62447e98486758afc6,2021-09-27_18h00.45.897,forced_choiceRT_color,2021.2.3,Win32,59.94125757,,,,,,,,2,Slow,short,f,0,2.2077,1,3,7,0,1,,,,,
0.5,,,,,,,,,f,blue,5ee6fc62447e98486758afc6,2021-09-27_18h00.45.897,forced_choiceRT_color,2021.2.3,Win32,59.94125757,,,,,,,,2,Ontime,short,f,1,1.9584,2,0,8,1,1,,,,,
1.65,,,,,,,,,d,orange,5ee6fc62447e98486758afc6,2021-09-27_18h00.45.897,forced_choiceRT_color,2021.2.3,Win32,59.94125757,,,,,,,,2,Slow,short,d,1,2.1272,2,1,9,0,1,,,,,
1.76,,,,,,,,,d,orange,5ee6fc62447e98486758afc6,2021-09-27_18h00.45.897,forced_choiceRT_color,2021.2.3,Win32,59.94125757,,,,,,,,2,Slow,short,f,0,2.1029,2,2,10,0,1,,,,,
1.63,,,,,,,,,k,purple,5ee6fc62447e98486758afc6,2021-09-27_18h00.45.897,forced_choiceRT_color,2021.2.3,Win32,59.94125757,,,,,,,,2,Ontime,short,j,0,2.0544,2,3,11,3,1,,,,,
1.07,,,,,,,,,j,red,5ee6fc62447e98486758afc6,2021-09-27_18h00.45.897,forced_choiceRT_color,2021.2.3,Win32,59.94125757,,,,,,,,2,Ontime,short,j,1,2.0573,3,0,12,2,1,,,,,
0.43,,,,,,,,,d,orange,5ee6fc62447e98486758afc6,2021-09-27_18h00.45.897,forced_choiceRT_color,2021.2.3,Win32,59.94125757,,,,,,,,2,Ontime,short,d,1,2.0602,3,1,13,0,1,,,,,
0.54,,,,,,,,,f,blue,5ee6fc62447e98486758afc6,2021-09-27_18h00.45.897,forced_choiceRT_color,2021.2.3,Win32,59.94125757,,,,,,,,2,Ontime,short,f,1,2.0873,3,2,14,1,1,,,,,
0.61,,,,,,,,,f,blue,5ee6fc62447e98486758afc6,2021-09-27_18h00.45.897,forced_choiceRT_color,2021.2.3,Win32,59.94125757,,,,,,,,2,Ontime,short,f,1,2.0086,3,3,15,1,1,,,,,
0.31,,,,,,,,,k,purple,5ee6fc62447e98486758afc6,2021-09-27_18h00.45.897,forced_choiceRT_color,2021.2.3,Win32,59.94125757,,,,,,,,2,Ontime,short,k,1,2.0818,4,0,16,3,1,,,,,
1.03,,,,,,,,,j,red,5ee6fc62447e98486758afc6,2021-09-27_18h00.45.897,forced_choiceRT_color,2021.2.3,Win32,59.94125757,,,,,,,,2,Ontime,short,j,1,2.0978,4,1,17,2,1,,,,,
0.32,,,,,,,,,k,purple,5ee6fc62447e98486758afc6,2021-09-27_18h00.45.897,forced_choiceRT_color,2021.2.3,Win32,59.94125757,,,,,,,,2,Ontime,short,k,1,2.0484,4,2,18,3,1,,,,,
1.62,,,,,,,,,j,red,5ee6fc62447e98486758afc6,2021-09-27_18h00.45.897,forced_choiceRT_color,2021.2.3,Win32,59.94125757,,,,,,,,2,Slow,short,j,1,2.1552,4,3,19,2,1,,,,,
1.87,,,,,,,,,f,blue,5ee6fc62447e98486758afc6,2021-09-27_18h00.45.897,forced_choiceRT_color,2021.2.3,Win32,59.94125757,,,,,,,,2,Slow,short,f,1,2.2046,5,0,20,1,1,,,,,
0.42,,,,,,,,,j,red,5ee6fc62447e98486758afc6,2021-09-27_18h00.45.897,forced_choiceRT_color,2021.2.3,Win32,59.94125757,,,,,,,,2,Ontime,short,j,1,2.0767,5,1,21,2,1,,,,,
0.83,,,,,,,,,f,blue,5ee6fc62447e98486758afc6,2021-09-27_18h00.45.897,forced_choiceRT_color,2021.2.3,Win32,59.94125757,,,,,,,,2,Ontime,short,f,1,2.0391,5,2,22,1,1,,,,,
0.68,,,,,,,,,j,red,5ee6fc62447e98486758afc6,2021-09-27_18h00.45.897,forced_choiceRT_color,2021.2.3,Win32,59.94125757,,,,,,,,2,Ontime,short,j,1,2.0508,5,3,23,2,1,,,,,
1.74,,,,,,,,,d,orange,5ee6fc62447e98486758afc6,2021-09-27_18h00.45.897,forced_choiceRT_color,2021.2.3,Win32,59.94125757,,,,,,,,2,Slow,short,d,1,2.1417,6,0,24,0,1,,,,,
1.62,,,,,,,,,j,red,5ee6fc62447e98486758afc6,2021-09-27_18h00.45.897,forced_choiceRT_color,2021.2.3,Win32,59.94125757,,,,,,,,2,Slow,short,j,1,2.1516,6,1,25,2,1,,,,,
0.75,,,,,,,,,d,orange,5ee6fc62447e98486758afc6,2021-09-27_18h00.45.897,forced_choiceRT_color,2021.2.3,Win32,59.94125757,,,,,,,,2,Ontime,short,d,1,2.0151,6,2,26,0,1,,,,,
1.6,,,,,,,,,j,red,5ee6fc62447e98486758afc6,2021-09-27_18h00.45.897,forced_choiceRT_color,2021.2.3,Win32,59.94125757,,,,,,,,2,Ontime,short,j,1,2.087,6,3,27,2,1,,,,,
1.72,,,,,,,,,f,blue,5ee6fc62447e98486758afc6,2021-09-27_18h00.45.897,forced_choiceRT_color,2021.2.3,Win32,59.94125757,,,,,,,,2,Ontime,short,f,1,2.0983,7,0,28,1,1,,,,,
1.09,,,,,,,,,f,blue,5ee6fc62447e98486758afc6,2021-09-27_18h00.45.897,forced_choiceRT_color,2021.2.3,Win32,59.94125757,,,,,,,,2,Ontime,short,f,1,2.0495,7,1,29,1,1,,,,,
1.36,,,,,,,,,j,red,5ee6fc62447e98486758afc6,2021-09-27_18h00.45.897,forced_choiceRT_color,2021.2.3,Win32,59.94125757,,,,,,,,2,Ontime,short,j,1,1.9723,7,2,30,2,1,,,,,
1.55,,,,,,,,,k,purple,5ee6fc62447e98486758afc6,2021-09-27_18h00.45.897,forced_choiceRT_color,2021.2.3,Win32,59.94125757,,,,,,,,2,Ontime,short,k,1,2.0908,7,3,31,3,1,,,,,
0.25,,,,,,,,,j,red,5ee6fc62447e98486758afc6,2021-09-27_18h00.45.897,forced_choiceRT_color,2021.2.3,Win32,59.94125757,,,,,,,,2,Ontime,short,j,1,2.0686,8,0,32,2,1,,,,,
1.69,,,,,,,,,k,purple,5ee6fc62447e98486758afc6,2021-09-27_18h00.45.897,forced_choiceRT_color,2021.2.3,Win32,59.94125757,,,,,,,,2,Ontime,short,f,0,2.0985,8,1,33,3,1,,,,,
1.5,,,,,,,,,k,purple,5ee6fc62447e98486758afc6,2021-09-27_18h00.45.897,forced_choiceRT_color,2021.2.3,Win32,59.94125757,,,,,,,,2,Ontime,short,d,0,2.0317,8,2,34,3,1,,,,,
1.94,,,,,,,,,k,purple,5ee6fc62447e98486758afc6,2021-09-27_18h00.45.897,forced_choiceRT_color,2021.2.3,Win32,59.94125757,,,,,,,,2,Slow,short,d,0,2.291,8,3,35,3,1,,,,,
0.23,,,,,,,,,f,blue,5ee6fc62447e98486758afc6,2021-09-27_18h00.45.897,forced_choiceRT_color,2021.2.3,Win32,59.94125757,,,,,,,,2,Ontime,short,f,1,2.0541,9,0,36,1,1,,,,,
1.61,,,,,,,,,d,orange,5ee6fc62447e98486758afc6,2021-09-27_18h00.45.897,forced_choiceRT_color,2021.2.3,Win32,59.94125757,,,,,,,,2,Ontime,short,d,1,2.0827,9,1,37,0,1,,,,,
1.69,,,,,,,,,d,orange,5ee6fc62447e98486758afc6,2021-09-27_18h00.45.897,forced_choiceRT_color,2021.2.3,Win32,59.94125757,,,,,,,,2,Slow,short,f,0,2.1486,9,2,38,0,1,,,,,
1.71,,,,,,,,,d,orange,5ee6fc62447e98486758afc6,2021-09-27_18h00.45.897,forced_choiceRT_color,2021.2.3,Win32,59.94125757,,,,,,,,2,Ontime,short,d,1,2.0653,9,3,39,0,1,,,,,
,,,,,,,,,,,5ee6fc62447e98486758afc6,2021-09-27_18h00.45.897,forced_choiceRT_color,2021.2.3,Win32,59.94125757,,,,,,,,,,,,,,,,,,,1,0,1,0,1
1.54,,,,,,,,,f,blue,5ee6fc62447e98486758afc6,2021-09-27_18h00.45.897,forced_choiceRT_color,2021.2.3,Win32,59.94125757,,,,,,,,3,Slow,short,f,1,2.1044,0,0,0,1,1,,,,,
1.86,,,,,,,,,j,red,5ee6fc62447e98486758afc6,2021-09-27_18h00.45.897,forced_choiceRT_color,2021.2.3,Win32,59.94125757,,,,,,,,3,Slow,short,d,0,2.3526,0,1,1,2,1,,,,,
0.8,,,,,,,,,j,red,5ee6fc62447e98486758afc6,2021-09-27_18h00.45.897,forced_choiceRT_color,2021.2.3,Win32,59.94125757,,,,,,,,3,Ontime,short,j,1,2.0582,0,2,2,2,1,,,,,
1.12,,,,,,,,,j,red,5ee6fc62447e98486758afc6,2021-09-27_18h00.45.897,forced_choiceRT_color,2021.2.3,Win32,59.94125757,,,,,,,,3,Ontime,short,j,1,2.0651,0,3,3,2,1,,,,,
0.61,,,,,,,,,k,purple,5ee6fc62447e98486758afc6,2021-09-27_18h00.45.897,forced_choiceRT_color,2021.2.3,Win32,59.94125757,,,,,,,,3,Ontime,short,k,1,2.0394,1,0,4,3,1,,,,,
0.82,,,,,,,,,j,red,5ee6fc62447e98486758afc6,2021-09-27_18h00.45.897,forced_choiceRT_color,2021.2.3,Win32,59.94125757,,,,,,,,3,Ontime,short,j,1,2.0589,1,1,5,2,1,,,,,
0.59,,,,,,,,,k,purple,5ee6fc62447e98486758afc6,2021-09-27_18h00.45.897,forced_choiceRT_color,2021.2.3,Win32,59.94125757,,,,,,,,3,Ontime,short,k,1,2.0651,1,2,6,3,1,,,,,
1.94,,,,,,,,,f,blue,5ee6fc62447e98486758afc6,2021-09-27_18h00.45.897,forced_choiceRT_color,2021.2.3,Win32,59.94125757,,,,,,,,3,Slow,short,d,0,2.2241,1,3,7,1,1,,,,,
1.83,,,,,,,,,d,orange,5ee6fc62447e98486758afc6,2021-09-27_18h00.45.897,forced_choiceRT_color,2021.2.3,Win32,59.94125757,,,,,,,,3,Slow,short,j,0,2.2552,2,0,8,0,1,,,,,
1.85,,,,,,,,,k,purple,5ee6fc62447e98486758afc6,2021-09-27_18h00.45.897,forced_choiceRT_color,2021.2.3,Win32,59.94125757,,,,,,,,3,Slow,short,d,0,2.2379,2,1,9,3,1,,,,,
1.29,,,,,,,,,d,orange,5ee6fc62447e98486758afc6,2021-09-27_18h00.45.897,forced_choiceRT_color,2021.2.3,Win32,59.94125757,,,,,,,,3,Ontime,short,d,1,1.9807,2,2,10,0,1,,,,,
1.51,,,,,,,,,f,blue,5ee6fc62447e98486758afc6,2021-09-27_18h00.45.897,forced_choiceRT_color,2021.2.3,Win32,59.94125757,,,,,,,,3,Slow,short,f,1,2.2343,2,3,11,1,1,,,,,
0.5,,,,,,,,,k,purple,5ee6fc62447e98486758afc6,2021-09-27_18h00.45.897,forced_choiceRT_color,2021.2.3,Win32,59.94125757,,,,,,,,3,Ontime,short,k,1,2.057,3,0,12,3,1,,,,,
0.45,,,,,,,,,f,blue,5ee6fc62447e98486758afc6,2021-09-27_18h00.45.897,forced_choiceRT_color,2021.2.3,Win32,59.94125757,,,,,,,,3,Ontime,short,f,1,2.06,3,1,13,1,1,,,,,
0.89,,,,,,,,,k,purple,5ee6fc62447e98486758afc6,2021-09-27_18h00.45.897,forced_choiceRT_color,2021.2.3,Win32,59.94125757,,,,,,,,3,Ontime,short,k,1,2.0485,3,2,14,3,1,,,,,
0.39,,,,,,,,,d,orange,5ee6fc62447e98486758afc6,2021-09-27_18h00.45.897,forced_choiceRT_color,2021.2.3,Win32,59.94125757,,,,,,,,3,Ontime,short,d,1,2.0501,3,3,15,0,1,,,,,
0.78,,,,,,,,,d,orange,5ee6fc62447e98486758afc6,2021-09-27_18h00.45.897,forced_choiceRT_color,2021.2.3,Win32,59.94125757,,,,,,,,3,Ontime,short,d,1,2.0849,4,0,16,0,1,,,,,
1.86,,,,,,,,,f,blue,5ee6fc62447e98486758afc6,2021-09-27_18h00.45.897,forced_choiceRT_color,2021.2.3,Win32,59.94125757,,,,,,,,3,Slow,short,f,1,2.3344,4,1,17,1,1,,,,,
1.83,,,,,,,,,j,red,5ee6fc62447e98486758afc6,2021-09-27_18h00.45.897,forced_choiceRT_color,2021.2.3,Win32,59.94125757,,,,,,,,3,Slow,short,j,1,2.2875,4,2,18,2,1,,,,,
0.47,,,,,,,,,k,purple,5ee6fc62447e98486758afc6,2021-09-27_18h00.45.897,forced_choiceRT_color,2021.2.3,Win32,59.94125757,,,,,,,,3,Ontime,short,k,1,2.0861,4,3,19,3,1,,,,,
1.5,,,,,,,,,f,blue,5ee6fc62447e98486758afc6,2021-09-27_18h00.45.897,forced_choiceRT_color,2021.2.3,Win32,59.94125757,,,,,,,,3,Ontime,short,f,1,2.0818,5,0,20,1,1,,,,,
0.97,,,,,,,,,d,orange,5ee6fc62447e98486758afc6,2021-09-27_18h00.45.897,forced_choiceRT_color,2021.2.3,Win32,59.94125757,,,,,,,,3,Ontime,short,d,1,2.0985,5,1,21,0,1,,,,,
1.52,,,,,,,,,f,blue,5ee6fc62447e98486758afc6,2021-09-27_18h00.45.897,forced_choiceRT_color,2021.2.3,Win32,59.94125757,,,,,,,,3,Ontime,short,f,1,2.0818,5,2,22,1,1,,,,,
1,,,,,,,,,d,orange,5ee6fc62447e98486758afc6,2021-09-27_18h00.45.897,forced_choiceRT_color,2021.2.3,Win32,59.94125757,,,,,,,,3,Ontime,short,d,1,2.0834,5,3,23,0,1,,,,,
0.1,,,,,,,,,k,purple,5ee6fc62447e98486758afc6,2021-09-27_18h00.45.897,forced_choiceRT_color,2021.2.3,Win32,59.94125757,,,,,,,,3,Ontime,short,k,1,2.0532,6,0,24,3,1,,,,,
1.86,,,,,,,,,d,orange,5ee6fc62447e98486758afc6,2021-09-27_18h00.45.897,forced_choiceRT_color,2021.2.3,Win32,59.94125757,,,,,,,,3,Slow,short,f,0,2.2,6,1,25,0,1,,,,,
1.34,,,,,,,,,f,blue,5ee6fc62447e98486758afc6,2021-09-27_18h00.45.897,forced_choiceRT_color,2021.2.3,Win32,59.94125757,,,,,,,,3,Ontime,short,f,1,2.0635,6,2,26,1,1,,,,,
1.59,,,,,,,,,k,purple,5ee6fc62447e98486758afc6,2021-09-27_18h00.45.897,forced_choiceRT_color,2021.2.3,Win32,59.94125757,,,,,,,,3,Slow,short,k,1,2.1062,6,3,27,3,1,,,,,
0.62,,,,,,,,,k,purple,5ee6fc62447e98486758afc6,2021-09-27_18h00.45.897,forced_choiceRT_color,2021.2.3,Win32,59.94125757,,,,,,,,3,Ontime,short,k,1,2.0545,7,0,28,3,1,,,,,
1.12,,,,,,,,,k,purple,5ee6fc62447e98486758afc6,2021-09-27_18h00.45.897,forced_choiceRT_color,2021.2.3,Win32,59.94125757,,,,,,,,3,Ontime,short,k,1,2.0416,7,1,29,3,1,,,,,
1.14,,,,,,,,,j,red,5ee6fc62447e98486758afc6,2021-09-27_18h00.45.897,forced_choiceRT_color,2021.2.3,Win32,59.94125757,,,,,,,,3,Slow,short,j,1,2.1332,7,2,30,2,1,,,,,
0.77,,,,,,,,,j,red,5ee6fc62447e98486758afc6,2021-09-27_18h00.45.897,forced_choiceRT_color,2021.2.3,Win32,59.94125757,,,,,,,,3,Ontime,short,j,1,2.0721,7,3,31,2,1,,,,,
0.8,,,,,,,,,d,orange,5ee6fc62447e98486758afc6,2021-09-27_18h00.45.897,forced_choiceRT_color,2021.2.3,Win32,59.94125757,,,,,,,,3,Ontime,short,d,1,2.0744,8,0,32,0,1,,,,,
1.38,,,,,,,,,f,blue,5ee6fc62447e98486758afc6,2021-09-27_18h00.45.897,forced_choiceRT_color,2021.2.3,Win32,59.94125757,,,,,,,,3,Slow,short,f,1,2.1197,8,1,33,1,1,,,,,
1.5,,,,,,,,,j,red,5ee6fc62447e98486758afc6,2021-09-27_18h00.45.897,forced_choiceRT_color,2021.2.3,Win32,59.94125757,,,,,,,,3,Ontime,short,j,1,1.9917,8,2,34,2,1,,,,,
1.16,,,,,,,,,d,orange,5ee6fc62447e98486758afc6,2021-09-27_18h00.45.897,forced_choiceRT_color,2021.2.3,Win32,59.94125757,,,,,,,,3,Slow,short,k,0,2.1259,8,3,35,0,1,,,,,
0.97,,,,,,,,,j,red,5ee6fc62447e98486758afc6,2021-09-27_18h00.45.897,forced_choiceRT_color,2021.2.3,Win32,59.94125757,,,,,,,,3,Ontime,short,j,1,2.0735,9,0,36,2,1,,,,,
1.21,,,,,,,,,d,orange,5ee6fc62447e98486758afc6,2021-09-27_18h00.45.897,forced_choiceRT_color,2021.2.3,Win32,59.94125757,,,,,,,,3,Ontime,short,d,1,2.0997,9,1,37,0,1,,,,,
0.66,,,,,,,,,f,blue,5ee6fc62447e98486758afc6,2021-09-27_18h00.45.897,forced_choiceRT_color,2021.2.3,Win32,59.94125757,,,,,,,,3,Ontime,short,f,1,2.0828,9,2,38,1,1,,,,,
1.3,,,,,,,,,j,red,5ee6fc62447e98486758afc6,2021-09-27_18h00.45.897,forced_choiceRT_color,2021.2.3,Win32,59.94125757,,,,,,,,3,Slow,short,j,1,2.1342,9,3,39,2,1,,,,,
,,,,,,,,,,,5ee6fc62447e98486758afc6,2021-09-27_18h00.45.897,forced_choiceRT_color,2021.2.3,Win32,59.94125757,,,,,,,,,,,,,,,,,,,2,0,2,0,1
0.75,,,,,,,,,f,blue,5ee6fc62447e98486758afc6,2021-09-27_18h00.45.897,forced_choiceRT_color,2021.2.3,Win32,59.94125757,,,,,,,,4,Ontime,short,f,1,2.0126,0,0,0,1,1,,,,,
1,,,,,,,,,d,orange,5ee6fc62447e98486758afc6,2021-09-27_18h00.45.897,forced_choiceRT_color,2021.2.3,Win32,59.94125757,,,,,,,,4,Ontime,short,d,1,2.0818,0,1,1,0,1,,,,,
0.39,,,,,,,,,f,blue,5ee6fc62447e98486758afc6,2021-09-27_18h00.45.897,forced_choiceRT_color,2021.2.3,Win32,59.94125757,,,,,,,,4,Ontime,short,f,1,2.0318,0,2,2,1,1,,,,,
0.16,,,,,,,,,k,purple,5ee6fc62447e98486758afc6,2021-09-27_18h00.45.897,forced_choiceRT_color,2021.2.3,Win32,59.94125757,,,,,,,,4,Ontime,short,k,1,1.9868,0,3,3,3,1,,,,,
1.31,,,,,,,,,d,orange,5ee6fc62447e98486758afc6,2021-09-27_18h00.45.897,forced_choiceRT_color,2021.2.3,Win32,59.94125757,,,,,,,,4,Ontime,short,f,0,2.0086,1,0,4,0,1,,,,,
1.53,,,,,,,,,j,red,5ee6fc62447e98486758afc6,2021-09-27_18h00.45.897,forced_choiceRT_color,2021.2.3,Win32,59.94125757,,,,,,,,4,Slow,short,j,1,2.1414,1,1,5,2,1,,,,,
0.56,,,,,,,,,d,orange,5ee6fc62447e98486758afc6,2021-09-27_18h00.45.897,forced_choiceRT_color,2021.2.3,Win32,59.94125757,,,,,,,,4,Ontime,short,d,1,2.0723,1,2,6,0,1,,,,,
1.58,,,,,,,,,k,purple,5ee6fc62447e98486758afc6,2021-09-27_18h00.45.897,forced_choiceRT_color,2021.2.3,Win32,59.94125757,,,,,,,,4,Ontime,short,k,1,2.0985,1,3,7,3,1,,,,,
0.18,,,,,,,,,j,red,5ee6fc62447e98486758afc6,2021-09-27_18h00.45.897,forced_choiceRT_color,2021.2.3,Win32,59.94125757,,,,,,,,4,Ontime,short,j,1,2.0595,2,0,8,2,1,,,,,
0.45,,,,,,,,,d,orange,5ee6fc62447e98486758afc6,2021-09-27_18h00.45.897,forced_choiceRT_color,2021.2.3,Win32,59.94125757,,,,,,,,4,Ontime,short,d,1,2.0818,2,1,9,0,1,,,,,
0.97,,,,,,,,,d,orange,5ee6fc62447e98486758afc6,2021-09-27_18h00.45.897,forced_choiceRT_color,2021.2.3,Win32,59.94125757,,,,,,,,4,Ontime,short,d,1,2.032,2,2,10,0,1,,,,,
0.37,,,,,,,,,k,purple,5ee6fc62447e98486758afc6,2021-09-27_18h00.45.897,forced_choiceRT_color,2021.2.3,Win32,59.94125757,,,,,,,,4,Ontime,short,k,1,2.0756,2,3,11,3,1,,,,,
1.4,,,,,,,,,k,purple,5ee6fc62447e98486758afc6,2021-09-27_18h00.45.897,forced_choiceRT_color,2021.2.3,Win32,59.94125757,,,,,,,,4,Slow,short,k,1,2.1258,3,0,12,3,1,,,,,
0.27,,,,,,,,,j,red,5ee6fc62447e98486758afc6,2021-09-27_18h00.45.897,forced_choiceRT_color,2021.2.3,Win32,59.94125757,,,,,,,,4,Ontime,short,j,1,2.0875,3,1,13,2,1,,,,,
1.83,,,,,,,,,f,blue,5ee6fc62447e98486758afc6,2021-09-27_18h00.45.897,forced_choiceRT_color,2021.2.3,Win32,59.94125757,,,,,,,,4,Slow,short,f,1,2.1651,3,2,14,1,1,,,,,
1.78,,,,,,,,,f,blue,5ee6fc62447e98486758afc6,2021-09-27_18h00.45.897,forced_choiceRT_color,2021.2.3,Win32,59.94125757,,,,,,,,4,Slow,short,f,1,2.1166,3,3,15,1,1,,,,,
1.41,,,,,,,,,d,orange,5ee6fc62447e98486758afc6,2021-09-27_18h00.45.897,forced_choiceRT_color,2021.2.3,Win32,59.94125757,,,,,,,,4,Ontime,short,d,1,2.0321,4,0,16,0,1,,,,,
0.84,,,,,,,,,d,orange,5ee6fc62447e98486758afc6,2021-09-27_18h00.45.897,forced_choiceRT_color,2021.2.3,Win32,59.94125757,,,,,,,,4,Ontime,short,d,1,2.0917,4,1,17,0,1,,,,,
0.17,,,,,,,,,f,blue,5ee6fc62447e98486758afc6,2021-09-27_18h00.45.897,forced_choiceRT_color,2021.2.3,Win32,59.94125757,,,,,,,,4,Ontime,short,f,1,2.0653,4,2,18,1,1,,,,,
1.48,,,,,,,,,j,red,5ee6fc62447e98486758afc6,2021-09-27_18h00.45.897,forced_choiceRT_color,2021.2.3,Win32,59.94125757,,,,,,,,4,Ontime,short,j,1,2.0988,4,3,19,2,1,,,,,
1.07,,,,,,,,,j,red,5ee6fc62447e98486758afc6,2021-09-27_18h00.45.897,forced_choiceRT_color,2021.2.3,Win32,59.94125757,,,,,,,,4,Ontime,short,j,1,2.0724,5,0,20,2,1,,,,,
1.04,,,,,,,,,j,red,5ee6fc62447e98486758afc6,2021-09-27_18h00.45.897,forced_choiceRT_color,2021.2.3,Win32,59.94125757,,,,,,,,4,Ontime,short,j,1,2.0825,5,1,21,2,1,,,,,
1.22,,,,,,,,,d,orange,5ee6fc62447e98486758afc6,2021-09-27_18h00.45.897,forced_choiceRT_color,2021.2.3,Win32,59.94125757,,,,,,,,4,Ontime,short,d,1,2.0838,5,2,22,0,1,,,,,
0.46,,,,,,,,,k,purple,5ee6fc62447e98486758afc6,2021-09-27_18h00.45.897,forced_choiceRT_color,2021.2.3,Win32,59.94125757,,,,,,,,4,Slow,short,k,1,2.1181,5,3,23,3,1,,,,,
1.61,,,,,,,,,j,red,5ee6fc62447e98486758afc6,2021-09-27_18h00.45.897,forced_choiceRT_color,2021.2.3,Win32,59.94125757,,,,,,,,4,Slow,short,f,0,2.2176,6,0,24,2,1,,,,,
0.84,,,,,,,,,f,blue,5ee6fc62447e98486758afc6,2021-09-27_18h00.45.897,forced_choiceRT_color,2021.2.3,Win32,59.94125757,,,,,,,,4,Ontime,short,f,1,2.0162,6,1,25,1,1,,,,,
1.64,,,,,,,,,k,purple,5ee6fc62447e98486758afc6,2021-09-27_18h00.45.897,forced_choiceRT_color,2021.2.3,Win32,59.94125757,,,,,,,,4,Slow,short,k,1,2.1884,6,2,26,3,1,,,,,
1.01,,,,,,,,,k,purple,5ee6fc62447e98486758afc6,2021-09-27_18h00.45.897,forced_choiceRT_color,2021.2.3,Win32,59.94125757,,,,,,,,4,Ontime,short,k,1,2.0362,6,3,27,3,1,,,,,
0.31,,,,,,,,,k,purple,5ee6fc62447e98486758afc6,2021-09-27_18h00.45.897,forced_choiceRT_color,2021.2.3,Win32,59.94125757,,,,,,,,4,Ontime,short,k,1,2.033,7,0,28,3,1,,,,,
0.13,,,,,,,,,f,blue,5ee6fc62447e98486758afc6,2021-09-27_18h00.45.897,forced_choiceRT_color,2021.2.3,Win32,59.94125757,,,,,,,,4,Ontime,short,f,1,2.0368,7,1,29,1,1,,,,,
0.37,,,,,,,,,j,red,5ee6fc62447e98486758afc6,2021-09-27_18h00.45.897,forced_choiceRT_color,2021.2.3,Win32,59.94125757,,,,,,,,4,Ontime,short,j,1,2.0883,7,2,30,2,1,,,,,
1.75,,,,,,,,,d,orange,5ee6fc62447e98486758afc6,2021-09-27_18h00.45.897,forced_choiceRT_color,2021.2.3,Win32,59.94125757,,,,,,,,4,Slow,short,d,1,2.17,7,3,31,0,1,,,,,
0.3,,,,,,,,,f,blue,5ee6fc62447e98486758afc6,2021-09-27_18h00.45.897,forced_choiceRT_color,2021.2.3,Win32,59.94125757,,,,,,,,4,Ontime,short,f,1,2.0355,8,0,32,1,1,,,,,
0.39,,,,,,,,,k,purple,5ee6fc62447e98486758afc6,2021-09-27_18h00.45.897,forced_choiceRT_color,2021.2.3,Win32,59.94125757,,,,,,,,4,Ontime,short,k,1,2.0711,8,1,33,3,1,,,,,
0.33,,,,,,,,,d,orange,5ee6fc62447e98486758afc6,2021-09-27_18h00.45.897,forced_choiceRT_color,2021.2.3,Win32,59.94125757,,,,,,,,4,Ontime,short,d,1,2.0336,8,2,34,0,1,,,,,
1.93,,,,,,,,,f,blue,5ee6fc62447e98486758afc6,2021-09-27_18h00.45.897,forced_choiceRT_color,2021.2.3,Win32,59.94125757,,,,,,,,4,Slow,short,j,0,2.2317,8,3,35,1,1,,,,,
0.89,,,,,,,,,k,purple,5ee6fc62447e98486758afc6,2021-09-27_18h00.45.897,forced_choiceRT_color,2021.2.3,Win32,59.94125757,,,,,,,,4,Ontime,short,k,1,2.0506,9,0,36,3,1,,,,,
0.2,,,,,,,,,j,red,5ee6fc62447e98486758afc6,2021-09-27_18h00.45.897,forced_choiceRT_color,2021.2.3,Win32,59.94125757,,,,,,,,4,Ontime,short,j,1,2.0707,9,1,37,2,1,,,,,
0.16,,,,,,,,,j,red,5ee6fc62447e98486758afc6,2021-09-27_18h00.45.897,forced_choiceRT_color,2021.2.3,Win32,59.94125757,,,,,,,,4,Ontime,short,j,1,2.0568,9,2,38,2,1,,,,,
0.98,,,,,,,,,f,blue,5ee6fc62447e98486758afc6,2021-09-27_18h00.45.897,forced_choiceRT_color,2021.2.3,Win32,59.94125757,,,,,,,,4,Ontime,short,f,1,1.9815,9,3,39,1,1,,,,,
,,,,,,,,,,,5ee6fc62447e98486758afc6,2021-09-27_18h00.45.897,forced_choiceRT_color,2021.2.3,Win32,59.94125757,,,,,,,,,,,,,,,,,,,3,0,3,0,1
0.55,,,,,,,,,f,blue,5ee6fc62447e98486758afc6,2021-09-27_18h00.45.897,forced_choiceRT_color,2021.2.3,Win32,59.94125757,,,,,,,,5,Ontime,short,f,1,2.047,0,0,0,1,1,,,,,
0.6,,,,,,,,,k,purple,5ee6fc62447e98486758afc6,2021-09-27_18h00.45.897,forced_choiceRT_color,2021.2.3,Win32,59.94125757,,,,,,,,5,Ontime,short,k,1,2.0563,0,1,1,3,1,,,,,
1.77,,,,,,,,,k,purple,5ee6fc62447e98486758afc6,2021-09-27_18h00.45.897,forced_choiceRT_color,2021.2.3,Win32,59.94125757,,,,,,,,5,Slow,short,j,0,2.1392,0,2,2,3,1,,,,,
0.11,,,,,,,,,f,blue,5ee6fc62447e98486758afc6,2021-09-27_18h00.45.897,forced_choiceRT_color,2021.2.3,Win32,59.94125757,,,,,,,,5,Ontime,short,f,1,2.0648,0,3,3,1,1,,,,,
0.93,,,,,,,,,k,purple,5ee6fc62447e98486758afc6,2021-09-27_18h00.45.897,forced_choiceRT_color,2021.2.3,Win32,59.94125757,,,,,,,,5,Ontime,short,k,1,2.0984,1,0,4,3,1,,,,,
0.12,,,,,,,,,f,blue,5ee6fc62447e98486758afc6,2021-09-27_18h00.45.897,forced_choiceRT_color,2021.2.3,Win32,59.94125757,,,,,,,,5,Ontime,short,f,1,2.0652,1,1,5,1,1,,,,,
0.82,,,,,,,,,j,red,5ee6fc62447e98486758afc6,2021-09-27_18h00.45.897,forced_choiceRT_color,2021.2.3,Win32,59.94125757,,,,,,,,5,Ontime,short,j,1,2.0434,1,2,6,2,1,,,,,
0.8,,,,,,,,,f,blue,5ee6fc62447e98486758afc6,2021-09-27_18h00.45.897,forced_choiceRT_color,2021.2.3,Win32,59.94125757,,,,,,,,5,Ontime,short,f,1,2.0483,1,3,7,1,1,,,,,
0.87,,,,,,,,,d,orange,5ee6fc62447e98486758afc6,2021-09-27_18h00.45.897,forced_choiceRT_color,2021.2.3,Win32,59.94125757,,,,,,,,5,Ontime,short,d,1,2.0821,2,0,8,0,1,,,,,
0.48,,,,,,,,,k,purple,5ee6fc62447e98486758afc6,2021-09-27_18h00.45.897,forced_choiceRT_color,2021.2.3,Win32,59.94125757,,,,,,,,5,Ontime,short,k,1,2.0755,2,1,9,3,1,,,,,
0.98,,,,,,,,,k,purple,5ee6fc62447e98486758afc6,2021-09-27_18h00.45.897,forced_choiceRT_color,2021.2.3,Win32,59.94125757,,,,,,,,5,Ontime,short,k,1,2.0819,2,2,10,3,1,,,,,
1.56,,,,,,,,,d,orange,5ee6fc62447e98486758afc6,2021-09-27_18h00.45.897,forced_choiceRT_color,2021.2.3,Win32,59.94125757,,,,,,,,5,Ontime,short,f,0,2.0651,2,3,11,0,1,,,,,
0.16,,,,,,,,,k,purple,5ee6fc62447e98486758afc6,2021-09-27_18h00.45.897,forced_choiceRT_color,2021.2.3,Win32,59.94125757,,,,,,,,5,Fast,short,d,0,0.0176,3,0,12,3,1,,,,,
0.9,,,,,,,,,d,orange,5ee6fc62447e98486758afc6,2021-09-27_18h00.45.897,forced_choiceRT_color,2021.2.3,Win32,59.94125757,,,,,,,,5,Ontime,short,d,1,2.0361,3,1,13,0,1,,,,,
0.16,,,,,,,,,d,orange,5ee6fc62447e98486758afc6,2021-09-27_18h00.45.897,forced_choiceRT_color,2021.2.3,Win32,59.94125757,,,,,,,,5,Ontime,short,d,1,2.0714,3,2,14,0,1,,,,,
0.3,,,,,,,,,k,purple,5ee6fc62447e98486758afc6,2021-09-27_18h00.45.897,forced_choiceRT_color,2021.2.3,Win32,59.94125757,,,,,,,,5,Ontime,short,k,1,2.0655,3,3,15,3,1,,,,,
1.12,,,,,,,,,j,red,5ee6fc62447e98486758afc6,2021-09-27_18h00.45.897,forced_choiceRT_color,2021.2.3,Win32,59.94125757,,,,,,,,5,Ontime,short,j,1,2.0678,4,0,16,2,1,,,,,
0.59,,,,,,,,,f,blue,5ee6fc62447e98486758afc6,2021-09-27_18h00.45.897,forced_choiceRT_color,2021.2.3,Win32,59.94125757,,,,,,,,5,Ontime,short,f,1,2.0317,4,1,17,1,1,,,,,
0.95,,,,,,,,,d,orange,5ee6fc62447e98486758afc6,2021-09-27_18h00.45.897,forced_choiceRT_color,2021.2.3,Win32,59.94125757,,,,,,,,5,Ontime,short,d,1,2.0576,4,2,18,0,1,,,,,
1.95,,,,,,,,,j,red,5ee6fc62447e98486758afc6,2021-09-27_18h00.45.897,forced_choiceRT_color,2021.2.3,Win32,59.94125757,,,,,,,,5,Slow,short,d,0,2.2319,4,3,19,2,1,,,,,
0.74,,,,,,,,,k,purple,5ee6fc62447e98486758afc6,2021-09-27_18h00.45.897,forced_choiceRT_color,2021.2.3,Win32,59.94125757,,,,,,,,5,Ontime,short,k,1,2.075,5,0,20,3,1,,,,,
1.86,,,,,,,,,j,red,5ee6fc62447e98486758afc6,2021-09-27_18h00.45.897,forced_choiceRT_color,2021.2.3,Win32,59.94125757,,,,,,,,5,Slow,short,j,1,2.1818,5,1,21,2,1,,,,,
1.9,,,,,,,,,j,red,5ee6fc62447e98486758afc6,2021-09-27_18h00.45.897,forced_choiceRT_color,2021.2.3,Win32,59.94125757,,,,,,,,5,Slow,short,j,1,2.1425,5,2,22,2,1,,,,,
1.48,,,,,,,,,f,blue,5ee6fc62447e98486758afc6,2021-09-27_18h00.45.897,forced_choiceRT_color,2021.2.3,Win32,59.94125757,,,,,,,,5,Ontime,short,f,1,2.0488,5,3,23,1,1,,,,,
0.89,,,,,,,,,d,orange,5ee6fc62447e98486758afc6,2021-09-27_18h00.45.897,forced_choiceRT_color,2021.2.3,Win32,59.94125757,,,,,,,,5,Ontime,short,d,1,2.0923,6,0,24,0,1,,,,,
0.84,,,,,,,,,f,blue,5ee6fc62447e98486758afc6,2021-09-27_18h00.45.897,forced_choiceRT_color,2021.2.3,Win32,59.94125757,,,,,,,,5,Ontime,short,f,1,2.0864,6,1,25,1,1,,,,,
0.02,,,,,,,,,k,purple,5ee6fc62447e98486758afc6,2021-09-27_18h00.45.897,forced_choiceRT_color,2021.2.3,Win32,59.94125757,,,,,,,,5,Slow,short,k,1,2.1034,6,2,26,3,1,,,,,
0.33,,,,,,,,,d,orange,5ee6fc62447e98486758afc6,2021-09-27_18h00.45.897,forced_choiceRT_color,2021.2.3,Win32,59.94125757,,,,,,,,5,Ontime,short,d,1,2.0151,6,3,27,0,1,,,,,
0.61,,,,,,,,,f,blue,5ee6fc62447e98486758afc6,2021-09-27_18h00.45.897,forced_choiceRT_color,2021.2.3,Win32,59.94125757,,,,,,,,5,Ontime,short,f,1,2.0651,7,0,28,1,1,,,,,
1.73,,,,,,,,,j,red,5ee6fc62447e98486758afc6,2021-09-27_18h00.45.897,forced_choiceRT_color,2021.2.3,Win32,59.94125757,,,,,,,,5,Slow,short,k,0,2.1544,7,1,29,2,1,,,,,
1.88,,,,,,,,,j,red,5ee6fc62447e98486758afc6,2021-09-27_18h00.45.897,forced_choiceRT_color,2021.2.3,Win32,59.94125757,,,,,,,,5,Slow,short,j,1,2.1984,7,2,30,2,1,,,,,
0.84,,,,,,,,,f,blue,5ee6fc62447e98486758afc6,2021-09-27_18h00.45.897,forced_choiceRT_color,2021.2.3,Win32,59.94125757,,,,,,,,5,Ontime,short,f,1,2.0757,7,3,31,1,1,,,,,
0.7,,,,,,,,,k,purple,5ee6fc62447e98486758afc6,2021-09-27_18h00.45.897,forced_choiceRT_color,2021.2.3,Win32,59.94125757,,,,,,,,5,Ontime,short,k,1,2.0818,8,0,32,3,1,,,,,
1.38,,,,,,,,,j,red,5ee6fc62447e98486758afc6,2021-09-27_18h00.45.897,forced_choiceRT_color,2021.2.3,Win32,59.94125757,,,,,,,,5,Ontime,short,j,1,1.9523,8,1,33,2,1,,,,,
0.97,,,,,,,,,d,orange,5ee6fc62447e98486758afc6,2021-09-27_18h00.45.897,forced_choiceRT_color,2021.2.3,Win32,59.94125757,,,,,,,,5,Slow,short,d,1,2.1511,8,2,34,0,1,,,,,
0.33,,,,,,,,,j,red,5ee6fc62447e98486758afc6,2021-09-27_18h00.45.897,forced_choiceRT_color,2021.2.3,Win32,59.94125757,,,,,,,,5,Ontime,short,j,1,2.0244,8,3,35,2,1,,,,,
1.56,,,,,,,,,d,orange,5ee6fc62447e98486758afc6,2021-09-27_18h00.45.897,forced_choiceRT_color,2021.2.3,Win32,59.94125757,,,,,,,,5,Ontime,short,d,1,2.0928,9,0,36,0,1,,,,,
1.95,,,,,,,,,j,red,5ee6fc62447e98486758afc6,2021-09-27_18h00.45.897,forced_choiceRT_color,2021.2.3,Win32,59.94125757,,,,,,,,5,Slow,short,f,0,2.1664,9,1,37,2,1,,,,,
1.55,,,,,,,,,f,blue,5ee6fc62447e98486758afc6,2021-09-27_18h00.45.897,forced_choiceRT_color,2021.2.3,Win32,59.94125757,,,,,,,,5,Ontime,short,f,1,2.0317,9,2,38,1,1,,,,,
1.68,,,,,,,,,d,orange,5ee6fc62447e98486758afc6,2021-09-27_18h00.45.897,forced_choiceRT_color,2021.2.3,Win32,59.94125757,,,,,,,,5,Slow,short,d,1,2.1553,9,3,39,0,1,,,,,
,,,,,,,,,,,5ee6fc62447e98486758afc6,2021-09-27_18h00.45.897,forced_choiceRT_color,2021.2.3,Win32,59.94125757,,,,,,,,,,,,,,,,,,,4,0,4,0,1
0.04,,,,,,,,,k,purple,5ee6fc62447e98486758afc6,2021-09-27_18h00.45.897,forced_choiceRT_color,2021.2.3,Win32,59.94125757,,,,,,,,6,Ontime,short,k,1,2.0598,0,0,0,3,1,,,,,
0.85,,,,,,,,,d,orange,5ee6fc62447e98486758afc6,2021-09-27_18h00.45.897,forced_choiceRT_color,2021.2.3,Win32,59.94125757,,,,,,,,6,Ontime,short,f,0,2.0255,0,1,1,0,1,,,,,
1.43,,,,,,,,,k,purple,5ee6fc62447e98486758afc6,2021-09-27_18h00.45.897,forced_choiceRT_color,2021.2.3,Win32,59.94125757,,,,,,,,6,Ontime,short,k,1,2.0485,0,2,2,3,1,,,,,
0.9,,,,,,,,,k,purple,5ee6fc62447e98486758afc6,2021-09-27_18h00.45.897,forced_choiceRT_color,2021.2.3,Win32,59.94125757,,,,,,,,6,Ontime,short,k,1,2.0818,0,3,3,3,1,,,,,
0.69,,,,,,,,,f,blue,5ee6fc62447e98486758afc6,2021-09-27_18h00.45.897,forced_choiceRT_color,2021.2.3,Win32,59.94125757,,,,,,,,6,Ontime,short,f,1,2.0983,1,0,4,1,1,,,,,
0.94,,,,,,,,,d,orange,5ee6fc62447e98486758afc6,2021-09-27_18h00.45.897,forced_choiceRT_color,2021.2.3,Win32,59.94125757,,,,,,,,6,Ontime,short,d,1,2.0355,1,1,5,0,1,,,,,
1.79,,,,,,,,,f,blue,5ee6fc62447e98486758afc6,2021-09-27_18h00.45.897,forced_choiceRT_color,2021.2.3,Win32,59.94125757,,,,,,,,6,Slow,short,f,1,2.1907,1,2,6,1,1,,,,,
0.51,,,,,,,,,j,red,5ee6fc62447e98486758afc6,2021-09-27_18h00.45.897,forced_choiceRT_color,2021.2.3,Win32,59.94125757,,,,,,,,6,Ontime,short,j,1,2.0971,1,3,7,2,1,,,,,
1.27,,,,,,,,,k,purple,5ee6fc62447e98486758afc6,2021-09-27_18h00.45.897,forced_choiceRT_color,2021.2.3,Win32,59.94125757,,,,,,,,6,Ontime,short,d,0,2.0879,2,0,8,3,1,,,,,
1.21,,,,,,,,,f,blue,5ee6fc62447e98486758afc6,2021-09-27_18h00.45.897,forced_choiceRT_color,2021.2.3,Win32,59.94125757,,,,,,,,6,Slow,short,d,0,2.1214,2,1,9,1,1,,,,,
1.01,,,,,,,,,d,orange,5ee6fc62447e98486758afc6,2021-09-27_18h00.45.897,forced_choiceRT_color,2021.2.3,Win32,59.94125757,,,,,,,,6,Ontime,short,d,1,1.9884,2,2,10,0,1,,,,,
1.12,,,,,,,,,j,red,5ee6fc62447e98486758afc6,2021-09-27_18h00.45.897,forced_choiceRT_color,2021.2.3,Win32,59.94125757,,,,,,,,6,Ontime,short,j,1,2.0901,2,3,11,2,1,,,,,
0,,,,,,,,,f,blue,5ee6fc62447e98486758afc6,2021-09-27_18h00.45.897,forced_choiceRT_color,2021.2.3,Win32,59.94125757,,,,,,,,6,Ontime,short,f,1,2.0199,3,0,12,1,1,,,,,
1.95,,,,,,,,,d,orange,5ee6fc62447e98486758afc6,2021-09-27_18h00.45.897,forced_choiceRT_color,2021.2.3,Win32,59.94125757,,,,,,,,6,Slow,short,d,1,2.2159,3,1,13,0,1,,,,,
1.29,,,,,,,,,f,blue,5ee6fc62447e98486758afc6,2021-09-27_18h00.45.897,forced_choiceRT_color,2021.2.3,Win32,59.94125757,,,,,,,,6,Ontime,short,f,1,1.9728,3,2,14,1,1,,,,,
1.37,,,,,,,,,k,purple,5ee6fc62447e98486758afc6,2021-09-27_18h00.45.897,forced_choiceRT_color,2021.2.3,Win32,59.94125757,,,,,,,,6,Ontime,short,k,1,2.0697,3,3,15,3,1,,,,,
1.76,,,,,,,,,k,purple,5ee6fc62447e98486758afc6,2021-09-27_18h00.45.897,forced_choiceRT_color,2021.2.3,Win32,59.94125757,,,,,,,,6,Slow,short,k,1,2.1035,4,0,16,3,1,,,,,
0.21,,,,,,,,,f,blue,5ee6fc62447e98486758afc6,2021-09-27_18h00.45.897,forced_choiceRT_color,2021.2.3,Win32,59.94125757,,,,,,,,6,Ontime,short,f,1,2.0512,4,1,17,1,1,,,,,
1.31,,,,,,,,,k,purple,5ee6fc62447e98486758afc6,2021-09-27_18h00.45.897,forced_choiceRT_color,2021.2.3,Win32,59.94125757,,,,,,,,6,Slow,short,k,1,2.134,4,2,18,3,1,,,,,
1.94,,,,,,,,,j,red,5ee6fc62447e98486758afc6,2021-09-27_18h00.45.897,forced_choiceRT_color,2021.2.3,Win32,59.94125757,,,,,,,,6,Slow,short,j,1,2.4823,4,3,19,2,1,,,,,
1.29,,,,,,,,,j,red,5ee6fc62447e98486758afc6,2021-09-27_18h00.45.897,forced_choiceRT_color,2021.2.3,Win32,59.94125757,,,,,,,,6,Ontime,short,j,1,2.0648,5,0,20,2,1,,,,,
1.65,,,,,,,,,d,orange,5ee6fc62447e98486758afc6,2021-09-27_18h00.45.897,forced_choiceRT_color,2021.2.3,Win32,59.94125757,,,,,,,,6,Slow,short,d,1,2.1036,5,1,21,0,1,,,,,
0.36,,,,,,,,,f,blue,5ee6fc62447e98486758afc6,2021-09-27_18h00.45.897,forced_choiceRT_color,2021.2.3,Win32,59.94125757,,,,,,,,6,Ontime,short,f,1,2.0318,5,2,22,1,1,,,,,
0.53,,,,,,,,,k,purple,5ee6fc62447e98486758afc6,2021-09-27_18h00.45.897,forced_choiceRT_color,2021.2.3,Win32,59.94125757,,,,,,,,6,Ontime,short,k,1,2.0483,5,3,23,3,1,,,,,
0.64,,,,,,,,,d,orange,5ee6fc62447e98486758afc6,2021-09-27_18h00.45.897,forced_choiceRT_color,2021.2.3,Win32,59.94125757,,,,,,,,6,Ontime,short,d,1,2.002,6,0,24,0,1,,,,,
1.55,,,,,,,,,j,red,5ee6fc62447e98486758afc6,2021-09-27_18h00.45.897,forced_choiceRT_color,2021.2.3,Win32,59.94125757,,,,,,,,6,Ontime,short,j,1,2.0227,6,1,25,2,1,,,,,
1.16,,,,,,,,,f,blue,5ee6fc62447e98486758afc6,2021-09-27_18h00.45.897,forced_choiceRT_color,2021.2.3,Win32,59.94125757,,,,,,,,6,Ontime,short,f,1,2.0195,6,2,26,1,1,,,,,
1.76,,,,,,,,,j,red,5ee6fc62447e98486758afc6,2021-09-27_18h00.45.897,forced_choiceRT_color,2021.2.3,Win32,59.94125757,,,,,,,,6,Slow,short,j,1,2.1434,6,3,27,2,1,,,,,
1.42,,,,,,,,,f,blue,5ee6fc62447e98486758afc6,2021-09-27_18h00.45.897,forced_choiceRT_color,2021.2.3,Win32,59.94125757,,,,,,,,6,Ontime,short,f,1,2.0658,7,0,28,1,1,,,,,
0.02,,,,,,,,,j,red,5ee6fc62447e98486758afc6,2021-09-27_18h00.45.897,forced_choiceRT_color,2021.2.3,Win32,59.94125757,,,,,,,,6,Ontime,short,j,1,2.0925,7,1,29,2,1,,,,,
0.42,,,,,,,,,k,purple,5ee6fc62447e98486758afc6,2021-09-27_18h00.45.897,forced_choiceRT_color,2021.2.3,Win32,59.94125757,,,,,,,,6,Ontime,short,k,1,2.0317,7,2,30,3,1,,,,,
0.3,,,,,,,,,d,orange,5ee6fc62447e98486758afc6,2021-09-27_18h00.45.897,forced_choiceRT_color,2021.2.3,Win32,59.94125757,,,,,,,,6,Ontime,short,d,1,2.0416,7,3,31,0,1,,,,,
0.75,,,,,,,,,f,blue,5ee6fc62447e98486758afc6,2021-09-27_18h00.45.897,forced_choiceRT_color,2021.2.3,Win32,59.94125757,,,,,,,,6,Ontime,short,f,1,2.0698,8,0,32,1,1,,,,,
0.42,,,,,,,,,j,red,5ee6fc62447e98486758afc6,2021-09-27_18h00.45.897,forced_choiceRT_color,2021.2.3,Win32,59.94125757,,,,,,,,6,Ontime,short,j,1,2.0652,8,1,33,2,1,,,,,
1.45,,,,,,,,,j,red,5ee6fc62447e98486758afc6,2021-09-27_18h00.45.897,forced_choiceRT_color,2021.2.3,Win32,59.94125757,,,,,,,,6,Ontime,short,j,1,2.0257,8,2,34,2,1,,,,,
0.9,,,,,,,,,d,orange,5ee6fc62447e98486758afc6,2021-09-27_18h00.45.897,forced_choiceRT_color,2021.2.3,Win32,59.94125757,,,,,,,,6,Ontime,short,d,1,2.0318,8,3,35,0,1,,,,,
1.98,,,,,,,,,k,purple,5ee6fc62447e98486758afc6,2021-09-27_18h00.45.897,forced_choiceRT_color,2021.2.3,Win32,59.94125757,,,,,,,,6,Slow,short,k,1,2.4897,9,0,36,3,1,,,,,
1.02,,,,,,,,,d,orange,5ee6fc62447e98486758afc6,2021-09-27_18h00.45.897,forced_choiceRT_color,2021.2.3,Win32,59.94125757,,,,,,,,6,Ontime,short,d,1,2.0362,9,1,37,0,1,,,,,
0.98,,,,,,,,,j,red,5ee6fc62447e98486758afc6,2021-09-27_18h00.45.897,forced_choiceRT_color,2021.2.3,Win32,59.94125757,,,,,,,,6,Slow,short,j,1,2.1201,9,2,38,2,1,,,,,
0.07,,,,,,,,,d,orange,5ee6fc62447e98486758afc6,2021-09-27_18h00.45.897,forced_choiceRT_color,2021.2.3,Win32,59.94125757,,,,,,,,6,Ontime,short,d,1,2.0483,9,3,39,0,1,,,,,
,,,,,,,,,,,5ee6fc62447e98486758afc6,2021-09-27_18h00.45.897,forced_choiceRT_color,2021.2.3,Win32,59.94125757,,,,,,,,,,,,,,,,,,,5,0,5,0,1
1.61,,,,,,,,,k,purple,5ee6fc62447e98486758afc6,2021-09-27_18h00.45.897,forced_choiceRT_color,2021.2.3,Win32,59.94125757,,,,,,,,7,Slow,short,k,1,2.2059,0,0,0,3,1,,,,,
1.4,,,,,,,,,d,orange,5ee6fc62447e98486758afc6,2021-09-27_18h00.45.897,forced_choiceRT_color,2021.2.3,Win32,59.94125757,,,,,,,,7,Ontime,short,f,0,1.9817,0,1,1,0,1,,,,,
0.45,,,,,,,,,f,blue,5ee6fc62447e98486758afc6,2021-09-27_18h00.45.897,forced_choiceRT_color,2021.2.3,Win32,59.94125757,,,,,,,,7,Ontime,short,f,1,1.9996,0,2,2,1,1,,,,,
1.85,,,,,,,,,k,purple,5ee6fc62447e98486758afc6,2021-09-27_18h00.45.897,forced_choiceRT_color,2021.2.3,Win32,59.94125757,,,,,,,,7,Slow,short,f,0,2.2152,0,3,3,3,1,,,,,
0.76,,,,,,,,,j,red,5ee6fc62447e98486758afc6,2021-09-27_18h00.45.897,forced_choiceRT_color,2021.2.3,Win32,59.94125757,,,,,,,,7,Ontime,short,j,1,2.0513,1,0,4,2,1,,,,,
0.71,,,,,,,,,j,red,5ee6fc62447e98486758afc6,2021-09-27_18h00.45.897,forced_choiceRT_color,2021.2.3,Win32,59.94125757,,,,,,,,7,Ontime,short,j,1,2.0819,1,1,5,2,1,,,,,
0,,,,,,,,,j,red,5ee6fc62447e98486758afc6,2021-09-27_18h00.45.897,forced_choiceRT_color,2021.2.3,Win32,59.94125757,,,,,,,,7,Ontime,short,j,1,2.0483,1,2,6,2,1,,,,,
1.95,,,,,,,,,d,orange,5ee6fc62447e98486758afc6,2021-09-27_18h00.45.897,forced_choiceRT_color,2021.2.3,Win32,59.94125757,,,,,,,,7,Slow,short,d,1,2.4749,1,3,7,0,1,,,,,
1.97,,,,,,,,,j,red,5ee6fc62447e98486758afc6,2021-09-27_18h00.45.897,forced_choiceRT_color,2021.2.3,Win32,59.94125757,,,,,,,,7,Slow,short,j,1,2.4141,2,0,8,2,1,,,,,
0.57,,,,,,,,,j,red,5ee6fc62447e98486758afc6,2021-09-27_18h00.45.897,forced_choiceRT_color,2021.2.3,Win32,59.94125757,,,,,,,,7,Ontime,short,j,1,2.0868,2,1,9,2,1,,,,,
0.96,,,,,,,,,d,orange,5ee6fc62447e98486758afc6,2021-09-27_18h00.45.897,forced_choiceRT_color,2021.2.3,Win32,59.94125757,,,,,,,,7,Ontime,short,d,1,2.0652,2,2,10,0,1,,,,,
0.93,,,,,,,,,k,purple,5ee6fc62447e98486758afc6,2021-09-27_18h00.45.897,forced_choiceRT_color,2021.2.3,Win32,59.94125757,,,,,,,,7,Ontime,short,k,1,2.0721,2,3,11,3,1,,,,,
1.32,,,,,,,,,j,red,5ee6fc62447e98486758afc6,2021-09-27_18h00.45.897,forced_choiceRT_color,2021.2.3,Win32,59.94125757,,,,,,,,7,Ontime,short,k,0,2.0848,3,0,12,2,1,,,,,
1.59,,,,,,,,,j,red,5ee6fc62447e98486758afc6,2021-09-27_18h00.45.897,forced_choiceRT_color,2021.2.3,Win32,59.94125757,,,,,,,,7,Ontime,short,j,1,2.0484,3,1,13,2,1,,,,,
0.49,,,,,,,,,f,blue,5ee6fc62447e98486758afc6,2021-09-27_18h00.45.897,forced_choiceRT_color,2021.2.3,Win32,59.94125757,,,,,,,,7,Ontime,short,f,1,2.0333,3,2,14,1,1,,,,,
1.77,,,,,,,,,f,blue,5ee6fc62447e98486758afc6,2021-09-27_18h00.45.897,forced_choiceRT_color,2021.2.3,Win32,59.94125757,,,,,,,,7,Ontime,short,f,1,2.0848,3,3,15,1,1,,,,,
0.43,,,,,,,,,k,purple,5ee6fc62447e98486758afc6,2021-09-27_18h00.45.897,forced_choiceRT_color,2021.2.3,Win32,59.94125757,,,,,,,,7,Ontime,short,k,1,2.0484,4,0,16,3,1,,,,,
0.65,,,,,,,,,f,blue,5ee6fc62447e98486758afc6,2021-09-27_18h00.45.897,forced_choiceRT_color,2021.2.3,Win32,59.94125757,,,,,,,,7,Ontime,short,f,1,2.0253,4,1,17,1,1,,,,,
0.57,,,,,,,,,d,orange,5ee6fc62447e98486758afc6,2021-09-27_18h00.45.897,forced_choiceRT_color,2021.2.3,Win32,59.94125757,,,,,,,,7,Ontime,short,d,1,2.0485,4,2,18,0,1,,,,,
0.43,,,,,,,,,d,orange,5ee6fc62447e98486758afc6,2021-09-27_18h00.45.897,forced_choiceRT_color,2021.2.3,Win32,59.94125757,,,,,,,,7,Ontime,short,d,1,2.0326,4,3,19,0,1,,,,,
1.37,,,,,,,,,d,orange,5ee6fc62447e98486758afc6,2021-09-27_18h00.45.897,forced_choiceRT_color,2021.2.3,Win32,59.94125757,,,,,,,,7,Ontime,short,d,1,2.0362,5,0,20,0,1,,,,,
0.87,,,,,,,,,k,purple,5ee6fc62447e98486758afc6,2021-09-27_18h00.45.897,forced_choiceRT_color,2021.2.3,Win32,59.94125757,,,,,,,,7,Ontime,short,k,1,2.0484,5,1,21,3,1,,,,,
0.54,,,,,,,,,f,blue,5ee6fc62447e98486758afc6,2021-09-27_18h00.45.897,forced_choiceRT_color,2021.2.3,Win32,59.94125757,,,,,,,,7,Ontime,short,f,1,2.0987,5,2,22,1,1,,,,,
1.42,,,,,,,,,k,purple,5ee6fc62447e98486758afc6,2021-09-27_18h00.45.897,forced_choiceRT_color,2021.2.3,Win32,59.94125757,,,,,,,,7,Slow,short,k,1,2.1075,5,3,23,3,1,,,,,
0.4,,,,,,,,,k,purple,5ee6fc62447e98486758afc6,2021-09-27_18h00.45.897,forced_choiceRT_color,2021.2.3,Win32,59.94125757,,,,,,,,7,Ontime,short,k,1,2.0319,6,0,24,3,1,,,,,
1.44,,,,,,,,,f,blue,5ee6fc62447e98486758afc6,2021-09-27_18h00.45.897,forced_choiceRT_color,2021.2.3,Win32,59.94125757,,,,,,,,7,Ontime,short,f,1,2.0676,6,1,25,1,1,,,,,
1.61,,,,,,,,,j,red,5ee6fc62447e98486758afc6,2021-09-27_18h00.45.897,forced_choiceRT_color,2021.2.3,Win32,59.94125757,,,,,,,,7,Ontime,short,j,1,1.9817,6,2,26,2,1,,,,,
0.6,,,,,,,,,k,purple,5ee6fc62447e98486758afc6,2021-09-27_18h00.45.897,forced_choiceRT_color,2021.2.3,Win32,59.94125757,,,,,,,,7,Ontime,short,k,1,2.0435,6,3,27,3,1,,,,,
0.83,,,,,,,,,f,blue,5ee6fc62447e98486758afc6,2021-09-27_18h00.45.897,forced_choiceRT_color,2021.2.3,Win32,59.94125757,,,,,,,,7,Ontime,short,f,1,2.0484,7,0,28,1,1,,,,,
0.93,,,,,,,,,k,purple,5ee6fc62447e98486758afc6,2021-09-27_18h00.45.897,forced_choiceRT_color,2021.2.3,Win32,59.94125757,,,,,,,,7,Ontime,short,k,1,2.0659,7,1,29,3,1,,,,,
0.45,,,,,,,,,d,orange,5ee6fc62447e98486758afc6,2021-09-27_18h00.45.897,forced_choiceRT_color,2021.2.3,Win32,59.94125757,,,,,,,,7,Ontime,short,d,1,1.9881,7,2,30,0,1,,,,,
1.81,,,,,,,,,j,red,5ee6fc62447e98486758afc6,2021-09-27_18h00.45.897,forced_choiceRT_color,2021.2.3,Win32,59.94125757,,,,,,,,7,Slow,short,j,1,2.2258,7,3,31,2,1,,,,,
0.08,,,,,,,,,f,blue,5ee6fc62447e98486758afc6,2021-09-27_18h00.45.897,forced_choiceRT_color,2021.2.3,Win32,59.94125757,,,,,,,,7,Slow,short,f,1,2.1041,8,0,32,1,1,,,,,
0.45,,,,,,,,,f,blue,5ee6fc62447e98486758afc6,2021-09-27_18h00.45.897,forced_choiceRT_color,2021.2.3,Win32,59.94125757,,,,,,,,7,Ontime,short,f,1,2.0058,8,1,33,1,1,,,,,
1.81,,,,,,,,,d,orange,5ee6fc62447e98486758afc6,2021-09-27_18h00.45.897,forced_choiceRT_color,2021.2.3,Win32,59.94125757,,,,,,,,7,Slow,short,k,0,2.2349,8,2,34,0,1,,,,,
1.81,,,,,,,,,k,purple,5ee6fc62447e98486758afc6,2021-09-27_18h00.45.897,forced_choiceRT_color,2021.2.3,Win32,59.94125757,,,,,,,,7,Slow,short,j,0,2.282,8,3,35,3,1,,,,,
1.79,,,,,,,,,j,red,5ee6fc62447e98486758afc6,2021-09-27_18h00.45.897,forced_choiceRT_color,2021.2.3,Win32,59.94125757,,,,,,,,7,Slow,short,f,0,2.2473,9,0,36,2,1,,,,,
1.87,,,,,,,,,d,orange,5ee6fc62447e98486758afc6,2021-09-27_18h00.45.897,forced_choiceRT_color,2021.2.3,Win32,59.94125757,,,,,,,,7,Slow,short,d,1,2.3653,9,1,37,0,1,,,,,
1.19,,,,,,,,,f,blue,5ee6fc62447e98486758afc6,2021-09-27_18h00.45.897,forced_choiceRT_color,2021.2.3,Win32,59.94125757,,,,,,,,7,Ontime,short,f,1,2.0765,9,2,38,1,1,,,,,
0.95,,,,,,,,,d,orange,5ee6fc62447e98486758afc6,2021-09-27_18h00.45.897,forced_choiceRT_color,2021.2.3,Win32,59.94125757,,,,,,,,7,Ontime,short,d,1,2.0819,9,3,39,0,1,,,,,
,,,,,,,,,,,5ee6fc62447e98486758afc6,2021-09-27_18h00.45.897,forced_choiceRT_color,2021.2.3,Win32,59.94125757,,,,,,,,,,,,,,,,,,,6,0,6,0,1
1.37,,,,,,,,,d,orange,5ee6fc62447e98486758afc6,2021-09-27_18h00.45.897,forced_choiceRT_color,2021.2.3,Win32,59.94125757,,,,,,,,8,Ontime,short,d,1,2.077,0,0,0,0,1,,,,,
0.11,,,,,,,,,d,orange,5ee6fc62447e98486758afc6,2021-09-27_18h00.45.897,forced_choiceRT_color,2021.2.3,Win32,59.94125757,,,,,,,,8,Ontime,short,d,1,2.0652,0,1,1,0,1,,,,,
0.22,,,,,,,,,f,blue,5ee6fc62447e98486758afc6,2021-09-27_18h00.45.897,forced_choiceRT_color,2021.2.3,Win32,59.94125757,,,,,,,,8,Ontime,short,f,1,2.0593,0,2,2,1,1,,,,,
1.85,,,,,,,,,f,blue,5ee6fc62447e98486758afc6,2021-09-27_18h00.45.897,forced_choiceRT_color,2021.2.3,Win32,59.94125757,,,,,,,,8,Slow,short,f,1,2.2542,0,3,3,1,1,,,,,
1.21,,,,,,,,,j,red,5ee6fc62447e98486758afc6,2021-09-27_18h00.45.897,forced_choiceRT_color,2021.2.3,Win32,59.94125757,,,,,,,,8,Ontime,short,j,1,2.0362,1,0,4,2,1,,,,,
0.32,,,,,,,,,k,purple,5ee6fc62447e98486758afc6,2021-09-27_18h00.45.897,forced_choiceRT_color,2021.2.3,Win32,59.94125757,,,,,,,,8,Ontime,short,k,1,2.0654,1,1,5,3,1,,,,,
0.69,,,,,,,,,j,red,5ee6fc62447e98486758afc6,2021-09-27_18h00.45.897,forced_choiceRT_color,2021.2.3,Win32,59.94125757,,,,,,,,8,Ontime,short,j,1,2.0663,1,2,6,2,1,,,,,
1.55,,,,,,,,,j,red,5ee6fc62447e98486758afc6,2021-09-27_18h00.45.897,forced_choiceRT_color,2021.2.3,Win32,59.94125757,,,,,,,,8,Ontime,short,j,1,2.0151,1,3,7,2,1,,,,,
0.73,,,,,,,,,f,blue,5ee6fc62447e98486758afc6,2021-09-27_18h00.45.897,forced_choiceRT_color,2021.2.3,Win32,59.94125757,,,,,,,,8,Ontime,short,f,1,2.0327,2,0,8,1,1,,,,,
1.22,,,,,,,,,k,purple,5ee6fc62447e98486758afc6,2021-09-27_18h00.45.897,forced_choiceRT_color,2021.2.3,Win32,59.94125757,,,,,,,,8,Ontime,short,k,1,2.0205,2,1,9,3,1,,,,,
1.94,,,,,,,,,d,orange,5ee6fc62447e98486758afc6,2021-09-27_18h00.45.897,forced_choiceRT_color,2021.2.3,Win32,59.94125757,,,,,,,,8,Slow,short,d,1,2.2247,2,2,10,0,1,,,,,
0.93,,,,,,,,,d,orange,5ee6fc62447e98486758afc6,2021-09-27_18h00.45.897,forced_choiceRT_color,2021.2.3,Win32,59.94125757,,,,,,,,8,Ontime,short,d,1,2.0651,2,3,11,0,1,,,,,
0.08,,,,,,,,,f,blue,5ee6fc62447e98486758afc6,2021-09-27_18h00.45.897,forced_choiceRT_color,2021.2.3,Win32,59.94125757,,,,,,,,8,Ontime,short,f,1,2.0345,3,0,12,1,1,,,,,
1.06,,,,,,,,,j,red,5ee6fc62447e98486758afc6,2021-09-27_18h00.45.897,forced_choiceRT_color,2021.2.3,Win32,59.94125757,,,,,,,,8,Slow,short,j,1,2.1023,3,1,13,2,1,,,,,
1.38,,,,,,,,,f,blue,5ee6fc62447e98486758afc6,2021-09-27_18h00.45.897,forced_choiceRT_color,2021.2.3,Win32,59.94125757,,,,,,,,8,Ontime,short,f,1,2.003,3,2,14,1,1,,,,,
1,,,,,,,,,f,blue,5ee6fc62447e98486758afc6,2021-09-27_18h00.45.897,forced_choiceRT_color,2021.2.3,Win32,59.94125757,,,,,,,,8,Ontime,short,f,1,2.015,3,3,15,1,1,,,,,
1.41,,,,,,,,,d,orange,5ee6fc62447e98486758afc6,2021-09-27_18h00.45.897,forced_choiceRT_color,2021.2.3,Win32,59.94125757,,,,,,,,8,Ontime,short,d,1,2.0831,4,0,16,0,1,,,,,
1.81,,,,,,,,,f,blue,5ee6fc62447e98486758afc6,2021-09-27_18h00.45.897,forced_choiceRT_color,2021.2.3,Win32,59.94125757,,,,,,,,8,Slow,short,f,1,2.1557,4,1,17,1,1,,,,,
0.93,,,,,,,,,d,orange,5ee6fc62447e98486758afc6,2021-09-27_18h00.45.897,forced_choiceRT_color,2021.2.3,Win32,59.94125757,,,,,,,,8,Ontime,short,d,1,2.0319,4,2,18,0,1,,,,,
1.68,,,,,,,,,k,purple,5ee6fc62447e98486758afc6,2021-09-27_18h00.45.897,forced_choiceRT_color,2021.2.3,Win32,59.94125757,,,,,,,,8,Slow,short,k,1,2.1376,4,3,19,3,1,,,,,
1.51,,,,,,,,,j,red,5ee6fc62447e98486758afc6,2021-09-27_18h00.45.897,forced_choiceRT_color,2021.2.3,Win32,59.94125757,,,,,,,,8,Ontime,short,j,1,1.9167,5,0,20,2,1,,,,,
0.17,,,,,,,,,k,purple,5ee6fc62447e98486758afc6,2021-09-27_18h00.45.897,forced_choiceRT_color,2021.2.3,Win32,59.94125757,,,,,,,,8,Ontime,short,k,1,1.9816,5,1,21,3,1,,,,,
1.34,,,,,,,,,j,red,5ee6fc62447e98486758afc6,2021-09-27_18h00.45.897,forced_choiceRT_color,2021.2.3,Win32,59.94125757,,,,,,,,8,Ontime,short,f,0,2.0507,5,2,22,2,1,,,,,
0.4,,,,,,,,,d,orange,5ee6fc62447e98486758afc6,2021-09-27_18h00.45.897,forced_choiceRT_color,2021.2.3,Win32,59.94125757,,,,,,,,8,Ontime,short,d,1,2.0149,5,3,23,0,1,,,,,
0.68,,,,,,,,,j,red,5ee6fc62447e98486758afc6,2021-09-27_18h00.45.897,forced_choiceRT_color,2021.2.3,Win32,59.94125757,,,,,,,,8,Ontime,short,j,1,2.0896,6,0,24,2,1,,,,,
0.03,,,,,,,,,k,purple,5ee6fc62447e98486758afc6,2021-09-27_18h00.45.897,forced_choiceRT_color,2021.2.3,Win32,59.94125757,,,,,,,,8,Ontime,short,k,1,2.0436,6,1,25,3,1,,,,,
1.15,,,,,,,,,f,blue,5ee6fc62447e98486758afc6,2021-09-27_18h00.45.897,forced_choiceRT_color,2021.2.3,Win32,59.94125757,,,,,,,,8,Ontime,short,f,1,2.0233,6,2,26,1,1,,,,,
1.54,,,,,,,,,k,purple,5ee6fc62447e98486758afc6,2021-09-27_18h00.45.897,forced_choiceRT_color,2021.2.3,Win32,59.94125757,,,,,,,,8,Ontime,short,k,1,2.0516,6,3,27,3,1,,,,,
0.12,,,,,,,,,j,red,5ee6fc62447e98486758afc6,2021-09-27_18h00.45.897,forced_choiceRT_color,2021.2.3,Win32,59.94125757,,,,,,,,8,Ontime,short,j,1,2.0705,7,0,28,2,1,,,,,
0.79,,,,,,,,,k,purple,5ee6fc62447e98486758afc6,2021-09-27_18h00.45.897,forced_choiceRT_color,2021.2.3,Win32,59.94125757,,,,,,,,8,Ontime,short,k,1,2.0652,7,1,29,3,1,,,,,
0.9,,,,,,,,,j,red,5ee6fc62447e98486758afc6,2021-09-27_18h00.45.897,forced_choiceRT_color,2021.2.3,Win32,59.94125757,,,,,,,,8,Ontime,short,j,1,1.9984,7,2,30,2,1,,,,,
0.58,,,,,,,,,f,blue,5ee6fc62447e98486758afc6,2021-09-27_18h00.45.897,forced_choiceRT_color,2021.2.3,Win32,59.94125757,,,,,,,,8,Ontime,short,f,1,2.0483,7,3,31,1,1,,,,,
0.07,,,,,,,,,k,purple,5ee6fc62447e98486758afc6,2021-09-27_18h00.45.897,forced_choiceRT_color,2021.2.3,Win32,59.94125757,,,,,,,,8,Ontime,short,k,1,2.0827,8,0,32,3,1,,,,,
0.12,,,,,,,,,f,blue,5ee6fc62447e98486758afc6,2021-09-27_18h00.45.897,forced_choiceRT_color,2021.2.3,Win32,59.94125757,,,,,,,,8,Ontime,short,f,1,2.067,8,1,33,1,1,,,,,
1.38,,,,,,,,,d,orange,5ee6fc62447e98486758afc6,2021-09-27_18h00.45.897,forced_choiceRT_color,2021.2.3,Win32,59.94125757,,,,,,,,8,Ontime,short,d,1,2.0387,8,2,34,0,1,,,,,
0.01,,,,,,,,,j,red,5ee6fc62447e98486758afc6,2021-09-27_18h00.45.897,forced_choiceRT_color,2021.2.3,Win32,59.94125757,,,,,,,,8,Ontime,short,j,1,1.9819,8,3,35,2,1,,,,,
0.58,,,,,,,,,d,orange,5ee6fc62447e98486758afc6,2021-09-27_18h00.45.897,forced_choiceRT_color,2021.2.3,Win32,59.94125757,,,,,,,,8,Ontime,short,d,1,2.0482,9,0,36,0,1,,,,,
1.63,,,,,,,,,d,orange,5ee6fc62447e98486758afc6,2021-09-27_18h00.45.897,forced_choiceRT_color,2021.2.3,Win32,59.94125757,,,,,,,,8,Ontime,short,d,1,2.067,9,1,37,0,1,,,,,
0.89,,,,,,,,,k,purple,5ee6fc62447e98486758afc6,2021-09-27_18h00.45.897,forced_choiceRT_color,2021.2.3,Win32,59.94125757,,,,,,,,8,Ontime,short,k,1,2.037,9,2,38,3,1,,,,,
0,,,,,,,,,k,purple,5ee6fc62447e98486758afc6,2021-09-27_18h00.45.897,forced_choiceRT_color,2021.2.3,Win32,59.94125757,,,,,,,,8,Ontime,short,k,1,2.0888,9,3,39,3,1,,,,,
,,,,,,,,,,,5ee6fc62447e98486758afc6,2021-09-27_18h00.45.897,forced_choiceRT_color,2021.2.3,Win32,59.94125757,,,,,,,,,,,,,,,,,,,7,0,7,0,1
1.14,,,,,,,,,k,purple,5ee6fc62447e98486758afc6,2021-09-27_18h00.45.897,forced_choiceRT_color,2021.2.3,Win32,59.94125757,,,,,,,,9,Ontime,short,k,1,2.0431,0,0,0,3,1,,,,,
1.46,,,,,,,,,j,red,5ee6fc62447e98486758afc6,2021-09-27_18h00.45.897,forced_choiceRT_color,2021.2.3,Win32,59.94125757,,,,,,,,9,Slow,short,d,0,2.1028,0,1,1,2,1,,,,,
1.19,,,,,,,,,f,blue,5ee6fc62447e98486758afc6,2021-09-27_18h00.45.897,forced_choiceRT_color,2021.2.3,Win32,59.94125757,,,,,,,,9,Ontime,short,f,1,2.0345,0,2,2,1,1,,,,,
1.28,,,,,,,,,j,red,5ee6fc62447e98486758afc6,2021-09-27_18h00.45.897,forced_choiceRT_color,2021.2.3,Win32,59.94125757,,,,,,,,9,Slow,short,j,1,2.1029,0,3,3,2,1,,,,,
0.71,,,,,,,,,k,purple,5ee6fc62447e98486758afc6,2021-09-27_18h00.45.897,forced_choiceRT_color,2021.2.3,Win32,59.94125757,,,,,,,,9,Ontime,short,k,1,2.0197,1,0,4,3,1,,,,,
1.75,,,,,,,,,j,red,5ee6fc62447e98486758afc6,2021-09-27_18h00.45.897,forced_choiceRT_color,2021.2.3,Win32,59.94125757,,,,,,,,9,Slow,short,k,0,2.1596,1,1,5,2,1,,,,,
1.55,,,,,,,,,d,orange,5ee6fc62447e98486758afc6,2021-09-27_18h00.45.897,forced_choiceRT_color,2021.2.3,Win32,59.94125757,,,,,,,,9,Ontime,short,k,0,2.0892,1,2,6,0,1,,,,,
0.63,,,,,,,,,k,purple,5ee6fc62447e98486758afc6,2021-09-27_18h00.45.897,forced_choiceRT_color,2021.2.3,Win32,59.94125757,,,,,,,,9,Ontime,short,k,1,2.0669,1,3,7,3,1,,,,,
1.15,,,,,,,,,f,blue,5ee6fc62447e98486758afc6,2021-09-27_18h00.45.897,forced_choiceRT_color,2021.2.3,Win32,59.94125757,,,,,,,,9,Ontime,short,f,1,2.0196,2,0,8,1,1,,,,,
1.63,,,,,,,,,d,orange,5ee6fc62447e98486758afc6,2021-09-27_18h00.45.897,forced_choiceRT_color,2021.2.3,Win32,59.94125757,,,,,,,,9,Slow,short,d,1,2.1048,2,1,9,0,1,,,,,
1.44,,,,,,,,,d,orange,5ee6fc62447e98486758afc6,2021-09-27_18h00.45.897,forced_choiceRT_color,2021.2.3,Win32,59.94125757,,,,,,,,9,Fast,short,d,1,1.8482,2,2,10,0,1,,,,,
0.3,,,,,,,,,d,orange,5ee6fc62447e98486758afc6,2021-09-27_18h00.45.897,forced_choiceRT_color,2021.2.3,Win32,59.94125757,,,,,,,,9,Ontime,short,d,1,2.0028,2,3,11,0,1,,,,,
0.75,,,,,,,,,k,purple,5ee6fc62447e98486758afc6,2021-09-27_18h00.45.897,forced_choiceRT_color,2021.2.3,Win32,59.94125757,,,,,,,,9,Ontime,short,k,1,2.0165,3,0,12,3,1,,,,,
0.84,,,,,,,,,d,orange,5ee6fc62447e98486758afc6,2021-09-27_18h00.45.897,forced_choiceRT_color,2021.2.3,Win32,59.94125757,,,,,,,,9,Ontime,short,d,1,2.0484,3,1,13,0,1,,,,,
1.28,,,,,,,,,d,orange,5ee6fc62447e98486758afc6,2021-09-27_18h00.45.897,forced_choiceRT_color,2021.2.3,Win32,59.94125757,,,,,,,,9,Ontime,short,d,1,2.0558,3,2,14,0,1,,,,,
1.42,,,,,,,,,j,red,5ee6fc62447e98486758afc6,2021-09-27_18h00.45.897,forced_choiceRT_color,2021.2.3,Win32,59.94125757,,,,,,,,9,Ontime,short,j,1,1.9707,3,3,15,2,1,,,,,
0.82,,,,,,,,,f,blue,5ee6fc62447e98486758afc6,2021-09-27_18h00.45.897,forced_choiceRT_color,2021.2.3,Win32,59.94125757,,,,,,,,9,Ontime,short,f,1,2.0331,4,0,16,1,1,,,,,
1.76,,,,,,,,,j,red,5ee6fc62447e98486758afc6,2021-09-27_18h00.45.897,forced_choiceRT_color,2021.2.3,Win32,59.94125757,,,,,,,,9,Ontime,short,d,0,2.0848,4,1,17,2,1,,,,,
0.07,,,,,,,,,f,blue,5ee6fc62447e98486758afc6,2021-09-27_18h00.45.897,forced_choiceRT_color,2021.2.3,Win32,59.94125757,,,,,,,,9,Ontime,short,f,1,2.0651,4,2,18,1,1,,,,,
1.81,,,,,,,,,k,purple,5ee6fc62447e98486758afc6,2021-09-27_18h00.45.897,forced_choiceRT_color,2021.2.3,Win32,59.94125757,,,,,,,,9,Slow,short,f,0,2.1207,4,3,19,3,1,,,,,
0.85,,,,,,,,,j,red,5ee6fc62447e98486758afc6,2021-09-27_18h00.45.897,forced_choiceRT_color,2021.2.3,Win32,59.94125757,,,,,,,,9,Ontime,short,j,1,2.068,5,0,20,2,1,,,,,
1.73,,,,,,,,,f,blue,5ee6fc62447e98486758afc6,2021-09-27_18h00.45.897,forced_choiceRT_color,2021.2.3,Win32,59.94125757,,,,,,,,9,Slow,short,d,0,2.1344,5,1,21,1,1,,,,,
1.98,,,,,,,,,f,blue,5ee6fc62447e98486758afc6,2021-09-27_18h00.45.897,forced_choiceRT_color,2021.2.3,Win32,59.94125757,,,,,,,,9,Slow,short,f,1,2.3654,5,2,22,1,1,,,,,
0.84,,,,,,,,,k,purple,5ee6fc62447e98486758afc6,2021-09-27_18h00.45.897,forced_choiceRT_color,2021.2.3,Win32,59.94125757,,,,,,,,9,Ontime,short,k,1,2.0506,5,3,23,3,1,,,,,
0.57,,,,,,,,,f,blue,5ee6fc62447e98486758afc6,2021-09-27_18h00.45.897,forced_choiceRT_color,2021.2.3,Win32,59.94125757,,,,,,,,9,Ontime,short,f,1,2.0536,6,0,24,1,1,,,,,
0.76,,,,,,,,,j,red,5ee6fc62447e98486758afc6,2021-09-27_18h00.45.897,forced_choiceRT_color,2021.2.3,Win32,59.94125757,,,,,,,,9,Ontime,short,j,1,2.0818,6,1,25,2,1,,,,,
1.98,,,,,,,,,f,blue,5ee6fc62447e98486758afc6,2021-09-27_18h00.45.897,forced_choiceRT_color,2021.2.3,Win32,59.94125757,,,,,,,,9,Slow,short,f,1,2.332,6,2,26,1,1,,,,,
1.39,,,,,,,,,f,blue,5ee6fc62447e98486758afc6,2021-09-27_18h00.45.897,forced_choiceRT_color,2021.2.3,Win32,59.94125757,,,,,,,,9,Ontime,short,f,1,2.0205,6,3,27,1,1,,,,,
1.06,,,,,,,,,d,orange,5ee6fc62447e98486758afc6,2021-09-27_18h00.45.897,forced_choiceRT_color,2021.2.3,Win32,59.94125757,,,,,,,,9,Slow,short,k,0,2.1149,7,0,28,0,1,,,,,
1.13,,,,,,,,,j,red,5ee6fc62447e98486758afc6,2021-09-27_18h00.45.897,forced_choiceRT_color,2021.2.3,Win32,59.94125757,,,,,,,,9,Ontime,short,j,1,2.0439,7,1,29,2,1,,,,,
0.83,,,,,,,,,f,blue,5ee6fc62447e98486758afc6,2021-09-27_18h00.45.897,forced_choiceRT_color,2021.2.3,Win32,59.94125757,,,,,,,,9,Ontime,short,f,1,2.0555,7,2,30,1,1,,,,,
1.73,,,,,,,,,k,purple,5ee6fc62447e98486758afc6,2021-09-27_18h00.45.897,forced_choiceRT_color,2021.2.3,Win32,59.94125757,,,,,,,,9,Slow,short,k,1,2.1819,7,3,31,3,1,,,,,
1.88,,,,,,,,,k,purple,5ee6fc62447e98486758afc6,2021-09-27_18h00.45.897,forced_choiceRT_color,2021.2.3,Win32,59.94125757,,,,,,,,9,Slow,short,k,1,2.3227,8,0,32,3,1,,,,,
1.59,,,,,,,,,d,orange,5ee6fc62447e98486758afc6,2021-09-27_18h00.45.897,forced_choiceRT_color,2021.2.3,Win32,59.94125757,,,,,,,,9,Slow,short,f,0,2.1344,8,1,33,0,1,,,,,
1.55,,,,,,,,,d,orange,5ee6fc62447e98486758afc6,2021-09-27_18h00.45.897,forced_choiceRT_color,2021.2.3,Win32,59.94125757,,,,,,,,9,Ontime,short,d,1,2.0089,8,2,34,0,1,,,,,
1.93,,,,,,,,,d,orange,5ee6fc62447e98486758afc6,2021-09-27_18h00.45.897,forced_choiceRT_color,2021.2.3,Win32,59.94125757,,,,,,,,9,Slow,short,d,1,2.206,8,3,35,0,1,,,,,
0.28,,,,,,,,,k,purple,5ee6fc62447e98486758afc6,2021-09-27_18h00.45.897,forced_choiceRT_color,2021.2.3,Win32,59.94125757,,,,,,,,9,Ontime,short,k,1,2.019,9,0,36,3,1,,,,,
0.31,,,,,,,,,j,red,5ee6fc62447e98486758afc6,2021-09-27_18h00.45.897,forced_choiceRT_color,2021.2.3,Win32,59.94125757,,,,,,,,9,Ontime,short,j,1,2.0507,9,1,37,2,1,,,,,
1.18,,,,,,,,,j,red,5ee6fc62447e98486758afc6,2021-09-27_18h00.45.897,forced_choiceRT_color,2021.2.3,Win32,59.94125757,,,,,,,,9,Ontime,short,j,1,2.015,9,2,38,2,1,,,,,
1.62,,,,,,,,,k,purple,5ee6fc62447e98486758afc6,2021-09-27_18h00.45.897,forced_choiceRT_color,2021.2.3,Win32,59.94125757,,,,,,,,9,Slow,short,k,1,2.1317,9,3,39,3,1,,,,,
,,,,,,,,,,,5ee6fc62447e98486758afc6,2021-09-27_18h00.45.897,forced_choiceRT_color,2021.2.3,Win32,59.94125757,,,,,,,,,,,,,,,,,,,8,0,8,0,1
1.99,,,,,,,,,j,red,5ee6fc62447e98486758afc6,2021-09-27_18h00.45.897,forced_choiceRT_color,2021.2.3,Win32,59.94125757,,,,,,,,10,Slow,short,k,0,2.4671,0,0,0,2,1,,,,,
1.95,,,,,,,,,j,red,5ee6fc62447e98486758afc6,2021-09-27_18h00.45.897,forced_choiceRT_color,2021.2.3,Win32,59.94125757,,,,,,,,10,Slow,short,j,1,2.3079,0,1,1,2,1,,,,,
0.21,,,,,,,,,d,orange,5ee6fc62447e98486758afc6,2021-09-27_18h00.45.897,forced_choiceRT_color,2021.2.3,Win32,59.94125757,,,,,,,,10,Ontime,short,d,1,2.0326,0,2,2,0,1,,,,,
0.29,,,,,,,,,d,orange,5ee6fc62447e98486758afc6,2021-09-27_18h00.45.897,forced_choiceRT_color,2021.2.3,Win32,59.94125757,,,,,,,,10,Ontime,short,d,1,2.0844,0,3,3,0,1,,,,,
0.17,,,,,,,,,f,blue,5ee6fc62447e98486758afc6,2021-09-27_18h00.45.897,forced_choiceRT_color,2021.2.3,Win32,59.94125757,,,,,,,,10,Ontime,short,f,1,2.0699,1,0,4,1,1,,,,,
0.1,,,,,,,,,d,orange,5ee6fc62447e98486758afc6,2021-09-27_18h00.45.897,forced_choiceRT_color,2021.2.3,Win32,59.94125757,,,,,,,,10,Ontime,short,d,1,2.0403,1,1,5,0,1,,,,,
0.13,,,,,,,,,d,orange,5ee6fc62447e98486758afc6,2021-09-27_18h00.45.897,forced_choiceRT_color,2021.2.3,Win32,59.94125757,,,,,,,,10,Ontime,short,d,1,2.0198,1,2,6,0,1,,,,,
1.61,,,,,,,,,f,blue,5ee6fc62447e98486758afc6,2021-09-27_18h00.45.897,forced_choiceRT_color,2021.2.3,Win32,59.94125757,,,,,,,,10,Slow,short,f,1,2.2159,1,3,7,1,1,,,,,
0.48,,,,,,,,,k,purple,5ee6fc62447e98486758afc6,2021-09-27_18h00.45.897,forced_choiceRT_color,2021.2.3,Win32,59.94125757,,,,,,,,10,Ontime,short,k,1,2.0554,2,0,8,3,1,,,,,
0.16,,,,,,,,,j,red,5ee6fc62447e98486758afc6,2021-09-27_18h00.45.897,forced_choiceRT_color,2021.2.3,Win32,59.94125757,,,,,,,,10,Ontime,short,j,1,2.0582,2,1,9,2,1,,,,,
1.97,,,,,,,,,j,red,5ee6fc62447e98486758afc6,2021-09-27_18h00.45.897,forced_choiceRT_color,2021.2.3,Win32,59.94125757,,,,,,,,10,Slow,short,j,1,2.264,2,2,10,2,1,,,,,
0.29,,,,,,,,,f,blue,5ee6fc62447e98486758afc6,2021-09-27_18h00.45.897,forced_choiceRT_color,2021.2.3,Win32,59.94125757,,,,,,,,10,Ontime,short,f,1,2.0668,2,3,11,1,1,,,,,
0.79,,,,,,,,,k,purple,5ee6fc62447e98486758afc6,2021-09-27_18h00.45.897,forced_choiceRT_color,2021.2.3,Win32,59.94125757,,,,,,,,10,Ontime,short,k,1,2.0928,3,0,12,3,1,,,,,
1.4,,,,,,,,,d,orange,5ee6fc62447e98486758afc6,2021-09-27_18h00.45.897,forced_choiceRT_color,2021.2.3,Win32,59.94125757,,,,,,,,10,Ontime,short,d,1,2.0226,3,1,13,0,1,,,,,
0.71,,,,,,,,,f,blue,5ee6fc62447e98486758afc6,2021-09-27_18h00.45.897,forced_choiceRT_color,2021.2.3,Win32,59.94125757,,,,,,,,10,Ontime,short,f,1,2.0589,3,2,14,1,1,,,,,
1.6,,,,,,,,,k,purple,5ee6fc62447e98486758afc6,2021-09-27_18h00.45.897,forced_choiceRT_color,2021.2.3,Win32,59.94125757,,,,,,,,10,Ontime,short,k,1,2.0863,3,3,15,3,1,,,,,
1.61,,,,,,,,,k,purple,5ee6fc62447e98486758afc6,2021-09-27_18h00.45.897,forced_choiceRT_color,2021.2.3,Win32,59.94125757,,,,,,,,10,Ontime,short,k,1,2.0553,4,0,16,3,1,,,,,
0.5,,,,,,,,,f,blue,5ee6fc62447e98486758afc6,2021-09-27_18h00.45.897,forced_choiceRT_color,2021.2.3,Win32,59.94125757,,,,,,,,10,Ontime,short,f,1,2.0664,4,1,17,1,1,,,,,
0.49,,,,,,,,,k,purple,5ee6fc62447e98486758afc6,2021-09-27_18h00.45.897,forced_choiceRT_color,2021.2.3,Win32,59.94125757,,,,,,,,10,Ontime,short,k,1,2.0315,4,2,18,3,1,,,,,
0.91,,,,,,,,,f,blue,5ee6fc62447e98486758afc6,2021-09-27_18h00.45.897,forced_choiceRT_color,2021.2.3,Win32,59.94125757,,,,,,,,10,Ontime,short,f,1,2.0723,4,3,19,1,1,,,,,
1.97,,,,,,,,,d,orange,5ee6fc62447e98486758afc6,2021-09-27_18h00.45.897,forced_choiceRT_color,2021.2.3,Win32,59.94125757,,,,,,,,10,Slow,short,d,1,2.5544,5,0,20,0,1,,,,,
1.61,,,,,,,,,j,red,5ee6fc62447e98486758afc6,2021-09-27_18h00.45.897,forced_choiceRT_color,2021.2.3,Win32,59.94125757,,,,,,,,10,Slow,short,j,1,2.1463,5,1,21,2,1,,,,,
1.26,,,,,,,,,d,orange,5ee6fc62447e98486758afc6,2021-09-27_18h00.45.897,forced_choiceRT_color,2021.2.3,Win32,59.94125757,,,,,,,,10,Ontime,short,d,1,2.0652,5,2,22,0,1,,,,,
0.24,,,,,,,,,j,red,5ee6fc62447e98486758afc6,2021-09-27_18h00.45.897,forced_choiceRT_color,2021.2.3,Win32,59.94125757,,,,,,,,10,Ontime,short,j,1,2.0718,5,3,23,2,1,,,,,
1.44,,,,,,,,,d,orange,5ee6fc62447e98486758afc6,2021-09-27_18h00.45.897,forced_choiceRT_color,2021.2.3,Win32,59.94125757,,,,,,,,10,Ontime,short,k,0,2.0584,6,0,24,0,1,,,,,
0.78,,,,,,,,,j,red,5ee6fc62447e98486758afc6,2021-09-27_18h00.45.897,forced_choiceRT_color,2021.2.3,Win32,59.94125757,,,,,,,,10,Ontime,short,j,1,2.0653,6,1,25,2,1,,,,,
1.6,,,,,,,,,f,blue,5ee6fc62447e98486758afc6,2021-09-27_18h00.45.897,forced_choiceRT_color,2021.2.3,Win32,59.94125757,,,,,,,,10,Ontime,short,f,1,2.0484,6,2,26,1,1,,,,,
1.45,,,,,,,,,f,blue,5ee6fc62447e98486758afc6,2021-09-27_18h00.45.897,forced_choiceRT_color,2021.2.3,Win32,59.94125757,,,,,,,,10,Ontime,short,f,1,1.9543,6,3,27,1,1,,,,,
1.65,,,,,,,,,k,purple,5ee6fc62447e98486758afc6,2021-09-27_18h00.45.897,forced_choiceRT_color,2021.2.3,Win32,59.94125757,,,,,,,,10,Slow,short,k,1,2.1697,7,0,28,3,1,,,,,
1.75,,,,,,,,,j,red,5ee6fc62447e98486758afc6,2021-09-27_18h00.45.897,forced_choiceRT_color,2021.2.3,Win32,59.94125757,,,,,,,,10,Slow,short,j,1,2.2179,7,1,29,2,1,,,,,
1.03,,,,,,,,,j,red,5ee6fc62447e98486758afc6,2021-09-27_18h00.45.897,forced_choiceRT_color,2021.2.3,Win32,59.94125757,,,,,,,,10,Ontime,short,j,1,2.0745,7,2,30,2,1,,,,,
0.93,,,,,,,,,k,purple,5ee6fc62447e98486758afc6,2021-09-27_18h00.45.897,forced_choiceRT_color,2021.2.3,Win32,59.94125757,,,,,,,,10,Ontime,short,k,1,2.0606,7,3,31,3,1,,,,,
1.77,,,,,,,,,k,purple,5ee6fc62447e98486758afc6,2021-09-27_18h00.45.897,forced_choiceRT_color,2021.2.3,Win32,59.94125757,,,,,,,,10,Slow,short,j,0,2.1916,8,0,32,3,1,,,,,
0.52,,,,,,,,,k,purple,5ee6fc62447e98486758afc6,2021-09-27_18h00.45.897,forced_choiceRT_color,2021.2.3,Win32,59.94125757,,,,,,,,10,Ontime,short,k,1,2.0403,8,1,33,3,1,,,,,
1.72,,,,,,,,,j,red,5ee6fc62447e98486758afc6,2021-09-27_18h00.45.897,forced_choiceRT_color,2021.2.3,Win32,59.94125757,,,,,,,,10,Ontime,short,f,0,2.0761,8,2,34,2,1,,,,,
1.23,,,,,,,,,k,purple,5ee6fc62447e98486758afc6,2021-09-27_18h00.45.897,forced_choiceRT_color,2021.2.3,Win32,59.94125757,,,,,,,,10,Ontime,short,k,1,2.0483,8,3,35,3,1,,,,,
1.73,,,,,,,,,d,orange,5ee6fc62447e98486758afc6,2021-09-27_18h00.45.897,forced_choiceRT_color,2021.2.3,Win32,59.94125757,,,,,,,,10,Slow,short,f,0,2.2321,9,0,36,0,1,,,,,
0.25,,,,,,,,,f,blue,5ee6fc62447e98486758afc6,2021-09-27_18h00.45.897,forced_choiceRT_color,2021.2.3,Win32,59.94125757,,,,,,,,10,Ontime,short,d,0,2.056,9,1,37,1,1,,,,,
0.83,,,,,,,,,f,blue,5ee6fc62447e98486758afc6,2021-09-27_18h00.45.897,forced_choiceRT_color,2021.2.3,Win32,59.94125757,,,,,,,,10,Ontime,short,d,0,2.0317,9,2,38,1,1,,,,,
1.97,,,,,,,,,d,orange,5ee6fc62447e98486758afc6,2021-09-27_18h00.45.897,forced_choiceRT_color,2021.2.3,Win32,59.94125757,,,,,,,,10,Slow,short,k,0,2.3825,9,3,39,0,1,,,,,
,,,,,,,,,,,5ee6fc62447e98486758afc6,2021-09-27_18h00.45.897,forced_choiceRT_color,2021.2.3,Win32,59.94125757,,,,,,,,,,,,,,,,,,,9,0,9,0,1
