IP_Addresss,target_onset,trial_resp_sp.keys,trial_resp_sp.corr,trial_resp_sp.rt,trials_train_loop.thisRepN,trials_train_loop.thisTrialN,trials_train_loop.thisN,trials_train_loop.thisIndex,trials_train_loop.ran,correct_key,color,participant,date,expName,psychopyVersion,OS,frameRate,trial_resp_timing.keys,trial_resp_timing.rt,trials_train_timing.thisRepN,trials_train_timing.thisTrialN,trials_train_timing.thisN,trials_train_timing.thisIndex,trials_train_timing.ran,block_id,ontime,feedback_cond,forcedRT_resp.keys,forcedRT_resp.corr,forcedRT_resp.rt,trials.thisRepN,trials.thisTrialN,trials.thisN,trials.thisIndex,trials.ran,blocks.thisRepN,blocks.thisTrialN,blocks.thisN,blocks.thisIndex,blocks.ran
71.95.192.179,0,f,1,3.1,0,0,0,1,1,f,blue,5f0c61f219803a07239a4269,2021-09-27_14h09.16.151,forced_choiceRT_color,2021.2.3,MacIntel,59.99880002,,,,,,,,,,,,,,,,,,,,,,,
,0,j,1,1.5851,0,1,1,2,1,j,red,5f0c61f219803a07239a4269,2021-09-27_14h09.16.151,forced_choiceRT_color,2021.2.3,MacIntel,59.99880002,,,,,,,,,,,,,,,,,,,,,,,
,0,d,1,1.1125,0,2,2,0,1,d,orange,5f0c61f219803a07239a4269,2021-09-27_14h09.16.151,forced_choiceRT_color,2021.2.3,MacIntel,59.99880002,,,,,,,,,,,,,,,,,,,,,,,
,0,d,1,0.686,0,3,3,0,1,d,orange,5f0c61f219803a07239a4269,2021-09-27_14h09.16.151,forced_choiceRT_color,2021.2.3,MacIntel,59.99880002,,,,,,,,,,,,,,,,,,,,,,,
,0,k,1,1.3281,1,0,4,3,1,k,purple,5f0c61f219803a07239a4269,2021-09-27_14h09.16.151,forced_choiceRT_color,2021.2.3,MacIntel,59.99880002,,,,,,,,,,,,,,,,,,,,,,,
,0,j,1,1.3173,1,1,5,2,1,j,red,5f0c61f219803a07239a4269,2021-09-27_14h09.16.151,forced_choiceRT_color,2021.2.3,MacIntel,59.99880002,,,,,,,,,,,,,,,,,,,,,,,
,0,j,1,1.4194,1,2,6,2,1,j,red,5f0c61f219803a07239a4269,2021-09-27_14h09.16.151,forced_choiceRT_color,2021.2.3,MacIntel,59.99880002,,,,,,,,,,,,,,,,,,,,,,,
,0,d,1,1.1524,1,3,7,0,1,d,orange,5f0c61f219803a07239a4269,2021-09-27_14h09.16.151,forced_choiceRT_color,2021.2.3,MacIntel,59.99880002,,,,,,,,,,,,,,,,,,,,,,,
,0,k,1,1.6809,2,0,8,3,1,k,purple,5f0c61f219803a07239a4269,2021-09-27_14h09.16.151,forced_choiceRT_color,2021.2.3,MacIntel,59.99880002,,,,,,,,,,,,,,,,,,,,,,,
,0,k,1,1.2191,2,1,9,3,1,k,purple,5f0c61f219803a07239a4269,2021-09-27_14h09.16.151,forced_choiceRT_color,2021.2.3,MacIntel,59.99880002,,,,,,,,,,,,,,,,,,,,,,,
,0,j,1,3.1998,2,2,10,2,1,j,red,5f0c61f219803a07239a4269,2021-09-27_14h09.16.151,forced_choiceRT_color,2021.2.3,MacIntel,59.99880002,,,,,,,,,,,,,,,,,,,,,,,
,0,f,1,1.4024,2,3,11,1,1,f,blue,5f0c61f219803a07239a4269,2021-09-27_14h09.16.151,forced_choiceRT_color,2021.2.3,MacIntel,59.99880002,,,,,,,,,,,,,,,,,,,,,,,
,0,f,1,0.8579,3,0,12,1,1,f,blue,5f0c61f219803a07239a4269,2021-09-27_14h09.16.151,forced_choiceRT_color,2021.2.3,MacIntel,59.99880002,,,,,,,,,,,,,,,,,,,,,,,
,0,k,1,0.9176,3,1,13,3,1,k,purple,5f0c61f219803a07239a4269,2021-09-27_14h09.16.151,forced_choiceRT_color,2021.2.3,MacIntel,59.99880002,,,,,,,,,,,,,,,,,,,,,,,
,0,j,1,0.8875,3,2,14,2,1,j,red,5f0c61f219803a07239a4269,2021-09-27_14h09.16.151,forced_choiceRT_color,2021.2.3,MacIntel,59.99880002,,,,,,,,,,,,,,,,,,,,,,,
,0,f,1,0.6233,3,3,15,1,1,f,blue,5f0c61f219803a07239a4269,2021-09-27_14h09.16.151,forced_choiceRT_color,2021.2.3,MacIntel,59.99880002,,,,,,,,,,,,,,,,,,,,,,,
,0,d,0,0.6672,4,0,16,1,1,f,blue,5f0c61f219803a07239a4269,2021-09-27_14h09.16.151,forced_choiceRT_color,2021.2.3,MacIntel,59.99880002,,,,,,,,,,,,,,,,,,,,,,,
,0,d,1,1.2024,4,1,17,0,1,d,orange,5f0c61f219803a07239a4269,2021-09-27_14h09.16.151,forced_choiceRT_color,2021.2.3,MacIntel,59.99880002,,,,,,,,,,,,,,,,,,,,,,,
,0,f,1,0.6147,4,2,18,1,1,f,blue,5f0c61f219803a07239a4269,2021-09-27_14h09.16.151,forced_choiceRT_color,2021.2.3,MacIntel,59.99880002,,,,,,,,,,,,,,,,,,,,,,,
,0,k,1,0.7383,4,3,19,3,1,k,purple,5f0c61f219803a07239a4269,2021-09-27_14h09.16.151,forced_choiceRT_color,2021.2.3,MacIntel,59.99880002,,,,,,,,,,,,,,,,,,,,,,,
,0,j,1,0.6169,5,0,20,2,1,j,red,5f0c61f219803a07239a4269,2021-09-27_14h09.16.151,forced_choiceRT_color,2021.2.3,MacIntel,59.99880002,,,,,,,,,,,,,,,,,,,,,,,
,0,j,1,0.6879,5,1,21,2,1,j,red,5f0c61f219803a07239a4269,2021-09-27_14h09.16.151,forced_choiceRT_color,2021.2.3,MacIntel,59.99880002,,,,,,,,,,,,,,,,,,,,,,,
,0,d,1,0.8011,5,2,22,0,1,d,orange,5f0c61f219803a07239a4269,2021-09-27_14h09.16.151,forced_choiceRT_color,2021.2.3,MacIntel,59.99880002,,,,,,,,,,,,,,,,,,,,,,,
,0,d,1,0.9871,5,3,23,0,1,d,orange,5f0c61f219803a07239a4269,2021-09-27_14h09.16.151,forced_choiceRT_color,2021.2.3,MacIntel,59.99880002,,,,,,,,,,,,,,,,,,,,,,,
,0,f,1,0.6258,6,0,24,1,1,f,blue,5f0c61f219803a07239a4269,2021-09-27_14h09.16.151,forced_choiceRT_color,2021.2.3,MacIntel,59.99880002,,,,,,,,,,,,,,,,,,,,,,,
,0,j,1,1.1545,6,1,25,2,1,j,red,5f0c61f219803a07239a4269,2021-09-27_14h09.16.151,forced_choiceRT_color,2021.2.3,MacIntel,59.99880002,,,,,,,,,,,,,,,,,,,,,,,
,0,k,1,0.6513,6,2,26,3,1,k,purple,5f0c61f219803a07239a4269,2021-09-27_14h09.16.151,forced_choiceRT_color,2021.2.3,MacIntel,59.99880002,,,,,,,,,,,,,,,,,,,,,,,
,0,d,1,0.7844,6,3,27,0,1,d,orange,5f0c61f219803a07239a4269,2021-09-27_14h09.16.151,forced_choiceRT_color,2021.2.3,MacIntel,59.99880002,,,,,,,,,,,,,,,,,,,,,,,
,0,f,1,0.9922,7,0,28,1,1,f,blue,5f0c61f219803a07239a4269,2021-09-27_14h09.16.151,forced_choiceRT_color,2021.2.3,MacIntel,59.99880002,,,,,,,,,,,,,,,,,,,,,,,
,0,f,1,0.7229,7,1,29,1,1,f,blue,5f0c61f219803a07239a4269,2021-09-27_14h09.16.151,forced_choiceRT_color,2021.2.3,MacIntel,59.99880002,,,,,,,,,,,,,,,,,,,,,,,
,0,f,1,0.6874,7,2,30,1,1,f,blue,5f0c61f219803a07239a4269,2021-09-27_14h09.16.151,forced_choiceRT_color,2021.2.3,MacIntel,59.99880002,,,,,,,,,,,,,,,,,,,,,,,
,0,j,1,1.0851,7,3,31,2,1,j,red,5f0c61f219803a07239a4269,2021-09-27_14h09.16.151,forced_choiceRT_color,2021.2.3,MacIntel,59.99880002,,,,,,,,,,,,,,,,,,,,,,,
,0,d,1,0.7208,8,0,32,0,1,d,orange,5f0c61f219803a07239a4269,2021-09-27_14h09.16.151,forced_choiceRT_color,2021.2.3,MacIntel,59.99880002,,,,,,,,,,,,,,,,,,,,,,,
,0,k,1,0.6686,8,1,33,3,1,k,purple,5f0c61f219803a07239a4269,2021-09-27_14h09.16.151,forced_choiceRT_color,2021.2.3,MacIntel,59.99880002,,,,,,,,,,,,,,,,,,,,,,,
,0,d,1,0.7489,8,2,34,0,1,d,orange,5f0c61f219803a07239a4269,2021-09-27_14h09.16.151,forced_choiceRT_color,2021.2.3,MacIntel,59.99880002,,,,,,,,,,,,,,,,,,,,,,,
,0,f,1,0.7516,8,3,35,1,1,f,blue,5f0c61f219803a07239a4269,2021-09-27_14h09.16.151,forced_choiceRT_color,2021.2.3,MacIntel,59.99880002,,,,,,,,,,,,,,,,,,,,,,,
,0,k,1,0.6553,9,0,36,3,1,k,purple,5f0c61f219803a07239a4269,2021-09-27_14h09.16.151,forced_choiceRT_color,2021.2.3,MacIntel,59.99880002,,,,,,,,,,,,,,,,,,,,,,,
,0,j,1,0.6913,9,1,37,2,1,j,red,5f0c61f219803a07239a4269,2021-09-27_14h09.16.151,forced_choiceRT_color,2021.2.3,MacIntel,59.99880002,,,,,,,,,,,,,,,,,,,,,,,
,0,k,1,0.6516,9,2,38,3,1,k,purple,5f0c61f219803a07239a4269,2021-09-27_14h09.16.151,forced_choiceRT_color,2021.2.3,MacIntel,59.99880002,,,,,,,,,,,,,,,,,,,,,,,
,0,f,1,0.9978,9,3,39,1,1,f,blue,5f0c61f219803a07239a4269,2021-09-27_14h09.16.151,forced_choiceRT_color,2021.2.3,MacIntel,59.99880002,,,,,,,,,,,,,,,,,,,,,,,
,0,j,1,0.7055,10,0,40,2,1,j,red,5f0c61f219803a07239a4269,2021-09-27_14h09.16.151,forced_choiceRT_color,2021.2.3,MacIntel,59.99880002,,,,,,,,,,,,,,,,,,,,,,,
,0,k,1,0.5696,10,1,41,3,1,k,purple,5f0c61f219803a07239a4269,2021-09-27_14h09.16.151,forced_choiceRT_color,2021.2.3,MacIntel,59.99880002,,,,,,,,,,,,,,,,,,,,,,,
,0,j,1,0.6588,10,2,42,2,1,j,red,5f0c61f219803a07239a4269,2021-09-27_14h09.16.151,forced_choiceRT_color,2021.2.3,MacIntel,59.99880002,,,,,,,,,,,,,,,,,,,,,,,
,0,f,1,0.9062,10,3,43,1,1,f,blue,5f0c61f219803a07239a4269,2021-09-27_14h09.16.151,forced_choiceRT_color,2021.2.3,MacIntel,59.99880002,,,,,,,,,,,,,,,,,,,,,,,
,0,k,0,0.8013,11,0,44,2,1,j,red,5f0c61f219803a07239a4269,2021-09-27_14h09.16.151,forced_choiceRT_color,2021.2.3,MacIntel,59.99880002,,,,,,,,,,,,,,,,,,,,,,,
,0,k,1,1.1512,11,1,45,3,1,k,purple,5f0c61f219803a07239a4269,2021-09-27_14h09.16.151,forced_choiceRT_color,2021.2.3,MacIntel,59.99880002,,,,,,,,,,,,,,,,,,,,,,,
,0,d,1,0.7232,11,2,46,0,1,d,orange,5f0c61f219803a07239a4269,2021-09-27_14h09.16.151,forced_choiceRT_color,2021.2.3,MacIntel,59.99880002,,,,,,,,,,,,,,,,,,,,,,,
,0,j,1,0.8705,11,3,47,2,1,j,red,5f0c61f219803a07239a4269,2021-09-27_14h09.16.151,forced_choiceRT_color,2021.2.3,MacIntel,59.99880002,,,,,,,,,,,,,,,,,,,,,,,
,0,f,1,0.9765,12,0,48,1,1,f,blue,5f0c61f219803a07239a4269,2021-09-27_14h09.16.151,forced_choiceRT_color,2021.2.3,MacIntel,59.99880002,,,,,,,,,,,,,,,,,,,,,,,
,0,f,1,0.5592,12,1,49,1,1,f,blue,5f0c61f219803a07239a4269,2021-09-27_14h09.16.151,forced_choiceRT_color,2021.2.3,MacIntel,59.99880002,,,,,,,,,,,,,,,,,,,,,,,
,0,k,1,0.7693,12,2,50,3,1,k,purple,5f0c61f219803a07239a4269,2021-09-27_14h09.16.151,forced_choiceRT_color,2021.2.3,MacIntel,59.99880002,,,,,,,,,,,,,,,,,,,,,,,
,0,d,1,0.7173,12,3,51,0,1,d,orange,5f0c61f219803a07239a4269,2021-09-27_14h09.16.151,forced_choiceRT_color,2021.2.3,MacIntel,59.99880002,,,,,,,,,,,,,,,,,,,,,,,
,0,d,1,0.5843,13,0,52,0,1,d,orange,5f0c61f219803a07239a4269,2021-09-27_14h09.16.151,forced_choiceRT_color,2021.2.3,MacIntel,59.99880002,,,,,,,,,,,,,,,,,,,,,,,
,0,d,1,0.5758,13,1,53,0,1,d,orange,5f0c61f219803a07239a4269,2021-09-27_14h09.16.151,forced_choiceRT_color,2021.2.3,MacIntel,59.99880002,,,,,,,,,,,,,,,,,,,,,,,
,0,k,1,0.6554,13,2,54,3,1,k,purple,5f0c61f219803a07239a4269,2021-09-27_14h09.16.151,forced_choiceRT_color,2021.2.3,MacIntel,59.99880002,,,,,,,,,,,,,,,,,,,,,,,
,0,j,1,0.7455,13,3,55,2,1,j,red,5f0c61f219803a07239a4269,2021-09-27_14h09.16.151,forced_choiceRT_color,2021.2.3,MacIntel,59.99880002,,,,,,,,,,,,,,,,,,,,,,,
,0,d,1,0.8069,14,0,56,0,1,d,orange,5f0c61f219803a07239a4269,2021-09-27_14h09.16.151,forced_choiceRT_color,2021.2.3,MacIntel,59.99880002,,,,,,,,,,,,,,,,,,,,,,,
,0,k,1,0.6837,14,1,57,3,1,k,purple,5f0c61f219803a07239a4269,2021-09-27_14h09.16.151,forced_choiceRT_color,2021.2.3,MacIntel,59.99880002,,,,,,,,,,,,,,,,,,,,,,,
,0,d,1,0.6255,14,2,58,0,1,d,orange,5f0c61f219803a07239a4269,2021-09-27_14h09.16.151,forced_choiceRT_color,2021.2.3,MacIntel,59.99880002,,,,,,,,,,,,,,,,,,,,,,,
,0,k,1,0.6036,14,3,59,3,1,k,purple,5f0c61f219803a07239a4269,2021-09-27_14h09.16.151,forced_choiceRT_color,2021.2.3,MacIntel,59.99880002,,,,,,,,,,,,,,,,,,,,,,,
,,,,,,,,,,,,5f0c61f219803a07239a4269,2021-09-27_14h09.16.151,forced_choiceRT_color,2021.2.3,MacIntel,59.99880002,f,2.3089,0,0,0,0,1,,,,,,,,,,,,,,,,
,,,,,,,,,,,,5f0c61f219803a07239a4269,2021-09-27_14h09.16.151,forced_choiceRT_color,2021.2.3,MacIntel,59.99880002,j,1.8684,1,0,1,0,1,,,,,,,,,,,,,,,,
,,,,,,,,,,,,5f0c61f219803a07239a4269,2021-09-27_14h09.16.151,forced_choiceRT_color,2021.2.3,MacIntel,59.99880002,d,1.7189,2,0,2,0,1,,,,,,,,,,,,,,,,
,,,,,,,,,,,,5f0c61f219803a07239a4269,2021-09-27_14h09.16.151,forced_choiceRT_color,2021.2.3,MacIntel,59.99880002,k,2.2508,3,0,3,0,1,,,,,,,,,,,,,,,,
,,,,,,,,,,,,5f0c61f219803a07239a4269,2021-09-27_14h09.16.151,forced_choiceRT_color,2021.2.3,MacIntel,59.99880002,j,2.0615,4,0,4,0,1,,,,,,,,,,,,,,,,
,,,,,,,,,,,,5f0c61f219803a07239a4269,2021-09-27_14h09.16.151,forced_choiceRT_color,2021.2.3,MacIntel,59.99880002,d,1.9532,5,0,5,0,1,,,,,,,,,,,,,,,,
,,,,,,,,,,,,5f0c61f219803a07239a4269,2021-09-27_14h09.16.151,forced_choiceRT_color,2021.2.3,MacIntel,59.99880002,f,2.1373,6,0,6,0,1,,,,,,,,,,,,,,,,
,,,,,,,,,,,,5f0c61f219803a07239a4269,2021-09-27_14h09.16.151,forced_choiceRT_color,2021.2.3,MacIntel,59.99880002,j,2.1706,7,0,7,0,1,,,,,,,,,,,,,,,,
,,,,,,,,,,,,5f0c61f219803a07239a4269,2021-09-27_14h09.16.151,forced_choiceRT_color,2021.2.3,MacIntel,59.99880002,k,1.7902,8,0,8,0,1,,,,,,,,,,,,,,,,
,,,,,,,,,,,,5f0c61f219803a07239a4269,2021-09-27_14h09.16.151,forced_choiceRT_color,2021.2.3,MacIntel,59.99880002,k,2.0546,9,0,9,0,1,,,,,,,,,,,,,,,,
,,,,,,,,,,,,5f0c61f219803a07239a4269,2021-09-27_14h09.16.151,forced_choiceRT_color,2021.2.3,MacIntel,59.99880002,j,2.072,10,0,10,0,1,,,,,,,,,,,,,,,,
,,,,,,,,,,,,5f0c61f219803a07239a4269,2021-09-27_14h09.16.151,forced_choiceRT_color,2021.2.3,MacIntel,59.99880002,f,2.089,11,0,11,0,1,,,,,,,,,,,,,,,,
,,,,,,,,,,,,5f0c61f219803a07239a4269,2021-09-27_14h09.16.151,forced_choiceRT_color,2021.2.3,MacIntel,59.99880002,d,2.0867,12,0,12,0,1,,,,,,,,,,,,,,,,
,,,,,,,,,,,,5f0c61f219803a07239a4269,2021-09-27_14h09.16.151,forced_choiceRT_color,2021.2.3,MacIntel,59.99880002,k,1.9655,13,0,13,0,1,,,,,,,,,,,,,,,,
,,,,,,,,,,,,5f0c61f219803a07239a4269,2021-09-27_14h09.16.151,forced_choiceRT_color,2021.2.3,MacIntel,59.99880002,f,1.9572,14,0,14,0,1,,,,,,,,,,,,,,,,
,,,,,,,,,,,,5f0c61f219803a07239a4269,2021-09-27_14h09.16.151,forced_choiceRT_color,2021.2.3,MacIntel,59.99880002,k,2.049,15,0,15,0,1,,,,,,,,,,,,,,,,
,,,,,,,,,,,,5f0c61f219803a07239a4269,2021-09-27_14h09.16.151,forced_choiceRT_color,2021.2.3,MacIntel,59.99880002,d,2.1226,16,0,16,0,1,,,,,,,,,,,,,,,,
,,,,,,,,,,,,5f0c61f219803a07239a4269,2021-09-27_14h09.16.151,forced_choiceRT_color,2021.2.3,MacIntel,59.99880002,f,2.0055,17,0,17,0,1,,,,,,,,,,,,,,,,
,,,,,,,,,,,,5f0c61f219803a07239a4269,2021-09-27_14h09.16.151,forced_choiceRT_color,2021.2.3,MacIntel,59.99880002,d,2.0868,18,0,18,0,1,,,,,,,,,,,,,,,,
,,,,,,,,,,,,5f0c61f219803a07239a4269,2021-09-27_14h09.16.151,forced_choiceRT_color,2021.2.3,MacIntel,59.99880002,f,2.0457,19,0,19,0,1,,,,,,,,,,,,,,,,
,1.22,,,,,,,,,k,purple,5f0c61f219803a07239a4269,2021-09-27_14h09.16.151,forced_choiceRT_color,2021.2.3,MacIntel,59.99880002,,,,,,,,1,Slow,short,k,1,2.3502,0,0,0,3,1,,,,,
,0.24,,,,,,,,,k,purple,5f0c61f219803a07239a4269,2021-09-27_14h09.16.151,forced_choiceRT_color,2021.2.3,MacIntel,59.99880002,,,,,,,,1,Fast,short,f,0,1.7837,0,1,1,3,1,,,,,
,1.88,,,,,,,,,f,blue,5f0c61f219803a07239a4269,2021-09-27_14h09.16.151,forced_choiceRT_color,2021.2.3,MacIntel,59.99880002,,,,,,,,1,Ontime,short,f,1,2.0847,0,2,2,1,1,,,,,
,1.54,,,,,,,,,j,red,5f0c61f219803a07239a4269,2021-09-27_14h09.16.151,forced_choiceRT_color,2021.2.3,MacIntel,59.99880002,,,,,,,,1,Slow,short,d,0,2.6383,0,3,3,2,1,,,,,
,1.81,,,,,,,,,f,blue,5f0c61f219803a07239a4269,2021-09-27_14h09.16.151,forced_choiceRT_color,2021.2.3,MacIntel,59.99880002,,,,,,,,1,Slow,short,j,0,2.3402,1,0,4,1,1,,,,,
,0.82,,,,,,,,,d,orange,5f0c61f219803a07239a4269,2021-09-27_14h09.16.151,forced_choiceRT_color,2021.2.3,MacIntel,59.99880002,,,,,,,,1,Slow,short,j,0,5.8792,1,1,5,0,1,,,,,
,0.21,,,,,,,,,f,blue,5f0c61f219803a07239a4269,2021-09-27_14h09.16.151,forced_choiceRT_color,2021.2.3,MacIntel,59.99880002,,,,,,,,1,Slow,short,f,1,2.1444,1,2,6,1,1,,,,,
,0.8,,,,,,,,,d,orange,5f0c61f219803a07239a4269,2021-09-27_14h09.16.151,forced_choiceRT_color,2021.2.3,MacIntel,59.99880002,,,,,,,,1,Fast,short,j,0,1.8744,1,3,7,0,1,,,,,
,0.83,,,,,,,,,j,red,5f0c61f219803a07239a4269,2021-09-27_14h09.16.151,forced_choiceRT_color,2021.2.3,MacIntel,59.99880002,,,,,,,,1,Fast,short,k,0,1.8586,2,0,8,2,1,,,,,
,1.55,,,,,,,,,k,purple,5f0c61f219803a07239a4269,2021-09-27_14h09.16.151,forced_choiceRT_color,2021.2.3,MacIntel,59.99880002,,,,,,,,1,Ontime,short,j,0,1.9353,2,1,9,3,1,,,,,
,0.94,,,,,,,,,f,blue,5f0c61f219803a07239a4269,2021-09-27_14h09.16.151,forced_choiceRT_color,2021.2.3,MacIntel,59.99880002,,,,,,,,1,Ontime,short,f,1,2.0567,2,2,10,1,1,,,,,
,1.16,,,,,,,,,j,red,5f0c61f219803a07239a4269,2021-09-27_14h09.16.151,forced_choiceRT_color,2021.2.3,MacIntel,59.99880002,,,,,,,,1,Ontime,short,j,1,1.9058,2,3,11,2,1,,,,,
,1.35,,,,,,,,,j,red,5f0c61f219803a07239a4269,2021-09-27_14h09.16.151,forced_choiceRT_color,2021.2.3,MacIntel,59.99880002,,,,,,,,1,Fast,short,j,1,1.8127,3,0,12,2,1,,,,,
,0.72,,,,,,,,,d,orange,5f0c61f219803a07239a4269,2021-09-27_14h09.16.151,forced_choiceRT_color,2021.2.3,MacIntel,59.99880002,,,,,,,,1,Fast,short,j,0,1.7893,3,1,13,0,1,,,,,
,1.7,,,,,,,,,f,blue,5f0c61f219803a07239a4269,2021-09-27_14h09.16.151,forced_choiceRT_color,2021.2.3,MacIntel,59.99880002,,,,,,,,1,Ontime,short,d,0,1.9556,3,2,14,1,1,,,,,
,0.18,,,,,,,,,k,purple,5f0c61f219803a07239a4269,2021-09-27_14h09.16.151,forced_choiceRT_color,2021.2.3,MacIntel,59.99880002,,,,,,,,1,Ontime,short,j,0,1.988,3,3,15,3,1,,,,,
,1.43,,,,,,,,,d,orange,5f0c61f219803a07239a4269,2021-09-27_14h09.16.151,forced_choiceRT_color,2021.2.3,MacIntel,59.99880002,,,,,,,,1,Fast,short,k,0,1.8225,4,0,16,0,1,,,,,
,1.76,,,,,,,,,d,orange,5f0c61f219803a07239a4269,2021-09-27_14h09.16.151,forced_choiceRT_color,2021.2.3,MacIntel,59.99880002,,,,,,,,1,Slow,short,j,0,2.3814,4,1,17,0,1,,,,,
,1.38,,,,,,,,,d,orange,5f0c61f219803a07239a4269,2021-09-27_14h09.16.151,forced_choiceRT_color,2021.2.3,MacIntel,59.99880002,,,,,,,,1,Ontime,short,f,0,2.0991,4,2,18,0,1,,,,,
,1.83,,,,,,,,,f,blue,5f0c61f219803a07239a4269,2021-09-27_14h09.16.151,forced_choiceRT_color,2021.2.3,MacIntel,59.99880002,,,,,,,,1,Slow,short,d,0,2.7183,4,3,19,1,1,,,,,
,0.84,,,,,,,,,f,blue,5f0c61f219803a07239a4269,2021-09-27_14h09.16.151,forced_choiceRT_color,2021.2.3,MacIntel,59.99880002,,,,,,,,1,Fast,short,f,1,1.4749,5,0,20,1,1,,,,,
,0.14,,,,,,,,,j,red,5f0c61f219803a07239a4269,2021-09-27_14h09.16.151,forced_choiceRT_color,2021.2.3,MacIntel,59.99880002,,,,,,,,1,Fast,short,j,1,1.4661,5,1,21,2,1,,,,,
,0.02,,,,,,,,,k,purple,5f0c61f219803a07239a4269,2021-09-27_14h09.16.151,forced_choiceRT_color,2021.2.3,MacIntel,59.99880002,,,,,,,,1,Ontime,short,k,1,2.0072,5,2,22,3,1,,,,,
,1.9,,,,,,,,,k,purple,5f0c61f219803a07239a4269,2021-09-27_14h09.16.151,forced_choiceRT_color,2021.2.3,MacIntel,59.99880002,,,,,,,,1,Slow,short,k,1,2.3361,5,3,23,3,1,,,,,
,1.33,,,,,,,,,d,orange,5f0c61f219803a07239a4269,2021-09-27_14h09.16.151,forced_choiceRT_color,2021.2.3,MacIntel,59.99880002,,,,,,,,1,Slow,short,f,0,2.1723,6,0,24,0,1,,,,,
,1.82,,,,,,,,,d,orange,5f0c61f219803a07239a4269,2021-09-27_14h09.16.151,forced_choiceRT_color,2021.2.3,MacIntel,59.99880002,,,,,,,,1,Ontime,short,j,0,2.0765,6,1,25,0,1,,,,,
,0.13,,,,,,,,,d,orange,5f0c61f219803a07239a4269,2021-09-27_14h09.16.151,forced_choiceRT_color,2021.2.3,MacIntel,59.99880002,,,,,,,,1,Fast,short,j,0,1.7681,6,2,26,0,1,,,,,
,0.75,,,,,,,,,f,blue,5f0c61f219803a07239a4269,2021-09-27_14h09.16.151,forced_choiceRT_color,2021.2.3,MacIntel,59.99880002,,,,,,,,1,Slow,short,f,1,2.1295,6,3,27,1,1,,,,,
,0.96,,,,,,,,,k,purple,5f0c61f219803a07239a4269,2021-09-27_14h09.16.151,forced_choiceRT_color,2021.2.3,MacIntel,59.99880002,,,,,,,,1,Slow,short,k,1,2.1238,7,0,28,3,1,,,,,
,1.71,,,,,,,,,j,red,5f0c61f219803a07239a4269,2021-09-27_14h09.16.151,forced_choiceRT_color,2021.2.3,MacIntel,59.99880002,,,,,,,,1,Slow,short,k,0,2.354,7,1,29,2,1,,,,,
,0.84,,,,,,,,,d,orange,5f0c61f219803a07239a4269,2021-09-27_14h09.16.151,forced_choiceRT_color,2021.2.3,MacIntel,59.99880002,,,,,,,,1,Ontime,short,f,0,2.0071,7,2,30,0,1,,,,,
,0.04,,,,,,,,,k,purple,5f0c61f219803a07239a4269,2021-09-27_14h09.16.151,forced_choiceRT_color,2021.2.3,MacIntel,59.99880002,,,,,,,,1,Slow,short,k,1,2.1405,7,3,31,3,1,,,,,
,1.51,,,,,,,,,f,blue,5f0c61f219803a07239a4269,2021-09-27_14h09.16.151,forced_choiceRT_color,2021.2.3,MacIntel,59.99880002,,,,,,,,1,Slow,short,f,1,2.3363,8,0,32,1,1,,,,,
,0.93,,,,,,,,,f,blue,5f0c61f219803a07239a4269,2021-09-27_14h09.16.151,forced_choiceRT_color,2021.2.3,MacIntel,59.99880002,,,,,,,,1,Fast,short,f,1,1.7061,8,1,33,1,1,,,,,
,0.42,,,,,,,,,j,red,5f0c61f219803a07239a4269,2021-09-27_14h09.16.151,forced_choiceRT_color,2021.2.3,MacIntel,59.99880002,,,,,,,,1,Fast,short,j,1,1.7586,8,2,34,2,1,,,,,
,0.35,,,,,,,,,j,red,5f0c61f219803a07239a4269,2021-09-27_14h09.16.151,forced_choiceRT_color,2021.2.3,MacIntel,59.99880002,,,,,,,,1,Ontime,short,j,1,2.0204,8,3,35,2,1,,,,,
,0.26,,,,,,,,,k,purple,5f0c61f219803a07239a4269,2021-09-27_14h09.16.151,forced_choiceRT_color,2021.2.3,MacIntel,59.99880002,,,,,,,,1,Ontime,short,k,1,2.0218,9,0,36,3,1,,,,,
,0.3,,,,,,,,,k,purple,5f0c61f219803a07239a4269,2021-09-27_14h09.16.151,forced_choiceRT_color,2021.2.3,MacIntel,59.99880002,,,,,,,,1,Slow,short,k,1,2.1357,9,1,37,3,1,,,,,
,1.44,,,,,,,,,j,red,5f0c61f219803a07239a4269,2021-09-27_14h09.16.151,forced_choiceRT_color,2021.2.3,MacIntel,59.99880002,,,,,,,,1,Slow,short,j,1,2.2913,9,2,38,2,1,,,,,
,0.1,,,,,,,,,j,red,5f0c61f219803a07239a4269,2021-09-27_14h09.16.151,forced_choiceRT_color,2021.2.3,MacIntel,59.99880002,,,,,,,,1,Ontime,short,j,1,1.9526,9,3,39,2,1,,,,,
,,,,,,,,,,,,5f0c61f219803a07239a4269,2021-09-27_14h09.16.151,forced_choiceRT_color,2021.2.3,MacIntel,59.99880002,,,,,,,,,,,,,,,,,,,0,0,0,0,1
,0.35,,,,,,,,,f,blue,5f0c61f219803a07239a4269,2021-09-27_14h09.16.151,forced_choiceRT_color,2021.2.3,MacIntel,59.99880002,,,,,,,,2,Ontime,short,f,1,2.0268,0,0,0,1,1,,,,,
,1.99,,,,,,,,,j,red,5f0c61f219803a07239a4269,2021-09-27_14h09.16.151,forced_choiceRT_color,2021.2.3,MacIntel,59.99880002,,,,,,,,2,Slow,short,f,0,2.257,0,1,1,2,1,,,,,
,1.13,,,,,,,,,d,orange,5f0c61f219803a07239a4269,2021-09-27_14h09.16.151,forced_choiceRT_color,2021.2.3,MacIntel,59.99880002,,,,,,,,2,Fast,short,k,0,1.8214,0,2,2,0,1,,,,,
,1.25,,,,,,,,,j,red,5f0c61f219803a07239a4269,2021-09-27_14h09.16.151,forced_choiceRT_color,2021.2.3,MacIntel,59.99880002,,,,,,,,2,Ontime,short,j,1,1.9755,0,3,3,2,1,,,,,
,1.13,,,,,,,,,k,purple,5f0c61f219803a07239a4269,2021-09-27_14h09.16.151,forced_choiceRT_color,2021.2.3,MacIntel,59.99880002,,,,,,,,2,Slow,short,k,1,2.2507,1,0,4,3,1,,,,,
,0.58,,,,,,,,,d,orange,5f0c61f219803a07239a4269,2021-09-27_14h09.16.151,forced_choiceRT_color,2021.2.3,MacIntel,59.99880002,,,,,,,,2,Fast,short,j,0,1.8366,1,1,5,0,1,,,,,
,1.65,,,,,,,,,j,red,5f0c61f219803a07239a4269,2021-09-27_14h09.16.151,forced_choiceRT_color,2021.2.3,MacIntel,59.99880002,,,,,,,,2,Slow,short,f,0,2.2748,1,2,6,2,1,,,,,
,0.33,,,,,,,,,d,orange,5f0c61f219803a07239a4269,2021-09-27_14h09.16.151,forced_choiceRT_color,2021.2.3,MacIntel,59.99880002,,,,,,,,2,Slow,short,j,0,2.1191,1,3,7,0,1,,,,,
,0.82,,,,,,,,,f,blue,5f0c61f219803a07239a4269,2021-09-27_14h09.16.151,forced_choiceRT_color,2021.2.3,MacIntel,59.99880002,,,,,,,,2,Fast,short,f,1,1.8357,2,0,8,1,1,,,,,
,1.5,,,,,,,,,k,purple,5f0c61f219803a07239a4269,2021-09-27_14h09.16.151,forced_choiceRT_color,2021.2.3,MacIntel,59.99880002,,,,,,,,2,Slow,short,k,1,2.1228,2,1,9,3,1,,,,,
,0.38,,,,,,,,,j,red,5f0c61f219803a07239a4269,2021-09-27_14h09.16.151,forced_choiceRT_color,2021.2.3,MacIntel,59.99880002,,,,,,,,2,Fast,short,j,1,1.7735,2,2,10,2,1,,,,,
,1.77,,,,,,,,,f,blue,5f0c61f219803a07239a4269,2021-09-27_14h09.16.151,forced_choiceRT_color,2021.2.3,MacIntel,59.99880002,,,,,,,,2,Slow,short,f,1,2.4608,2,3,11,1,1,,,,,
,0.92,,,,,,,,,d,orange,5f0c61f219803a07239a4269,2021-09-27_14h09.16.151,forced_choiceRT_color,2021.2.3,MacIntel,59.99880002,,,,,,,,2,Ontime,short,j,0,1.9043,3,0,12,0,1,,,,,
,0.74,,,,,,,,,d,orange,5f0c61f219803a07239a4269,2021-09-27_14h09.16.151,forced_choiceRT_color,2021.2.3,MacIntel,59.99880002,,,,,,,,2,Ontime,short,j,0,1.9396,3,1,13,0,1,,,,,
,0.34,,,,,,,,,k,purple,5f0c61f219803a07239a4269,2021-09-27_14h09.16.151,forced_choiceRT_color,2021.2.3,MacIntel,59.99880002,,,,,,,,2,Ontime,short,k,1,2.0043,3,2,14,3,1,,,,,
,0.57,,,,,,,,,d,orange,5f0c61f219803a07239a4269,2021-09-27_14h09.16.151,forced_choiceRT_color,2021.2.3,MacIntel,59.99880002,,,,,,,,2,Fast,short,j,0,1.7684,3,3,15,0,1,,,,,
,1.72,,,,,,,,,d,orange,5f0c61f219803a07239a4269,2021-09-27_14h09.16.151,forced_choiceRT_color,2021.2.3,MacIntel,59.99880002,,,,,,,,2,Slow,short,j,0,2.2633,4,0,16,0,1,,,,,
,1.92,,,,,,,,,d,orange,5f0c61f219803a07239a4269,2021-09-27_14h09.16.151,forced_choiceRT_color,2021.2.3,MacIntel,59.99880002,,,,,,,,2,Slow,short,k,0,2.1571,4,1,17,0,1,,,,,
,0.84,,,,,,,,,j,red,5f0c61f219803a07239a4269,2021-09-27_14h09.16.151,forced_choiceRT_color,2021.2.3,MacIntel,59.99880002,,,,,,,,2,Fast,short,j,1,1.8825,4,2,18,2,1,,,,,
,0.33,,,,,,,,,f,blue,5f0c61f219803a07239a4269,2021-09-27_14h09.16.151,forced_choiceRT_color,2021.2.3,MacIntel,59.99880002,,,,,,,,2,Ontime,short,f,1,2.05,4,3,19,1,1,,,,,
,1.91,,,,,,,,,k,purple,5f0c61f219803a07239a4269,2021-09-27_14h09.16.151,forced_choiceRT_color,2021.2.3,MacIntel,59.99880002,,,,,,,,2,Slow,short,k,1,2.5221,5,0,20,3,1,,,,,
,1.96,,,,,,,,,d,orange,5f0c61f219803a07239a4269,2021-09-27_14h09.16.151,forced_choiceRT_color,2021.2.3,MacIntel,59.99880002,,,,,,,,2,Fast,short,d,1,1.8739,5,1,21,0,1,,,,,
,0.76,,,,,,,,,k,purple,5f0c61f219803a07239a4269,2021-09-27_14h09.16.151,forced_choiceRT_color,2021.2.3,MacIntel,59.99880002,,,,,,,,2,Ontime,short,k,1,1.9693,5,2,22,3,1,,,,,
,1.76,,,,,,,,,k,purple,5f0c61f219803a07239a4269,2021-09-27_14h09.16.151,forced_choiceRT_color,2021.2.3,MacIntel,59.99880002,,,,,,,,2,Ontime,short,k,1,2.0866,5,3,23,3,1,,,,,
,1.79,,,,,,,,,f,blue,5f0c61f219803a07239a4269,2021-09-27_14h09.16.151,forced_choiceRT_color,2021.2.3,MacIntel,59.99880002,,,,,,,,2,Slow,short,j,0,2.1362,6,0,24,1,1,,,,,
,1.92,,,,,,,,,f,blue,5f0c61f219803a07239a4269,2021-09-27_14h09.16.151,forced_choiceRT_color,2021.2.3,MacIntel,59.99880002,,,,,,,,2,Slow,short,f,1,2.1579,6,1,25,1,1,,,,,
,1.28,,,,,,,,,d,orange,5f0c61f219803a07239a4269,2021-09-27_14h09.16.151,forced_choiceRT_color,2021.2.3,MacIntel,59.99880002,,,,,,,,2,Fast,short,d,1,1.8997,6,2,26,0,1,,,,,
,0.31,,,,,,,,,k,purple,5f0c61f219803a07239a4269,2021-09-27_14h09.16.151,forced_choiceRT_color,2021.2.3,MacIntel,59.99880002,,,,,,,,2,Slow,short,k,1,2.1184,6,3,27,3,1,,,,,
,0.51,,,,,,,,,j,red,5f0c61f219803a07239a4269,2021-09-27_14h09.16.151,forced_choiceRT_color,2021.2.3,MacIntel,59.99880002,,,,,,,,2,Slow,short,j,1,2.1312,7,0,28,2,1,,,,,
,1.02,,,,,,,,,j,red,5f0c61f219803a07239a4269,2021-09-27_14h09.16.151,forced_choiceRT_color,2021.2.3,MacIntel,59.99880002,,,,,,,,2,Fast,short,j,1,1.8687,7,1,29,2,1,,,,,
,0.85,,,,,,,,,f,blue,5f0c61f219803a07239a4269,2021-09-27_14h09.16.151,forced_choiceRT_color,2021.2.3,MacIntel,59.99880002,,,,,,,,2,Fast,short,f,1,1.8549,7,2,30,1,1,,,,,
,1.82,,,,,,,,,k,purple,5f0c61f219803a07239a4269,2021-09-27_14h09.16.151,forced_choiceRT_color,2021.2.3,MacIntel,59.99880002,,,,,,,,2,Slow,short,k,1,2.5355,7,3,31,3,1,,,,,
,0.7,,,,,,,,,f,blue,5f0c61f219803a07239a4269,2021-09-27_14h09.16.151,forced_choiceRT_color,2021.2.3,MacIntel,59.99880002,,,,,,,,2,Ontime,short,f,1,2.0448,8,0,32,1,1,,,,,
,1.84,,,,,,,,,j,red,5f0c61f219803a07239a4269,2021-09-27_14h09.16.151,forced_choiceRT_color,2021.2.3,MacIntel,59.99880002,,,,,,,,2,Slow,short,j,1,2.6173,8,1,33,2,1,,,,,
,0.09,,,,,,,,,j,red,5f0c61f219803a07239a4269,2021-09-27_14h09.16.151,forced_choiceRT_color,2021.2.3,MacIntel,59.99880002,,,,,,,,2,Fast,short,j,1,1.7597,8,2,34,2,1,,,,,
,1.46,,,,,,,,,k,purple,5f0c61f219803a07239a4269,2021-09-27_14h09.16.151,forced_choiceRT_color,2021.2.3,MacIntel,59.99880002,,,,,,,,2,Slow,short,k,1,2.2335,8,3,35,3,1,,,,,
,1.19,,,,,,,,,k,purple,5f0c61f219803a07239a4269,2021-09-27_14h09.16.151,forced_choiceRT_color,2021.2.3,MacIntel,59.99880002,,,,,,,,2,Fast,short,k,1,1.7236,9,0,36,3,1,,,,,
,0.14,,,,,,,,,j,red,5f0c61f219803a07239a4269,2021-09-27_14h09.16.151,forced_choiceRT_color,2021.2.3,MacIntel,59.99880002,,,,,,,,2,Ontime,short,j,1,2.0501,9,1,37,2,1,,,,,
,1.24,,,,,,,,,f,blue,5f0c61f219803a07239a4269,2021-09-27_14h09.16.151,forced_choiceRT_color,2021.2.3,MacIntel,59.99880002,,,,,,,,2,Slow,short,f,1,2.1185,9,2,38,1,1,,,,,
,1.56,,,,,,,,,f,blue,5f0c61f219803a07239a4269,2021-09-27_14h09.16.151,forced_choiceRT_color,2021.2.3,MacIntel,59.99880002,,,,,,,,2,Slow,short,f,1,2.1274,9,3,39,1,1,,,,,
,,,,,,,,,,,,5f0c61f219803a07239a4269,2021-09-27_14h09.16.151,forced_choiceRT_color,2021.2.3,MacIntel,59.99880002,,,,,,,,,,,,,,,,,,,1,0,1,0,1
,1.78,,,,,,,,,j,red,5f0c61f219803a07239a4269,2021-09-27_14h09.16.151,forced_choiceRT_color,2021.2.3,MacIntel,59.99880002,,,,,,,,3,Slow,short,j,1,3.7477,0,0,0,2,1,,,,,
,1.97,,,,,,,,,d,orange,5f0c61f219803a07239a4269,2021-09-27_14h09.16.151,forced_choiceRT_color,2021.2.3,MacIntel,59.99880002,,,,,,,,3,Slow,short,k,0,2.2103,0,1,1,0,1,,,,,
,0.32,,,,,,,,,f,blue,5f0c61f219803a07239a4269,2021-09-27_14h09.16.151,forced_choiceRT_color,2021.2.3,MacIntel,59.99880002,,,,,,,,3,Fast,short,f,1,1.3749,0,2,2,1,1,,,,,
,0.56,,,,,,,,,f,blue,5f0c61f219803a07239a4269,2021-09-27_14h09.16.151,forced_choiceRT_color,2021.2.3,MacIntel,59.99880002,,,,,,,,3,Ontime,short,f,1,1.9351,0,3,3,1,1,,,,,
,0.71,,,,,,,,,d,orange,5f0c61f219803a07239a4269,2021-09-27_14h09.16.151,forced_choiceRT_color,2021.2.3,MacIntel,59.99880002,,,,,,,,3,Slow,short,k,0,3.1374,1,0,4,0,1,,,,,
,0.21,,,,,,,,,j,red,5f0c61f219803a07239a4269,2021-09-27_14h09.16.151,forced_choiceRT_color,2021.2.3,MacIntel,59.99880002,,,,,,,,3,Fast,short,j,1,1.8281,1,1,5,2,1,,,,,
,1.04,,,,,,,,,k,purple,5f0c61f219803a07239a4269,2021-09-27_14h09.16.151,forced_choiceRT_color,2021.2.3,MacIntel,59.99880002,,,,,,,,3,Slow,short,k,1,2.1891,1,2,6,3,1,,,,,
,0.91,,,,,,,,,f,blue,5f0c61f219803a07239a4269,2021-09-27_14h09.16.151,forced_choiceRT_color,2021.2.3,MacIntel,59.99880002,,,,,,,,3,Fast,short,f,1,1.8558,1,3,7,1,1,,,,,
,0.01,,,,,,,,,f,blue,5f0c61f219803a07239a4269,2021-09-27_14h09.16.151,forced_choiceRT_color,2021.2.3,MacIntel,59.99880002,,,,,,,,3,Slow,short,f,1,2.1336,2,0,8,1,1,,,,,
,0.71,,,,,,,,,d,orange,5f0c61f219803a07239a4269,2021-09-27_14h09.16.151,forced_choiceRT_color,2021.2.3,MacIntel,59.99880002,,,,,,,,3,Ontime,short,k,0,2.0467,2,1,9,0,1,,,,,
,0.82,,,,,,,,,d,orange,5f0c61f219803a07239a4269,2021-09-27_14h09.16.151,forced_choiceRT_color,2021.2.3,MacIntel,59.99880002,,,,,,,,3,Ontime,short,j,0,2.0719,2,2,10,0,1,,,,,
,0.82,,,,,,,,,j,red,5f0c61f219803a07239a4269,2021-09-27_14h09.16.151,forced_choiceRT_color,2021.2.3,MacIntel,59.99880002,,,,,,,,3,Slow,short,j,1,2.1764,2,3,11,2,1,,,,,
,0.35,,,,,,,,,f,blue,5f0c61f219803a07239a4269,2021-09-27_14h09.16.151,forced_choiceRT_color,2021.2.3,MacIntel,59.99880002,,,,,,,,3,Ontime,short,f,1,2.0722,3,0,12,1,1,,,,,
,0.21,,,,,,,,,f,blue,5f0c61f219803a07239a4269,2021-09-27_14h09.16.151,forced_choiceRT_color,2021.2.3,MacIntel,59.99880002,,,,,,,,3,Slow,short,f,1,2.2089,3,1,13,1,1,,,,,
,1.52,,,,,,,,,k,purple,5f0c61f219803a07239a4269,2021-09-27_14h09.16.151,forced_choiceRT_color,2021.2.3,MacIntel,59.99880002,,,,,,,,3,Slow,short,k,1,2.3237,3,2,14,3,1,,,,,
,0.75,,,,,,,,,k,purple,5f0c61f219803a07239a4269,2021-09-27_14h09.16.151,forced_choiceRT_color,2021.2.3,MacIntel,59.99880002,,,,,,,,3,Slow,short,k,1,2.1187,3,3,15,3,1,,,,,
,0.27,,,,,,,,,j,red,5f0c61f219803a07239a4269,2021-09-27_14h09.16.151,forced_choiceRT_color,2021.2.3,MacIntel,59.99880002,,,,,,,,3,Slow,short,j,1,2.3049,4,0,16,2,1,,,,,
,1.02,,,,,,,,,d,orange,5f0c61f219803a07239a4269,2021-09-27_14h09.16.151,forced_choiceRT_color,2021.2.3,MacIntel,59.99880002,,,,,,,,3,Slow,short,d,1,2.2083,4,1,17,0,1,,,,,
,0.76,,,,,,,,,f,blue,5f0c61f219803a07239a4269,2021-09-27_14h09.16.151,forced_choiceRT_color,2021.2.3,MacIntel,59.99880002,,,,,,,,3,Fast,short,d,0,1.8587,4,2,18,1,1,,,,,
,0.63,,,,,,,,,k,purple,5f0c61f219803a07239a4269,2021-09-27_14h09.16.151,forced_choiceRT_color,2021.2.3,MacIntel,59.99880002,,,,,,,,3,Ontime,short,k,1,2.0052,4,3,19,3,1,,,,,
,1.22,,,,,,,,,d,orange,5f0c61f219803a07239a4269,2021-09-27_14h09.16.151,forced_choiceRT_color,2021.2.3,MacIntel,59.99880002,,,,,,,,3,Ontime,short,f,0,1.952,5,0,20,0,1,,,,,
,0.78,,,,,,,,,j,red,5f0c61f219803a07239a4269,2021-09-27_14h09.16.151,forced_choiceRT_color,2021.2.3,MacIntel,59.99880002,,,,,,,,3,Ontime,short,j,1,1.9423,5,1,21,2,1,,,,,
,1.56,,,,,,,,,k,purple,5f0c61f219803a07239a4269,2021-09-27_14h09.16.151,forced_choiceRT_color,2021.2.3,MacIntel,59.99880002,,,,,,,,3,Slow,short,k,1,2.2731,5,2,22,3,1,,,,,
,1.27,,,,,,,,,d,orange,5f0c61f219803a07239a4269,2021-09-27_14h09.16.151,forced_choiceRT_color,2021.2.3,MacIntel,59.99880002,,,,,,,,3,Slow,short,f,0,2.14,5,3,23,0,1,,,,,
,1.91,,,,,,,,,f,blue,5f0c61f219803a07239a4269,2021-09-27_14h09.16.151,forced_choiceRT_color,2021.2.3,MacIntel,59.99880002,,,,,,,,3,Slow,short,j,0,2.1179,6,0,24,1,1,,,,,
,1.19,,,,,,,,,d,orange,5f0c61f219803a07239a4269,2021-09-27_14h09.16.151,forced_choiceRT_color,2021.2.3,MacIntel,59.99880002,,,,,,,,3,Fast,short,k,0,1.8701,6,1,25,0,1,,,,,
,0.81,,,,,,,,,j,red,5f0c61f219803a07239a4269,2021-09-27_14h09.16.151,forced_choiceRT_color,2021.2.3,MacIntel,59.99880002,,,,,,,,3,Fast,short,j,1,1.7946,6,2,26,2,1,,,,,
,1.61,,,,,,,,,j,red,5f0c61f219803a07239a4269,2021-09-27_14h09.16.151,forced_choiceRT_color,2021.2.3,MacIntel,59.99880002,,,,,,,,3,Slow,short,j,1,2.2589,6,3,27,2,1,,,,,
,1.69,,,,,,,,,d,orange,5f0c61f219803a07239a4269,2021-09-27_14h09.16.151,forced_choiceRT_color,2021.2.3,MacIntel,59.99880002,,,,,,,,3,Slow,short,d,1,2.2595,7,0,28,0,1,,,,,
,1.73,,,,,,,,,k,purple,5f0c61f219803a07239a4269,2021-09-27_14h09.16.151,forced_choiceRT_color,2021.2.3,MacIntel,59.99880002,,,,,,,,3,Slow,short,k,1,2.3079,7,1,29,3,1,,,,,
,0.68,,,,,,,,,k,purple,5f0c61f219803a07239a4269,2021-09-27_14h09.16.151,forced_choiceRT_color,2021.2.3,MacIntel,59.99880002,,,,,,,,3,Slow,short,k,1,2.1215,7,2,30,3,1,,,,,
,0.76,,,,,,,,,f,blue,5f0c61f219803a07239a4269,2021-09-27_14h09.16.151,forced_choiceRT_color,2021.2.3,MacIntel,59.99880002,,,,,,,,3,Ontime,short,f,1,1.9565,7,3,31,1,1,,,,,
,0.12,,,,,,,,,k,purple,5f0c61f219803a07239a4269,2021-09-27_14h09.16.151,forced_choiceRT_color,2021.2.3,MacIntel,59.99880002,,,,,,,,3,Ontime,short,k,1,1.9638,8,0,32,3,1,,,,,
,0.5,,,,,,,,,f,blue,5f0c61f219803a07239a4269,2021-09-27_14h09.16.151,forced_choiceRT_color,2021.2.3,MacIntel,59.99880002,,,,,,,,3,Ontime,short,f,1,1.986,8,1,33,1,1,,,,,
,0.53,,,,,,,,,k,purple,5f0c61f219803a07239a4269,2021-09-27_14h09.16.151,forced_choiceRT_color,2021.2.3,MacIntel,59.99880002,,,,,,,,3,Ontime,short,k,1,1.9373,8,2,34,3,1,,,,,
,0.23,,,,,,,,,j,red,5f0c61f219803a07239a4269,2021-09-27_14h09.16.151,forced_choiceRT_color,2021.2.3,MacIntel,59.99880002,,,,,,,,3,Fast,short,k,0,0.2511,8,3,35,2,1,,,,,
,1.95,,,,,,,,,j,red,5f0c61f219803a07239a4269,2021-09-27_14h09.16.151,forced_choiceRT_color,2021.2.3,MacIntel,59.99880002,,,,,,,,3,Slow,short,k,0,2.3928,9,0,36,2,1,,,,,
,0.74,,,,,,,,,j,red,5f0c61f219803a07239a4269,2021-09-27_14h09.16.151,forced_choiceRT_color,2021.2.3,MacIntel,59.99880002,,,,,,,,3,Fast,short,j,1,1.8741,9,1,37,2,1,,,,,
,0.18,,,,,,,,,d,orange,5f0c61f219803a07239a4269,2021-09-27_14h09.16.151,forced_choiceRT_color,2021.2.3,MacIntel,59.99880002,,,,,,,,3,Ontime,short,d,1,1.989,9,2,38,0,1,,,,,
,0.23,,,,,,,,,k,purple,5f0c61f219803a07239a4269,2021-09-27_14h09.16.151,forced_choiceRT_color,2021.2.3,MacIntel,59.99880002,,,,,,,,3,Ontime,short,k,1,1.9531,9,3,39,3,1,,,,,
,,,,,,,,,,,,5f0c61f219803a07239a4269,2021-09-27_14h09.16.151,forced_choiceRT_color,2021.2.3,MacIntel,59.99880002,,,,,,,,,,,,,,,,,,,2,0,2,0,1
,1.69,,,,,,,,,j,red,5f0c61f219803a07239a4269,2021-09-27_14h09.16.151,forced_choiceRT_color,2021.2.3,MacIntel,59.99880002,,,,,,,,4,Slow,short,j,1,3.3235,0,0,0,2,1,,,,,
,0.25,,,,,,,,,d,orange,5f0c61f219803a07239a4269,2021-09-27_14h09.16.151,forced_choiceRT_color,2021.2.3,MacIntel,59.99880002,,,,,,,,4,Fast,short,j,0,1.4879,0,1,1,0,1,,,,,
,0.47,,,,,,,,,d,orange,5f0c61f219803a07239a4269,2021-09-27_14h09.16.151,forced_choiceRT_color,2021.2.3,MacIntel,59.99880002,,,,,,,,4,Fast,short,d,1,1.7045,0,2,2,0,1,,,,,
,0.92,,,,,,,,,k,purple,5f0c61f219803a07239a4269,2021-09-27_14h09.16.151,forced_choiceRT_color,2021.2.3,MacIntel,59.99880002,,,,,,,,4,Ontime,short,k,1,1.9124,0,3,3,3,1,,,,,
,1.11,,,,,,,,,f,blue,5f0c61f219803a07239a4269,2021-09-27_14h09.16.151,forced_choiceRT_color,2021.2.3,MacIntel,59.99880002,,,,,,,,4,Ontime,short,f,1,1.9194,1,0,4,1,1,,,,,
,1.41,,,,,,,,,j,red,5f0c61f219803a07239a4269,2021-09-27_14h09.16.151,forced_choiceRT_color,2021.2.3,MacIntel,59.99880002,,,,,,,,4,Ontime,short,f,0,1.9422,1,1,5,2,1,,,,,
,0.56,,,,,,,,,d,orange,5f0c61f219803a07239a4269,2021-09-27_14h09.16.151,forced_choiceRT_color,2021.2.3,MacIntel,59.99880002,,,,,,,,4,Fast,short,j,0,1.7857,1,2,6,0,1,,,,,
,1.25,,,,,,,,,k,purple,5f0c61f219803a07239a4269,2021-09-27_14h09.16.151,forced_choiceRT_color,2021.2.3,MacIntel,59.99880002,,,,,,,,4,Fast,short,k,1,1.8767,1,3,7,3,1,,,,,
,0.75,,,,,,,,,f,blue,5f0c61f219803a07239a4269,2021-09-27_14h09.16.151,forced_choiceRT_color,2021.2.3,MacIntel,59.99880002,,,,,,,,4,Fast,short,f,1,1.7724,2,0,8,1,1,,,,,
,1.14,,,,,,,,,d,orange,5f0c61f219803a07239a4269,2021-09-27_14h09.16.151,forced_choiceRT_color,2021.2.3,MacIntel,59.99880002,,,,,,,,4,Ontime,short,j,0,1.9941,2,1,9,0,1,,,,,
,1.03,,,,,,,,,f,blue,5f0c61f219803a07239a4269,2021-09-27_14h09.16.151,forced_choiceRT_color,2021.2.3,MacIntel,59.99880002,,,,,,,,4,Ontime,short,f,1,2.0214,2,2,10,1,1,,,,,
,1.74,,,,,,,,,k,purple,5f0c61f219803a07239a4269,2021-09-27_14h09.16.151,forced_choiceRT_color,2021.2.3,MacIntel,59.99880002,,,,,,,,4,Slow,short,f,0,2.1543,2,3,11,3,1,,,,,
,0.14,,,,,,,,,j,red,5f0c61f219803a07239a4269,2021-09-27_14h09.16.151,forced_choiceRT_color,2021.2.3,MacIntel,59.99880002,,,,,,,,4,Ontime,short,j,1,2.0027,3,0,12,2,1,,,,,
,0.02,,,,,,,,,j,red,5f0c61f219803a07239a4269,2021-09-27_14h09.16.151,forced_choiceRT_color,2021.2.3,MacIntel,59.99880002,,,,,,,,4,Slow,short,j,1,2.1513,3,1,13,2,1,,,,,
,0.62,,,,,,,,,d,orange,5f0c61f219803a07239a4269,2021-09-27_14h09.16.151,forced_choiceRT_color,2021.2.3,MacIntel,59.99880002,,,,,,,,4,Ontime,short,d,1,1.9711,3,2,14,0,1,,,,,
,0.9,,,,,,,,,j,red,5f0c61f219803a07239a4269,2021-09-27_14h09.16.151,forced_choiceRT_color,2021.2.3,MacIntel,59.99880002,,,,,,,,4,Slow,short,j,1,2.1842,3,3,15,2,1,,,,,
,1.78,,,,,,,,,k,purple,5f0c61f219803a07239a4269,2021-09-27_14h09.16.151,forced_choiceRT_color,2021.2.3,MacIntel,59.99880002,,,,,,,,4,Slow,short,k,1,2.2705,4,0,16,3,1,,,,,
,0.61,,,,,,,,,f,blue,5f0c61f219803a07239a4269,2021-09-27_14h09.16.151,forced_choiceRT_color,2021.2.3,MacIntel,59.99880002,,,,,,,,4,Fast,short,f,1,1.6372,4,1,17,1,1,,,,,
,0.84,,,,,,,,,d,orange,5f0c61f219803a07239a4269,2021-09-27_14h09.16.151,forced_choiceRT_color,2021.2.3,MacIntel,59.99880002,,,,,,,,4,Fast,short,j,0,1.8688,4,2,18,0,1,,,,,
,1.83,,,,,,,,,j,red,5f0c61f219803a07239a4269,2021-09-27_14h09.16.151,forced_choiceRT_color,2021.2.3,MacIntel,59.99880002,,,,,,,,4,Slow,short,k,0,2.2096,4,3,19,2,1,,,,,
,0.49,,,,,,,,,j,red,5f0c61f219803a07239a4269,2021-09-27_14h09.16.151,forced_choiceRT_color,2021.2.3,MacIntel,59.99880002,,,,,,,,4,Ontime,short,j,1,1.908,5,0,20,2,1,,,,,
,0.95,,,,,,,,,d,orange,5f0c61f219803a07239a4269,2021-09-27_14h09.16.151,forced_choiceRT_color,2021.2.3,MacIntel,59.99880002,,,,,,,,4,Ontime,short,d,1,2.0847,5,1,21,0,1,,,,,
,1.09,,,,,,,,,k,purple,5f0c61f219803a07239a4269,2021-09-27_14h09.16.151,forced_choiceRT_color,2021.2.3,MacIntel,59.99880002,,,,,,,,4,Slow,short,k,1,2.2512,5,2,22,3,1,,,,,
,0.41,,,,,,,,,k,purple,5f0c61f219803a07239a4269,2021-09-27_14h09.16.151,forced_choiceRT_color,2021.2.3,MacIntel,59.99880002,,,,,,,,4,Ontime,short,k,1,2.0119,5,3,23,3,1,,,,,
,1.73,,,,,,,,,k,purple,5f0c61f219803a07239a4269,2021-09-27_14h09.16.151,forced_choiceRT_color,2021.2.3,MacIntel,59.99880002,,,,,,,,4,Ontime,short,k,1,1.9728,6,0,24,3,1,,,,,
,0.81,,,,,,,,,d,orange,5f0c61f219803a07239a4269,2021-09-27_14h09.16.151,forced_choiceRT_color,2021.2.3,MacIntel,59.99880002,,,,,,,,4,Ontime,short,f,0,2.0704,6,1,25,0,1,,,,,
,0.7,,,,,,,,,f,blue,5f0c61f219803a07239a4269,2021-09-27_14h09.16.151,forced_choiceRT_color,2021.2.3,MacIntel,59.99880002,,,,,,,,4,Ontime,short,d,0,2.0935,6,2,26,1,1,,,,,
,1.46,,,,,,,,,j,red,5f0c61f219803a07239a4269,2021-09-27_14h09.16.151,forced_choiceRT_color,2021.2.3,MacIntel,59.99880002,,,,,,,,4,Ontime,short,f,0,1.9912,6,3,27,2,1,,,,,
,0.29,,,,,,,,,f,blue,5f0c61f219803a07239a4269,2021-09-27_14h09.16.151,forced_choiceRT_color,2021.2.3,MacIntel,59.99880002,,,,,,,,4,Ontime,short,j,0,1.9701,7,0,28,1,1,,,,,
,1.9,,,,,,,,,k,purple,5f0c61f219803a07239a4269,2021-09-27_14h09.16.151,forced_choiceRT_color,2021.2.3,MacIntel,59.99880002,,,,,,,,4,Ontime,short,k,1,2.0343,7,1,29,3,1,,,,,
,1.52,,,,,,,,,j,red,5f0c61f219803a07239a4269,2021-09-27_14h09.16.151,forced_choiceRT_color,2021.2.3,MacIntel,59.99880002,,,,,,,,4,Ontime,short,j,1,1.9227,7,2,30,2,1,,,,,
,1.99,,,,,,,,,f,blue,5f0c61f219803a07239a4269,2021-09-27_14h09.16.151,forced_choiceRT_color,2021.2.3,MacIntel,59.99880002,,,,,,,,4,Ontime,short,j,0,2.0379,7,3,31,1,1,,,,,
,1.81,,,,,,,,,f,blue,5f0c61f219803a07239a4269,2021-09-27_14h09.16.151,forced_choiceRT_color,2021.2.3,MacIntel,59.99880002,,,,,,,,4,Slow,short,k,0,2.137,8,0,32,1,1,,,,,
,0.19,,,,,,,,,k,purple,5f0c61f219803a07239a4269,2021-09-27_14h09.16.151,forced_choiceRT_color,2021.2.3,MacIntel,59.99880002,,,,,,,,4,Fast,short,k,1,1.7898,8,1,33,3,1,,,,,
,0.81,,,,,,,,,f,blue,5f0c61f219803a07239a4269,2021-09-27_14h09.16.151,forced_choiceRT_color,2021.2.3,MacIntel,59.99880002,,,,,,,,4,Slow,short,j,0,2.2882,8,2,34,1,1,,,,,
,1.52,,,,,,,,,f,blue,5f0c61f219803a07239a4269,2021-09-27_14h09.16.151,forced_choiceRT_color,2021.2.3,MacIntel,59.99880002,,,,,,,,4,Slow,short,d,0,2.1723,8,3,35,1,1,,,,,
,1.35,,,,,,,,,d,orange,5f0c61f219803a07239a4269,2021-09-27_14h09.16.151,forced_choiceRT_color,2021.2.3,MacIntel,59.99880002,,,,,,,,4,Fast,short,j,0,1.6743,9,0,36,0,1,,,,,
,0.2,,,,,,,,,d,orange,5f0c61f219803a07239a4269,2021-09-27_14h09.16.151,forced_choiceRT_color,2021.2.3,MacIntel,59.99880002,,,,,,,,4,Ontime,short,d,1,1.9861,9,1,37,0,1,,,,,
,1.65,,,,,,,,,j,red,5f0c61f219803a07239a4269,2021-09-27_14h09.16.151,forced_choiceRT_color,2021.2.3,MacIntel,59.99880002,,,,,,,,4,Ontime,short,d,0,1.9884,9,2,38,2,1,,,,,
,0.11,,,,,,,,,k,purple,5f0c61f219803a07239a4269,2021-09-27_14h09.16.151,forced_choiceRT_color,2021.2.3,MacIntel,59.99880002,,,,,,,,4,Fast,short,k,1,1.8341,9,3,39,3,1,,,,,
,,,,,,,,,,,,5f0c61f219803a07239a4269,2021-09-27_14h09.16.151,forced_choiceRT_color,2021.2.3,MacIntel,59.99880002,,,,,,,,,,,,,,,,,,,3,0,3,0,1
,1.15,,,,,,,,,k,purple,5f0c61f219803a07239a4269,2021-09-27_14h09.16.151,forced_choiceRT_color,2021.2.3,MacIntel,59.99880002,,,,,,,,5,Slow,short,k,1,2.1025,0,0,0,3,1,,,,,
,1.59,,,,,,,,,f,blue,5f0c61f219803a07239a4269,2021-09-27_14h09.16.151,forced_choiceRT_color,2021.2.3,MacIntel,59.99880002,,,,,,,,5,Slow,short,f,1,2.2025,0,1,1,1,1,,,,,
,0.35,,,,,,,,,j,red,5f0c61f219803a07239a4269,2021-09-27_14h09.16.151,forced_choiceRT_color,2021.2.3,MacIntel,59.99880002,,,,,,,,5,Ontime,short,j,1,2.0065,0,2,2,2,1,,,,,
,0.86,,,,,,,,,d,orange,5f0c61f219803a07239a4269,2021-09-27_14h09.16.151,forced_choiceRT_color,2021.2.3,MacIntel,59.99880002,,,,,,,,5,Ontime,short,f,0,2.0221,0,3,3,0,1,,,,,
,0.28,,,,,,,,,d,orange,5f0c61f219803a07239a4269,2021-09-27_14h09.16.151,forced_choiceRT_color,2021.2.3,MacIntel,59.99880002,,,,,,,,5,Fast,short,f,0,1.8025,1,0,4,0,1,,,,,
,0.42,,,,,,,,,f,blue,5f0c61f219803a07239a4269,2021-09-27_14h09.16.151,forced_choiceRT_color,2021.2.3,MacIntel,59.99880002,,,,,,,,5,Fast,short,f,1,1.8259,1,1,5,1,1,,,,,
,0.05,,,,,,,,,d,orange,5f0c61f219803a07239a4269,2021-09-27_14h09.16.151,forced_choiceRT_color,2021.2.3,MacIntel,59.99880002,,,,,,,,5,Fast,short,d,1,1.7099,1,2,6,0,1,,,,,
,0.09,,,,,,,,,j,red,5f0c61f219803a07239a4269,2021-09-27_14h09.16.151,forced_choiceRT_color,2021.2.3,MacIntel,59.99880002,,,,,,,,5,Fast,short,j,1,1.7377,1,3,7,2,1,,,,,
,1.71,,,,,,,,,j,red,5f0c61f219803a07239a4269,2021-09-27_14h09.16.151,forced_choiceRT_color,2021.2.3,MacIntel,59.99880002,,,,,,,,5,Slow,short,j,1,2.251,2,0,8,2,1,,,,,
,1.05,,,,,,,,,k,purple,5f0c61f219803a07239a4269,2021-09-27_14h09.16.151,forced_choiceRT_color,2021.2.3,MacIntel,59.99880002,,,,,,,,5,Ontime,short,k,1,2.0514,2,1,9,3,1,,,,,
,1.11,,,,,,,,,f,blue,5f0c61f219803a07239a4269,2021-09-27_14h09.16.151,forced_choiceRT_color,2021.2.3,MacIntel,59.99880002,,,,,,,,5,Slow,short,d,0,2.2069,2,2,10,1,1,,,,,
,0.85,,,,,,,,,j,red,5f0c61f219803a07239a4269,2021-09-27_14h09.16.151,forced_choiceRT_color,2021.2.3,MacIntel,59.99880002,,,,,,,,5,Ontime,short,j,1,2.0795,2,3,11,2,1,,,,,
,0.6,,,,,,,,,k,purple,5f0c61f219803a07239a4269,2021-09-27_14h09.16.151,forced_choiceRT_color,2021.2.3,MacIntel,59.99880002,,,,,,,,5,Ontime,short,k,1,1.9721,3,0,12,3,1,,,,,
,1.64,,,,,,,,,k,purple,5f0c61f219803a07239a4269,2021-09-27_14h09.16.151,forced_choiceRT_color,2021.2.3,MacIntel,59.99880002,,,,,,,,5,Slow,short,d,0,2.238,3,1,13,3,1,,,,,
,1.58,,,,,,,,,j,red,5f0c61f219803a07239a4269,2021-09-27_14h09.16.151,forced_choiceRT_color,2021.2.3,MacIntel,59.99880002,,,,,,,,5,Slow,short,k,0,2.2364,3,2,14,2,1,,,,,
,1.16,,,,,,,,,f,blue,5f0c61f219803a07239a4269,2021-09-27_14h09.16.151,forced_choiceRT_color,2021.2.3,MacIntel,59.99880002,,,,,,,,5,Ontime,short,d,0,2.0039,3,3,15,1,1,,,,,
,1.33,,,,,,,,,j,red,5f0c61f219803a07239a4269,2021-09-27_14h09.16.151,forced_choiceRT_color,2021.2.3,MacIntel,59.99880002,,,,,,,,5,Ontime,short,j,1,2.0841,4,0,16,2,1,,,,,
,0.68,,,,,,,,,d,orange,5f0c61f219803a07239a4269,2021-09-27_14h09.16.151,forced_choiceRT_color,2021.2.3,MacIntel,59.99880002,,,,,,,,5,Ontime,short,d,1,2.0911,4,1,17,0,1,,,,,
,0.61,,,,,,,,,k,purple,5f0c61f219803a07239a4269,2021-09-27_14h09.16.151,forced_choiceRT_color,2021.2.3,MacIntel,59.99880002,,,,,,,,5,Ontime,short,k,1,1.9927,4,2,18,3,1,,,,,
,0.53,,,,,,,,,d,orange,5f0c61f219803a07239a4269,2021-09-27_14h09.16.151,forced_choiceRT_color,2021.2.3,MacIntel,59.99880002,,,,,,,,5,Ontime,short,f,0,1.9721,4,3,19,0,1,,,,,
,0.19,,,,,,,,,j,red,5f0c61f219803a07239a4269,2021-09-27_14h09.16.151,forced_choiceRT_color,2021.2.3,MacIntel,59.99880002,,,,,,,,5,Fast,short,j,1,1.7359,5,0,20,2,1,,,,,
,1.83,,,,,,,,,d,orange,5f0c61f219803a07239a4269,2021-09-27_14h09.16.151,forced_choiceRT_color,2021.2.3,MacIntel,59.99880002,,,,,,,,5,Slow,short,d,1,2.2435,5,1,21,0,1,,,,,
,1.44,,,,,,,,,f,blue,5f0c61f219803a07239a4269,2021-09-27_14h09.16.151,forced_choiceRT_color,2021.2.3,MacIntel,59.99880002,,,,,,,,5,Ontime,short,f,1,2.0514,5,2,22,1,1,,,,,
,0.82,,,,,,,,,k,purple,5f0c61f219803a07239a4269,2021-09-27_14h09.16.151,forced_choiceRT_color,2021.2.3,MacIntel,59.99880002,,,,,,,,5,Ontime,short,k,1,2.0838,5,3,23,3,1,,,,,
,0.63,,,,,,,,,j,red,5f0c61f219803a07239a4269,2021-09-27_14h09.16.151,forced_choiceRT_color,2021.2.3,MacIntel,59.99880002,,,,,,,,5,Ontime,short,j,1,1.9716,6,0,24,2,1,,,,,
,0.61,,,,,,,,,d,orange,5f0c61f219803a07239a4269,2021-09-27_14h09.16.151,forced_choiceRT_color,2021.2.3,MacIntel,59.99880002,,,,,,,,5,Fast,short,d,1,1.7239,6,1,25,0,1,,,,,
,1.16,,,,,,,,,d,orange,5f0c61f219803a07239a4269,2021-09-27_14h09.16.151,forced_choiceRT_color,2021.2.3,MacIntel,59.99880002,,,,,,,,5,Ontime,short,d,1,1.9391,6,2,26,0,1,,,,,
,0.42,,,,,,,,,f,blue,5f0c61f219803a07239a4269,2021-09-27_14h09.16.151,forced_choiceRT_color,2021.2.3,MacIntel,59.99880002,,,,,,,,5,Fast,short,f,1,1.8856,6,3,27,1,1,,,,,
,1.89,,,,,,,,,d,orange,5f0c61f219803a07239a4269,2021-09-27_14h09.16.151,forced_choiceRT_color,2021.2.3,MacIntel,59.99880002,,,,,,,,5,Slow,short,k,0,2.2016,7,0,28,0,1,,,,,
,1.01,,,,,,,,,k,purple,5f0c61f219803a07239a4269,2021-09-27_14h09.16.151,forced_choiceRT_color,2021.2.3,MacIntel,59.99880002,,,,,,,,5,Slow,short,k,1,2.106,7,1,29,3,1,,,,,
,0.07,,,,,,,,,k,purple,5f0c61f219803a07239a4269,2021-09-27_14h09.16.151,forced_choiceRT_color,2021.2.3,MacIntel,59.99880002,,,,,,,,5,Fast,short,k,1,1.7368,7,2,30,3,1,,,,,
,1.44,,,,,,,,,d,orange,5f0c61f219803a07239a4269,2021-09-27_14h09.16.151,forced_choiceRT_color,2021.2.3,MacIntel,59.99880002,,,,,,,,5,Slow,short,d,1,2.1865,7,3,31,0,1,,,,,
,0.58,,,,,,,,,f,blue,5f0c61f219803a07239a4269,2021-09-27_14h09.16.151,forced_choiceRT_color,2021.2.3,MacIntel,59.99880002,,,,,,,,5,Ontime,short,f,1,2.08,8,0,32,1,1,,,,,
,0.99,,,,,,,,,k,purple,5f0c61f219803a07239a4269,2021-09-27_14h09.16.151,forced_choiceRT_color,2021.2.3,MacIntel,59.99880002,,,,,,,,5,Ontime,short,k,1,2.0681,8,1,33,3,1,,,,,
,1.78,,,,,,,,,j,red,5f0c61f219803a07239a4269,2021-09-27_14h09.16.151,forced_choiceRT_color,2021.2.3,MacIntel,59.99880002,,,,,,,,5,Slow,short,j,1,2.4659,8,2,34,2,1,,,,,
,1.03,,,,,,,,,k,purple,5f0c61f219803a07239a4269,2021-09-27_14h09.16.151,forced_choiceRT_color,2021.2.3,MacIntel,59.99880002,,,,,,,,5,Ontime,short,k,1,1.9258,8,3,35,3,1,,,,,
,0.95,,,,,,,,,j,red,5f0c61f219803a07239a4269,2021-09-27_14h09.16.151,forced_choiceRT_color,2021.2.3,MacIntel,59.99880002,,,,,,,,5,Ontime,short,j,1,2.0048,9,0,36,2,1,,,,,
,1.22,,,,,,,,,f,blue,5f0c61f219803a07239a4269,2021-09-27_14h09.16.151,forced_choiceRT_color,2021.2.3,MacIntel,59.99880002,,,,,,,,5,Ontime,short,d,0,1.9052,9,1,37,1,1,,,,,
,0.81,,,,,,,,,f,blue,5f0c61f219803a07239a4269,2021-09-27_14h09.16.151,forced_choiceRT_color,2021.2.3,MacIntel,59.99880002,,,,,,,,5,Fast,short,f,1,0.0849,9,2,38,1,1,,,,,
,0.85,,,,,,,,,f,blue,5f0c61f219803a07239a4269,2021-09-27_14h09.16.151,forced_choiceRT_color,2021.2.3,MacIntel,59.99880002,,,,,,,,5,Ontime,short,f,1,1.9716,9,3,39,1,1,,,,,
,,,,,,,,,,,,5f0c61f219803a07239a4269,2021-09-27_14h09.16.151,forced_choiceRT_color,2021.2.3,MacIntel,59.99880002,,,,,,,,,,,,,,,,,,,4,0,4,0,1
,0.26,,,,,,,,,f,blue,5f0c61f219803a07239a4269,2021-09-27_14h09.16.151,forced_choiceRT_color,2021.2.3,MacIntel,59.99880002,,,,,,,,6,Slow,short,d,0,3.9187,0,0,0,1,1,,,,,
,0.13,,,,,,,,,k,purple,5f0c61f219803a07239a4269,2021-09-27_14h09.16.151,forced_choiceRT_color,2021.2.3,MacIntel,59.99880002,,,,,,,,6,Fast,short,k,1,1.0659,0,1,1,3,1,,,,,
,0.75,,,,,,,,,d,orange,5f0c61f219803a07239a4269,2021-09-27_14h09.16.151,forced_choiceRT_color,2021.2.3,MacIntel,59.99880002,,,,,,,,6,Fast,short,f,0,1.8534,0,2,2,0,1,,,,,
,0.13,,,,,,,,,d,orange,5f0c61f219803a07239a4269,2021-09-27_14h09.16.151,forced_choiceRT_color,2021.2.3,MacIntel,59.99880002,,,,,,,,6,Ontime,short,f,0,2.0529,0,3,3,0,1,,,,,
,0.71,,,,,,,,,k,purple,5f0c61f219803a07239a4269,2021-09-27_14h09.16.151,forced_choiceRT_color,2021.2.3,MacIntel,59.99880002,,,,,,,,6,Ontime,short,k,1,1.9379,1,0,4,3,1,,,,,
,0,,,,,,,,,d,orange,5f0c61f219803a07239a4269,2021-09-27_14h09.16.151,forced_choiceRT_color,2021.2.3,MacIntel,59.99880002,,,,,,,,6,Ontime,short,d,1,2.0016,1,1,5,0,1,,,,,
,1.13,,,,,,,,,f,blue,5f0c61f219803a07239a4269,2021-09-27_14h09.16.151,forced_choiceRT_color,2021.2.3,MacIntel,59.99880002,,,,,,,,6,Ontime,short,f,1,2.0184,1,2,6,1,1,,,,,
,0.24,,,,,,,,,k,purple,5f0c61f219803a07239a4269,2021-09-27_14h09.16.151,forced_choiceRT_color,2021.2.3,MacIntel,59.99880002,,,,,,,,6,Ontime,short,k,1,1.9586,1,3,7,3,1,,,,,
,1.98,,,,,,,,,f,blue,5f0c61f219803a07239a4269,2021-09-27_14h09.16.151,forced_choiceRT_color,2021.2.3,MacIntel,59.99880002,,,,,,,,6,Slow,short,j,0,2.4375,2,0,8,1,1,,,,,
,1.78,,,,,,,,,k,purple,5f0c61f219803a07239a4269,2021-09-27_14h09.16.151,forced_choiceRT_color,2021.2.3,MacIntel,59.99880002,,,,,,,,6,Slow,short,k,1,2.2672,2,1,9,3,1,,,,,
,1.28,,,,,,,,,j,red,5f0c61f219803a07239a4269,2021-09-27_14h09.16.151,forced_choiceRT_color,2021.2.3,MacIntel,59.99880002,,,,,,,,6,Fast,short,d,0,1.7932,2,2,10,2,1,,,,,
,0.58,,,,,,,,,d,orange,5f0c61f219803a07239a4269,2021-09-27_14h09.16.151,forced_choiceRT_color,2021.2.3,MacIntel,59.99880002,,,,,,,,6,Ontime,short,d,1,1.9519,2,3,11,0,1,,,,,
,0.03,,,,,,,,,j,red,5f0c61f219803a07239a4269,2021-09-27_14h09.16.151,forced_choiceRT_color,2021.2.3,MacIntel,59.99880002,,,,,,,,6,Ontime,short,j,1,1.9367,3,0,12,2,1,,,,,
,1,,,,,,,,,k,purple,5f0c61f219803a07239a4269,2021-09-27_14h09.16.151,forced_choiceRT_color,2021.2.3,MacIntel,59.99880002,,,,,,,,6,Ontime,short,k,1,1.9935,3,1,13,3,1,,,,,
,1.79,,,,,,,,,k,purple,5f0c61f219803a07239a4269,2021-09-27_14h09.16.151,forced_choiceRT_color,2021.2.3,MacIntel,59.99880002,,,,,,,,6,Slow,short,d,0,2.1241,3,2,14,3,1,,,,,
,0.55,,,,,,,,,j,red,5f0c61f219803a07239a4269,2021-09-27_14h09.16.151,forced_choiceRT_color,2021.2.3,MacIntel,59.99880002,,,,,,,,6,Ontime,short,f,0,1.9241,3,3,15,2,1,,,,,
,1.33,,,,,,,,,d,orange,5f0c61f219803a07239a4269,2021-09-27_14h09.16.151,forced_choiceRT_color,2021.2.3,MacIntel,59.99880002,,,,,,,,6,Slow,short,d,1,2.1855,4,0,16,0,1,,,,,
,1.79,,,,,,,,,d,orange,5f0c61f219803a07239a4269,2021-09-27_14h09.16.151,forced_choiceRT_color,2021.2.3,MacIntel,59.99880002,,,,,,,,6,Slow,short,k,0,2.1171,4,1,17,0,1,,,,,
,0.1,,,,,,,,,k,purple,5f0c61f219803a07239a4269,2021-09-27_14h09.16.151,forced_choiceRT_color,2021.2.3,MacIntel,59.99880002,,,,,,,,6,Ontime,short,k,1,1.9562,4,2,18,3,1,,,,,
,1.68,,,,,,,,,f,blue,5f0c61f219803a07239a4269,2021-09-27_14h09.16.151,forced_choiceRT_color,2021.2.3,MacIntel,59.99880002,,,,,,,,6,Slow,short,d,0,2.2348,4,3,19,1,1,,,,,
,1.45,,,,,,,,,f,blue,5f0c61f219803a07239a4269,2021-09-27_14h09.16.151,forced_choiceRT_color,2021.2.3,MacIntel,59.99880002,,,,,,,,6,Slow,short,f,1,2.1321,5,0,20,1,1,,,,,
,0.43,,,,,,,,,d,orange,5f0c61f219803a07239a4269,2021-09-27_14h09.16.151,forced_choiceRT_color,2021.2.3,MacIntel,59.99880002,,,,,,,,6,Ontime,short,k,0,2.0222,5,1,21,0,1,,,,,
,1.56,,,,,,,,,k,purple,5f0c61f219803a07239a4269,2021-09-27_14h09.16.151,forced_choiceRT_color,2021.2.3,MacIntel,59.99880002,,,,,,,,6,Slow,short,k,1,2.1702,5,2,22,3,1,,,,,
,1.54,,,,,,,,,f,blue,5f0c61f219803a07239a4269,2021-09-27_14h09.16.151,forced_choiceRT_color,2021.2.3,MacIntel,59.99880002,,,,,,,,6,Slow,short,f,1,2.1259,5,3,23,1,1,,,,,
,0.5,,,,,,,,,d,orange,5f0c61f219803a07239a4269,2021-09-27_14h09.16.151,forced_choiceRT_color,2021.2.3,MacIntel,59.99880002,,,,,,,,6,Slow,short,d,1,2.106,6,0,24,0,1,,,,,
,0.1,,,,,,,,,f,blue,5f0c61f219803a07239a4269,2021-09-27_14h09.16.151,forced_choiceRT_color,2021.2.3,MacIntel,59.99880002,,,,,,,,6,Slow,short,f,1,2.1065,6,1,25,1,1,,,,,
,0.49,,,,,,,,,d,orange,5f0c61f219803a07239a4269,2021-09-27_14h09.16.151,forced_choiceRT_color,2021.2.3,MacIntel,59.99880002,,,,,,,,6,Ontime,short,f,0,2.0693,6,2,26,0,1,,,,,
,1.4,,,,,,,,,f,blue,5f0c61f219803a07239a4269,2021-09-27_14h09.16.151,forced_choiceRT_color,2021.2.3,MacIntel,59.99880002,,,,,,,,6,Ontime,short,f,1,2.0982,6,3,27,1,1,,,,,
,1.48,,,,,,,,,j,red,5f0c61f219803a07239a4269,2021-09-27_14h09.16.151,forced_choiceRT_color,2021.2.3,MacIntel,59.99880002,,,,,,,,6,Slow,short,k,0,2.206,7,0,28,2,1,,,,,
,0.05,,,,,,,,,j,red,5f0c61f219803a07239a4269,2021-09-27_14h09.16.151,forced_choiceRT_color,2021.2.3,MacIntel,59.99880002,,,,,,,,6,Fast,short,j,1,1.8672,7,1,29,2,1,,,,,
,1.59,,,,,,,,,f,blue,5f0c61f219803a07239a4269,2021-09-27_14h09.16.151,forced_choiceRT_color,2021.2.3,MacIntel,59.99880002,,,,,,,,6,Fast,short,f,1,1.8689,7,2,30,1,1,,,,,
,0.81,,,,,,,,,f,blue,5f0c61f219803a07239a4269,2021-09-27_14h09.16.151,forced_choiceRT_color,2021.2.3,MacIntel,59.99880002,,,,,,,,6,Fast,short,d,0,1.8058,7,3,31,1,1,,,,,
,0.12,,,,,,,,,k,purple,5f0c61f219803a07239a4269,2021-09-27_14h09.16.151,forced_choiceRT_color,2021.2.3,MacIntel,59.99880002,,,,,,,,6,Fast,short,d,0,1.8217,8,0,32,3,1,,,,,
,0.16,,,,,,,,,j,red,5f0c61f219803a07239a4269,2021-09-27_14h09.16.151,forced_choiceRT_color,2021.2.3,MacIntel,59.99880002,,,,,,,,6,Fast,short,j,1,1.8542,8,1,33,2,1,,,,,
,1.92,,,,,,,,,d,orange,5f0c61f219803a07239a4269,2021-09-27_14h09.16.151,forced_choiceRT_color,2021.2.3,MacIntel,59.99880002,,,,,,,,6,Slow,short,d,1,2.2378,8,2,34,0,1,,,,,
,1.94,,,,,,,,,j,red,5f0c61f219803a07239a4269,2021-09-27_14h09.16.151,forced_choiceRT_color,2021.2.3,MacIntel,59.99880002,,,,,,,,6,Slow,short,d,0,2.1547,8,3,35,2,1,,,,,
,0.18,,,,,,,,,k,purple,5f0c61f219803a07239a4269,2021-09-27_14h09.16.151,forced_choiceRT_color,2021.2.3,MacIntel,59.99880002,,,,,,,,6,Fast,short,d,0,1.8134,9,0,36,3,1,,,,,
,0,,,,,,,,,j,red,5f0c61f219803a07239a4269,2021-09-27_14h09.16.151,forced_choiceRT_color,2021.2.3,MacIntel,59.99880002,,,,,,,,6,Fast,short,j,1,1.7738,9,1,37,2,1,,,,,
,1.66,,,,,,,,,j,red,5f0c61f219803a07239a4269,2021-09-27_14h09.16.151,forced_choiceRT_color,2021.2.3,MacIntel,59.99880002,,,,,,,,6,Slow,short,j,1,2.2844,9,2,38,2,1,,,,,
,0,,,,,,,,,j,red,5f0c61f219803a07239a4269,2021-09-27_14h09.16.151,forced_choiceRT_color,2021.2.3,MacIntel,59.99880002,,,,,,,,6,Fast,short,j,1,1.8439,9,3,39,2,1,,,,,
,,,,,,,,,,,,5f0c61f219803a07239a4269,2021-09-27_14h09.16.151,forced_choiceRT_color,2021.2.3,MacIntel,59.99880002,,,,,,,,,,,,,,,,,,,5,0,5,0,1
,1.35,,,,,,,,,d,orange,5f0c61f219803a07239a4269,2021-09-27_14h09.16.151,forced_choiceRT_color,2021.2.3,MacIntel,59.99880002,,,,,,,,7,Slow,short,d,1,2.1262,0,0,0,0,1,,,,,
,1.62,,,,,,,,,d,orange,5f0c61f219803a07239a4269,2021-09-27_14h09.16.151,forced_choiceRT_color,2021.2.3,MacIntel,59.99880002,,,,,,,,7,Slow,short,f,0,2.127,0,1,1,0,1,,,,,
,1.24,,,,,,,,,j,red,5f0c61f219803a07239a4269,2021-09-27_14h09.16.151,forced_choiceRT_color,2021.2.3,MacIntel,59.99880002,,,,,,,,7,Fast,short,j,1,1.8533,0,2,2,2,1,,,,,
,0.63,,,,,,,,,d,orange,5f0c61f219803a07239a4269,2021-09-27_14h09.16.151,forced_choiceRT_color,2021.2.3,MacIntel,59.99880002,,,,,,,,7,Fast,short,d,1,1.8226,0,3,3,0,1,,,,,
,0.64,,,,,,,,,j,red,5f0c61f219803a07239a4269,2021-09-27_14h09.16.151,forced_choiceRT_color,2021.2.3,MacIntel,59.99880002,,,,,,,,7,Ontime,short,j,1,1.9882,1,0,4,2,1,,,,,
,1.77,,,,,,,,,j,red,5f0c61f219803a07239a4269,2021-09-27_14h09.16.151,forced_choiceRT_color,2021.2.3,MacIntel,59.99880002,,,,,,,,7,Slow,short,j,1,2.1862,1,1,5,2,1,,,,,
,0.85,,,,,,,,,f,blue,5f0c61f219803a07239a4269,2021-09-27_14h09.16.151,forced_choiceRT_color,2021.2.3,MacIntel,59.99880002,,,,,,,,7,Ontime,short,f,1,1.9872,1,2,6,1,1,,,,,
,1.76,,,,,,,,,k,purple,5f0c61f219803a07239a4269,2021-09-27_14h09.16.151,forced_choiceRT_color,2021.2.3,MacIntel,59.99880002,,,,,,,,7,Ontime,short,d,0,1.9985,1,3,7,3,1,,,,,
,0.72,,,,,,,,,k,purple,5f0c61f219803a07239a4269,2021-09-27_14h09.16.151,forced_choiceRT_color,2021.2.3,MacIntel,59.99880002,,,,,,,,7,Ontime,short,k,1,1.9938,2,0,8,3,1,,,,,
,0.52,,,,,,,,,j,red,5f0c61f219803a07239a4269,2021-09-27_14h09.16.151,forced_choiceRT_color,2021.2.3,MacIntel,59.99880002,,,,,,,,7,Ontime,short,j,1,2.0204,2,1,9,2,1,,,,,
,1.1,,,,,,,,,f,blue,5f0c61f219803a07239a4269,2021-09-27_14h09.16.151,forced_choiceRT_color,2021.2.3,MacIntel,59.99880002,,,,,,,,7,Fast,short,f,1,1.8684,2,2,10,1,1,,,,,
,0.69,,,,,,,,,f,blue,5f0c61f219803a07239a4269,2021-09-27_14h09.16.151,forced_choiceRT_color,2021.2.3,MacIntel,59.99880002,,,,,,,,7,Ontime,short,d,0,1.9903,2,3,11,1,1,,,,,
,1.08,,,,,,,,,d,orange,5f0c61f219803a07239a4269,2021-09-27_14h09.16.151,forced_choiceRT_color,2021.2.3,MacIntel,59.99880002,,,,,,,,7,Slow,short,d,1,2.2846,3,0,12,0,1,,,,,
,1.1,,,,,,,,,k,purple,5f0c61f219803a07239a4269,2021-09-27_14h09.16.151,forced_choiceRT_color,2021.2.3,MacIntel,59.99880002,,,,,,,,7,Ontime,short,k,1,2.0227,3,1,13,3,1,,,,,
,0.46,,,,,,,,,d,orange,5f0c61f219803a07239a4269,2021-09-27_14h09.16.151,forced_choiceRT_color,2021.2.3,MacIntel,59.99880002,,,,,,,,7,Slow,short,f,0,2.1706,3,2,14,0,1,,,,,
,1.68,,,,,,,,,d,orange,5f0c61f219803a07239a4269,2021-09-27_14h09.16.151,forced_choiceRT_color,2021.2.3,MacIntel,59.99880002,,,,,,,,7,Slow,short,d,1,2.1171,3,3,15,0,1,,,,,
,0.4,,,,,,,,,d,orange,5f0c61f219803a07239a4269,2021-09-27_14h09.16.151,forced_choiceRT_color,2021.2.3,MacIntel,59.99880002,,,,,,,,7,Fast,short,d,1,1.6053,4,0,16,0,1,,,,,
,0.24,,,,,,,,,f,blue,5f0c61f219803a07239a4269,2021-09-27_14h09.16.151,forced_choiceRT_color,2021.2.3,MacIntel,59.99880002,,,,,,,,7,Ontime,short,f,1,1.9934,4,1,17,1,1,,,,,
,1.31,,,,,,,,,k,purple,5f0c61f219803a07239a4269,2021-09-27_14h09.16.151,forced_choiceRT_color,2021.2.3,MacIntel,59.99880002,,,,,,,,7,Slow,short,k,1,2.1099,4,2,18,3,1,,,,,
,1.24,,,,,,,,,k,purple,5f0c61f219803a07239a4269,2021-09-27_14h09.16.151,forced_choiceRT_color,2021.2.3,MacIntel,59.99880002,,,,,,,,7,Ontime,short,k,1,2.076,4,3,19,3,1,,,,,
,1.39,,,,,,,,,f,blue,5f0c61f219803a07239a4269,2021-09-27_14h09.16.151,forced_choiceRT_color,2021.2.3,MacIntel,59.99880002,,,,,,,,7,Slow,short,f,1,2.126,5,0,20,1,1,,,,,
,0.73,,,,,,,,,k,purple,5f0c61f219803a07239a4269,2021-09-27_14h09.16.151,forced_choiceRT_color,2021.2.3,MacIntel,59.99880002,,,,,,,,7,Ontime,short,k,1,1.9445,5,1,21,3,1,,,,,
,1.53,,,,,,,,,f,blue,5f0c61f219803a07239a4269,2021-09-27_14h09.16.151,forced_choiceRT_color,2021.2.3,MacIntel,59.99880002,,,,,,,,7,Ontime,short,f,1,1.9802,5,2,22,1,1,,,,,
,1.81,,,,,,,,,j,red,5f0c61f219803a07239a4269,2021-09-27_14h09.16.151,forced_choiceRT_color,2021.2.3,MacIntel,59.99880002,,,,,,,,7,Slow,short,d,0,2.2863,5,3,23,2,1,,,,,
,0.38,,,,,,,,,k,purple,5f0c61f219803a07239a4269,2021-09-27_14h09.16.151,forced_choiceRT_color,2021.2.3,MacIntel,59.99880002,,,,,,,,7,Ontime,short,k,1,2.0108,6,0,24,3,1,,,,,
,0.23,,,,,,,,,k,purple,5f0c61f219803a07239a4269,2021-09-27_14h09.16.151,forced_choiceRT_color,2021.2.3,MacIntel,59.99880002,,,,,,,,7,Ontime,short,k,1,2.035,6,1,25,3,1,,,,,
,1.93,,,,,,,,,j,red,5f0c61f219803a07239a4269,2021-09-27_14h09.16.151,forced_choiceRT_color,2021.2.3,MacIntel,59.99880002,,,,,,,,7,Slow,short,f,0,2.7017,6,2,26,2,1,,,,,
,1.19,,,,,,,,,j,red,5f0c61f219803a07239a4269,2021-09-27_14h09.16.151,forced_choiceRT_color,2021.2.3,MacIntel,59.99880002,,,,,,,,7,Ontime,short,j,1,1.9898,6,3,27,2,1,,,,,
,0.33,,,,,,,,,j,red,5f0c61f219803a07239a4269,2021-09-27_14h09.16.151,forced_choiceRT_color,2021.2.3,MacIntel,59.99880002,,,,,,,,7,Ontime,short,j,1,1.9542,7,0,28,2,1,,,,,
,1.98,,,,,,,,,j,red,5f0c61f219803a07239a4269,2021-09-27_14h09.16.151,forced_choiceRT_color,2021.2.3,MacIntel,59.99880002,,,,,,,,7,Slow,short,k,0,2.3742,7,1,29,2,1,,,,,
,0.03,,,,,,,,,k,purple,5f0c61f219803a07239a4269,2021-09-27_14h09.16.151,forced_choiceRT_color,2021.2.3,MacIntel,59.99880002,,,,,,,,7,Ontime,short,k,1,2.0863,7,2,30,3,1,,,,,
,1.44,,,,,,,,,d,orange,5f0c61f219803a07239a4269,2021-09-27_14h09.16.151,forced_choiceRT_color,2021.2.3,MacIntel,59.99880002,,,,,,,,7,Ontime,short,f,0,2.023,7,3,31,0,1,,,,,
,0.57,,,,,,,,,f,blue,5f0c61f219803a07239a4269,2021-09-27_14h09.16.151,forced_choiceRT_color,2021.2.3,MacIntel,59.99880002,,,,,,,,7,Ontime,short,d,0,2.0036,8,0,32,1,1,,,,,
,1.59,,,,,,,,,j,red,5f0c61f219803a07239a4269,2021-09-27_14h09.16.151,forced_choiceRT_color,2021.2.3,MacIntel,59.99880002,,,,,,,,7,Slow,short,j,1,2.1724,8,1,33,2,1,,,,,
,1.04,,,,,,,,,f,blue,5f0c61f219803a07239a4269,2021-09-27_14h09.16.151,forced_choiceRT_color,2021.2.3,MacIntel,59.99880002,,,,,,,,7,Ontime,short,j,0,1.9397,8,2,34,1,1,,,,,
,0.1,,,,,,,,,k,purple,5f0c61f219803a07239a4269,2021-09-27_14h09.16.151,forced_choiceRT_color,2021.2.3,MacIntel,59.99880002,,,,,,,,7,Fast,short,k,1,1.7714,8,3,35,3,1,,,,,
,0.37,,,,,,,,,f,blue,5f0c61f219803a07239a4269,2021-09-27_14h09.16.151,forced_choiceRT_color,2021.2.3,MacIntel,59.99880002,,,,,,,,7,Fast,short,d,0,1.7529,9,0,36,1,1,,,,,
,1.42,,,,,,,,,f,blue,5f0c61f219803a07239a4269,2021-09-27_14h09.16.151,forced_choiceRT_color,2021.2.3,MacIntel,59.99880002,,,,,,,,7,Fast,short,d,0,1.872,9,1,37,1,1,,,,,
,1.47,,,,,,,,,d,orange,5f0c61f219803a07239a4269,2021-09-27_14h09.16.151,forced_choiceRT_color,2021.2.3,MacIntel,59.99880002,,,,,,,,7,Ontime,short,f,0,1.9041,9,2,38,0,1,,,,,
,0.21,,,,,,,,,d,orange,5f0c61f219803a07239a4269,2021-09-27_14h09.16.151,forced_choiceRT_color,2021.2.3,MacIntel,59.99880002,,,,,,,,7,Fast,short,d,1,1.7911,9,3,39,0,1,,,,,
,,,,,,,,,,,,5f0c61f219803a07239a4269,2021-09-27_14h09.16.151,forced_choiceRT_color,2021.2.3,MacIntel,59.99880002,,,,,,,,,,,,,,,,,,,6,0,6,0,1
,1.59,,,,,,,,,f,blue,5f0c61f219803a07239a4269,2021-09-27_14h09.16.151,forced_choiceRT_color,2021.2.3,MacIntel,59.99880002,,,,,,,,8,Slow,short,f,1,2.2398,0,0,0,1,1,,,,,
,1.44,,,,,,,,,j,red,5f0c61f219803a07239a4269,2021-09-27_14h09.16.151,forced_choiceRT_color,2021.2.3,MacIntel,59.99880002,,,,,,,,8,Slow,short,k,0,2.1007,0,1,1,2,1,,,,,
,0.5,,,,,,,,,j,red,5f0c61f219803a07239a4269,2021-09-27_14h09.16.151,forced_choiceRT_color,2021.2.3,MacIntel,59.99880002,,,,,,,,8,Ontime,short,j,1,2.0169,0,2,2,2,1,,,,,
,1.34,,,,,,,,,d,orange,5f0c61f219803a07239a4269,2021-09-27_14h09.16.151,forced_choiceRT_color,2021.2.3,MacIntel,59.99880002,,,,,,,,8,Ontime,short,d,1,2.0272,0,3,3,0,1,,,,,
,0.11,,,,,,,,,f,blue,5f0c61f219803a07239a4269,2021-09-27_14h09.16.151,forced_choiceRT_color,2021.2.3,MacIntel,59.99880002,,,,,,,,8,Fast,short,f,1,0.0889,1,0,4,1,1,,,,,
,1.44,,,,,,,,,k,purple,5f0c61f219803a07239a4269,2021-09-27_14h09.16.151,forced_choiceRT_color,2021.2.3,MacIntel,59.99880002,,,,,,,,8,Ontime,short,k,1,2.0534,1,1,5,3,1,,,,,
,0.09,,,,,,,,,d,orange,5f0c61f219803a07239a4269,2021-09-27_14h09.16.151,forced_choiceRT_color,2021.2.3,MacIntel,59.99880002,,,,,,,,8,Ontime,short,d,1,2.0449,1,2,6,0,1,,,,,
,1.51,,,,,,,,,k,purple,5f0c61f219803a07239a4269,2021-09-27_14h09.16.151,forced_choiceRT_color,2021.2.3,MacIntel,59.99880002,,,,,,,,8,Slow,short,k,1,2.153,1,3,7,3,1,,,,,
,1.22,,,,,,,,,f,blue,5f0c61f219803a07239a4269,2021-09-27_14h09.16.151,forced_choiceRT_color,2021.2.3,MacIntel,59.99880002,,,,,,,,8,Fast,short,f,1,1.8035,2,0,8,1,1,,,,,
,1.61,,,,,,,,,j,red,5f0c61f219803a07239a4269,2021-09-27_14h09.16.151,forced_choiceRT_color,2021.2.3,MacIntel,59.99880002,,,,,,,,8,Slow,short,k,0,2.2236,2,1,9,2,1,,,,,
,0.45,,,,,,,,,k,purple,5f0c61f219803a07239a4269,2021-09-27_14h09.16.151,forced_choiceRT_color,2021.2.3,MacIntel,59.99880002,,,,,,,,8,Ontime,short,k,1,2.0511,2,2,10,3,1,,,,,
,1.47,,,,,,,,,j,red,5f0c61f219803a07239a4269,2021-09-27_14h09.16.151,forced_choiceRT_color,2021.2.3,MacIntel,59.99880002,,,,,,,,8,Ontime,short,j,1,2.0834,2,3,11,2,1,,,,,
,0,,,,,,,,,d,orange,5f0c61f219803a07239a4269,2021-09-27_14h09.16.151,forced_choiceRT_color,2021.2.3,MacIntel,59.99880002,,,,,,,,8,Ontime,short,d,1,1.9575,3,0,12,0,1,,,,,
,1.38,,,,,,,,,k,purple,5f0c61f219803a07239a4269,2021-09-27_14h09.16.151,forced_choiceRT_color,2021.2.3,MacIntel,59.99880002,,,,,,,,8,Slow,short,k,1,2.1545,3,1,13,3,1,,,,,
,0.39,,,,,,,,,f,blue,5f0c61f219803a07239a4269,2021-09-27_14h09.16.151,forced_choiceRT_color,2021.2.3,MacIntel,59.99880002,,,,,,,,8,Ontime,short,f,1,1.9206,3,2,14,1,1,,,,,
,1.5,,,,,,,,,j,red,5f0c61f219803a07239a4269,2021-09-27_14h09.16.151,forced_choiceRT_color,2021.2.3,MacIntel,59.99880002,,,,,,,,8,Ontime,short,j,1,2.07,3,3,15,2,1,,,,,
,0.68,,,,,,,,,f,blue,5f0c61f219803a07239a4269,2021-09-27_14h09.16.151,forced_choiceRT_color,2021.2.3,MacIntel,59.99880002,,,,,,,,8,Ontime,short,d,0,1.9193,4,0,16,1,1,,,,,
,0.76,,,,,,,,,k,purple,5f0c61f219803a07239a4269,2021-09-27_14h09.16.151,forced_choiceRT_color,2021.2.3,MacIntel,59.99880002,,,,,,,,8,Ontime,short,k,1,2.007,4,1,17,3,1,,,,,
,0.23,,,,,,,,,f,blue,5f0c61f219803a07239a4269,2021-09-27_14h09.16.151,forced_choiceRT_color,2021.2.3,MacIntel,59.99880002,,,,,,,,8,Ontime,short,f,1,1.9059,4,2,18,1,1,,,,,
,0.88,,,,,,,,,j,red,5f0c61f219803a07239a4269,2021-09-27_14h09.16.151,forced_choiceRT_color,2021.2.3,MacIntel,59.99880002,,,,,,,,8,Slow,short,j,1,2.1037,4,3,19,2,1,,,,,
,1.76,,,,,,,,,d,orange,5f0c61f219803a07239a4269,2021-09-27_14h09.16.151,forced_choiceRT_color,2021.2.3,MacIntel,59.99880002,,,,,,,,8,Slow,short,d,1,2.3006,5,0,20,0,1,,,,,
,0.54,,,,,,,,,k,purple,5f0c61f219803a07239a4269,2021-09-27_14h09.16.151,forced_choiceRT_color,2021.2.3,MacIntel,59.99880002,,,,,,,,8,Fast,short,k,1,1.763,5,1,21,3,1,,,,,
,0.9,,,,,,,,,f,blue,5f0c61f219803a07239a4269,2021-09-27_14h09.16.151,forced_choiceRT_color,2021.2.3,MacIntel,59.99880002,,,,,,,,8,Fast,short,d,0,1.7394,5,2,22,1,1,,,,,
,0.27,,,,,,,,,f,blue,5f0c61f219803a07239a4269,2021-09-27_14h09.16.151,forced_choiceRT_color,2021.2.3,MacIntel,59.99880002,,,,,,,,8,Ontime,short,f,1,1.9511,5,3,23,1,1,,,,,
,0.91,,,,,,,,,j,red,5f0c61f219803a07239a4269,2021-09-27_14h09.16.151,forced_choiceRT_color,2021.2.3,MacIntel,59.99880002,,,,,,,,8,Ontime,short,j,1,2.0489,6,0,24,2,1,,,,,
,1.77,,,,,,,,,k,purple,5f0c61f219803a07239a4269,2021-09-27_14h09.16.151,forced_choiceRT_color,2021.2.3,MacIntel,59.99880002,,,,,,,,8,Slow,short,f,0,2.2036,6,1,25,3,1,,,,,
,0.28,,,,,,,,,d,orange,5f0c61f219803a07239a4269,2021-09-27_14h09.16.151,forced_choiceRT_color,2021.2.3,MacIntel,59.99880002,,,,,,,,8,Ontime,short,d,1,1.9204,6,2,26,0,1,,,,,
,1.18,,,,,,,,,d,orange,5f0c61f219803a07239a4269,2021-09-27_14h09.16.151,forced_choiceRT_color,2021.2.3,MacIntel,59.99880002,,,,,,,,8,Fast,short,d,1,1.739,6,3,27,0,1,,,,,
,0.63,,,,,,,,,k,purple,5f0c61f219803a07239a4269,2021-09-27_14h09.16.151,forced_choiceRT_color,2021.2.3,MacIntel,59.99880002,,,,,,,,8,Ontime,short,k,1,2.0042,7,0,28,3,1,,,,,
,0.58,,,,,,,,,d,orange,5f0c61f219803a07239a4269,2021-09-27_14h09.16.151,forced_choiceRT_color,2021.2.3,MacIntel,59.99880002,,,,,,,,8,Ontime,short,d,1,2.0409,7,1,29,0,1,,,,,
,1.4,,,,,,,,,j,red,5f0c61f219803a07239a4269,2021-09-27_14h09.16.151,forced_choiceRT_color,2021.2.3,MacIntel,59.99880002,,,,,,,,8,Ontime,short,j,1,2.0389,7,2,30,2,1,,,,,
,1.63,,,,,,,,,j,red,5f0c61f219803a07239a4269,2021-09-27_14h09.16.151,forced_choiceRT_color,2021.2.3,MacIntel,59.99880002,,,,,,,,8,Slow,short,j,1,2.1418,7,3,31,2,1,,,,,
,1.97,,,,,,,,,d,orange,5f0c61f219803a07239a4269,2021-09-27_14h09.16.151,forced_choiceRT_color,2021.2.3,MacIntel,59.99880002,,,,,,,,8,Ontime,short,k,0,2.0327,8,0,32,0,1,,,,,
,0.84,,,,,,,,,j,red,5f0c61f219803a07239a4269,2021-09-27_14h09.16.151,forced_choiceRT_color,2021.2.3,MacIntel,59.99880002,,,,,,,,8,Ontime,short,f,0,2.0184,8,1,33,2,1,,,,,
,1.97,,,,,,,,,d,orange,5f0c61f219803a07239a4269,2021-09-27_14h09.16.151,forced_choiceRT_color,2021.2.3,MacIntel,59.99880002,,,,,,,,8,Slow,short,j,0,2.1418,8,2,34,0,1,,,,,
,0.27,,,,,,,,,k,purple,5f0c61f219803a07239a4269,2021-09-27_14h09.16.151,forced_choiceRT_color,2021.2.3,MacIntel,59.99880002,,,,,,,,8,Ontime,short,d,0,1.986,8,3,35,3,1,,,,,
,1.9,,,,,,,,,f,blue,5f0c61f219803a07239a4269,2021-09-27_14h09.16.151,forced_choiceRT_color,2021.2.3,MacIntel,59.99880002,,,,,,,,8,Slow,short,k,0,2.1662,9,0,36,1,1,,,,,
,0.52,,,,,,,,,f,blue,5f0c61f219803a07239a4269,2021-09-27_14h09.16.151,forced_choiceRT_color,2021.2.3,MacIntel,59.99880002,,,,,,,,8,Ontime,short,f,1,1.9869,9,1,37,1,1,,,,,
,1.43,,,,,,,,,d,orange,5f0c61f219803a07239a4269,2021-09-27_14h09.16.151,forced_choiceRT_color,2021.2.3,MacIntel,59.99880002,,,,,,,,8,Ontime,short,d,1,2.021,9,2,38,0,1,,,,,
,0.23,,,,,,,,,k,purple,5f0c61f219803a07239a4269,2021-09-27_14h09.16.151,forced_choiceRT_color,2021.2.3,MacIntel,59.99880002,,,,,,,,8,Ontime,short,k,1,1.9533,9,3,39,3,1,,,,,
,,,,,,,,,,,,5f0c61f219803a07239a4269,2021-09-27_14h09.16.151,forced_choiceRT_color,2021.2.3,MacIntel,59.99880002,,,,,,,,,,,,,,,,,,,7,0,7,0,1
,1.2,,,,,,,,,j,red,5f0c61f219803a07239a4269,2021-09-27_14h09.16.151,forced_choiceRT_color,2021.2.3,MacIntel,59.99880002,,,,,,,,9,Ontime,short,j,1,1.9001,0,0,0,2,1,,,,,
,0.49,,,,,,,,,j,red,5f0c61f219803a07239a4269,2021-09-27_14h09.16.151,forced_choiceRT_color,2021.2.3,MacIntel,59.99880002,,,,,,,,9,Fast,short,j,1,1.7729,0,1,1,2,1,,,,,
,0.79,,,,,,,,,f,blue,5f0c61f219803a07239a4269,2021-09-27_14h09.16.151,forced_choiceRT_color,2021.2.3,MacIntel,59.99880002,,,,,,,,9,Ontime,short,d,0,1.9142,0,2,2,1,1,,,,,
,1.91,,,,,,,,,k,purple,5f0c61f219803a07239a4269,2021-09-27_14h09.16.151,forced_choiceRT_color,2021.2.3,MacIntel,59.99880002,,,,,,,,9,Ontime,short,d,0,1.9265,0,3,3,3,1,,,,,
,1.74,,,,,,,,,k,purple,5f0c61f219803a07239a4269,2021-09-27_14h09.16.151,forced_choiceRT_color,2021.2.3,MacIntel,59.99880002,,,,,,,,9,Slow,short,k,1,2.1829,1,0,4,3,1,,,,,
,1.14,,,,,,,,,d,orange,5f0c61f219803a07239a4269,2021-09-27_14h09.16.151,forced_choiceRT_color,2021.2.3,MacIntel,59.99880002,,,,,,,,9,Fast,short,j,0,1.6862,1,1,5,0,1,,,,,
,1.16,,,,,,,,,d,orange,5f0c61f219803a07239a4269,2021-09-27_14h09.16.151,forced_choiceRT_color,2021.2.3,MacIntel,59.99880002,,,,,,,,9,Fast,short,d,1,1.6686,1,2,6,0,1,,,,,
,1.63,,,,,,,,,f,blue,5f0c61f219803a07239a4269,2021-09-27_14h09.16.151,forced_choiceRT_color,2021.2.3,MacIntel,59.99880002,,,,,,,,9,Ontime,short,k,0,2.0188,1,3,7,1,1,,,,,
,1.25,,,,,,,,,f,blue,5f0c61f219803a07239a4269,2021-09-27_14h09.16.151,forced_choiceRT_color,2021.2.3,MacIntel,59.99880002,,,,,,,,9,Fast,short,j,0,0.0698,2,0,8,1,1,,,,,
,0.8,,,,,,,,,f,blue,5f0c61f219803a07239a4269,2021-09-27_14h09.16.151,forced_choiceRT_color,2021.2.3,MacIntel,59.99880002,,,,,,,,9,Fast,short,f,1,1.7216,2,1,9,1,1,,,,,
,0.92,,,,,,,,,k,purple,5f0c61f219803a07239a4269,2021-09-27_14h09.16.151,forced_choiceRT_color,2021.2.3,MacIntel,59.99880002,,,,,,,,9,Fast,short,f,0,1.8056,2,2,10,3,1,,,,,
,1.38,,,,,,,,,d,orange,5f0c61f219803a07239a4269,2021-09-27_14h09.16.151,forced_choiceRT_color,2021.2.3,MacIntel,59.99880002,,,,,,,,9,Ontime,short,j,0,1.9491,2,3,11,0,1,,,,,
,0.62,,,,,,,,,k,purple,5f0c61f219803a07239a4269,2021-09-27_14h09.16.151,forced_choiceRT_color,2021.2.3,MacIntel,59.99880002,,,,,,,,9,Fast,short,f,0,0.0328,3,0,12,3,1,,,,,
,1.7,,,,,,,,,j,red,5f0c61f219803a07239a4269,2021-09-27_14h09.16.151,forced_choiceRT_color,2021.2.3,MacIntel,59.99880002,,,,,,,,9,Ontime,short,d,0,1.9848,3,1,13,2,1,,,,,
,0.14,,,,,,,,,f,blue,5f0c61f219803a07239a4269,2021-09-27_14h09.16.151,forced_choiceRT_color,2021.2.3,MacIntel,59.99880002,,,,,,,,9,Fast,short,f,1,1.7366,3,2,14,1,1,,,,,
,0.48,,,,,,,,,j,red,5f0c61f219803a07239a4269,2021-09-27_14h09.16.151,forced_choiceRT_color,2021.2.3,MacIntel,59.99880002,,,,,,,,9,Fast,short,f,0,1.7864,3,3,15,2,1,,,,,
,1.71,,,,,,,,,k,purple,5f0c61f219803a07239a4269,2021-09-27_14h09.16.151,forced_choiceRT_color,2021.2.3,MacIntel,59.99880002,,,,,,,,9,Ontime,short,j,0,2.0353,4,0,16,3,1,,,,,
,1,,,,,,,,,k,purple,5f0c61f219803a07239a4269,2021-09-27_14h09.16.151,forced_choiceRT_color,2021.2.3,MacIntel,59.99880002,,,,,,,,9,Ontime,short,k,1,1.9581,4,1,17,3,1,,,,,
,0.25,,,,,,,,,d,orange,5f0c61f219803a07239a4269,2021-09-27_14h09.16.151,forced_choiceRT_color,2021.2.3,MacIntel,59.99880002,,,,,,,,9,Ontime,short,d,1,2.0693,4,2,18,0,1,,,,,
,1.65,,,,,,,,,d,orange,5f0c61f219803a07239a4269,2021-09-27_14h09.16.151,forced_choiceRT_color,2021.2.3,MacIntel,59.99880002,,,,,,,,9,Slow,short,f,0,2.205,4,3,19,0,1,,,,,
,1.88,,,,,,,,,f,blue,5f0c61f219803a07239a4269,2021-09-27_14h09.16.151,forced_choiceRT_color,2021.2.3,MacIntel,59.99880002,,,,,,,,9,Ontime,short,d,0,2.0231,5,0,20,1,1,,,,,
,0.11,,,,,,,,,f,blue,5f0c61f219803a07239a4269,2021-09-27_14h09.16.151,forced_choiceRT_color,2021.2.3,MacIntel,59.99880002,,,,,,,,9,Ontime,short,f,1,1.9384,5,1,21,1,1,,,,,
,0.69,,,,,,,,,j,red,5f0c61f219803a07239a4269,2021-09-27_14h09.16.151,forced_choiceRT_color,2021.2.3,MacIntel,59.99880002,,,,,,,,9,Fast,short,j,1,1.8051,5,2,22,2,1,,,,,
,0.14,,,,,,,,,d,orange,5f0c61f219803a07239a4269,2021-09-27_14h09.16.151,forced_choiceRT_color,2021.2.3,MacIntel,59.99880002,,,,,,,,9,Ontime,short,d,1,2.0089,5,3,23,0,1,,,,,
,0.41,,,,,,,,,d,orange,5f0c61f219803a07239a4269,2021-09-27_14h09.16.151,forced_choiceRT_color,2021.2.3,MacIntel,59.99880002,,,,,,,,9,Fast,short,d,1,1.8528,6,0,24,0,1,,,,,
,1.72,,,,,,,,,k,purple,5f0c61f219803a07239a4269,2021-09-27_14h09.16.151,forced_choiceRT_color,2021.2.3,MacIntel,59.99880002,,,,,,,,9,Ontime,short,k,1,2.0377,6,1,25,3,1,,,,,
,1.52,,,,,,,,,j,red,5f0c61f219803a07239a4269,2021-09-27_14h09.16.151,forced_choiceRT_color,2021.2.3,MacIntel,59.99880002,,,,,,,,9,Slow,short,j,1,2.2488,6,2,26,2,1,,,,,
,0.56,,,,,,,,,k,purple,5f0c61f219803a07239a4269,2021-09-27_14h09.16.151,forced_choiceRT_color,2021.2.3,MacIntel,59.99880002,,,,,,,,9,Ontime,short,k,1,1.9202,6,3,27,3,1,,,,,
,0.96,,,,,,,,,d,orange,5f0c61f219803a07239a4269,2021-09-27_14h09.16.151,forced_choiceRT_color,2021.2.3,MacIntel,59.99880002,,,,,,,,9,Ontime,short,d,1,2.0681,7,0,28,0,1,,,,,
,0.45,,,,,,,,,k,purple,5f0c61f219803a07239a4269,2021-09-27_14h09.16.151,forced_choiceRT_color,2021.2.3,MacIntel,59.99880002,,,,,,,,9,Ontime,short,k,1,1.992,7,1,29,3,1,,,,,
,1.18,,,,,,,,,j,red,5f0c61f219803a07239a4269,2021-09-27_14h09.16.151,forced_choiceRT_color,2021.2.3,MacIntel,59.99880002,,,,,,,,9,Slow,short,f,0,2.1742,7,2,30,2,1,,,,,
,1.11,,,,,,,,,j,red,5f0c61f219803a07239a4269,2021-09-27_14h09.16.151,forced_choiceRT_color,2021.2.3,MacIntel,59.99880002,,,,,,,,9,Fast,short,j,1,1.7416,7,3,31,2,1,,,,,
,1.97,,,,,,,,,k,purple,5f0c61f219803a07239a4269,2021-09-27_14h09.16.151,forced_choiceRT_color,2021.2.3,MacIntel,59.99880002,,,,,,,,9,Fast,short,j,0,1.8161,8,0,32,3,1,,,,,
,1.43,,,,,,,,,f,blue,5f0c61f219803a07239a4269,2021-09-27_14h09.16.151,forced_choiceRT_color,2021.2.3,MacIntel,59.99880002,,,,,,,,9,Fast,short,k,0,1.7243,8,1,33,1,1,,,,,
,0.34,,,,,,,,,f,blue,5f0c61f219803a07239a4269,2021-09-27_14h09.16.151,forced_choiceRT_color,2021.2.3,MacIntel,59.99880002,,,,,,,,9,Ontime,short,f,1,2.0433,8,2,34,1,1,,,,,
,1.15,,,,,,,,,j,red,5f0c61f219803a07239a4269,2021-09-27_14h09.16.151,forced_choiceRT_color,2021.2.3,MacIntel,59.99880002,,,,,,,,9,Ontime,short,j,1,2.0037,8,3,35,2,1,,,,,
,0.97,,,,,,,,,d,orange,5f0c61f219803a07239a4269,2021-09-27_14h09.16.151,forced_choiceRT_color,2021.2.3,MacIntel,59.99880002,,,,,,,,9,Ontime,short,d,1,2.0051,9,0,36,0,1,,,,,
,0,,,,,,,,,f,blue,5f0c61f219803a07239a4269,2021-09-27_14h09.16.151,forced_choiceRT_color,2021.2.3,MacIntel,59.99880002,,,,,,,,9,Ontime,short,f,1,2.0032,9,1,37,1,1,,,,,
,0.68,,,,,,,,,d,orange,5f0c61f219803a07239a4269,2021-09-27_14h09.16.151,forced_choiceRT_color,2021.2.3,MacIntel,59.99880002,,,,,,,,9,Ontime,short,d,1,2.003,9,2,38,0,1,,,,,
,1.38,,,,,,,,,j,red,5f0c61f219803a07239a4269,2021-09-27_14h09.16.151,forced_choiceRT_color,2021.2.3,MacIntel,59.99880002,,,,,,,,9,Slow,short,f,0,2.2371,9,3,39,2,1,,,,,
,,,,,,,,,,,,5f0c61f219803a07239a4269,2021-09-27_14h09.16.151,forced_choiceRT_color,2021.2.3,MacIntel,59.99880002,,,,,,,,,,,,,,,,,,,8,0,8,0,1
,0.62,,,,,,,,,f,blue,5f0c61f219803a07239a4269,2021-09-27_14h09.16.151,forced_choiceRT_color,2021.2.3,MacIntel,59.99880002,,,,,,,,10,Slow,short,d,0,2.3023,0,0,0,1,1,,,,,
,1.04,,,,,,,,,f,blue,5f0c61f219803a07239a4269,2021-09-27_14h09.16.151,forced_choiceRT_color,2021.2.3,MacIntel,59.99880002,,,,,,,,10,Fast,short,d,0,1.6088,0,1,1,1,1,,,,,
,1.52,,,,,,,,,k,purple,5f0c61f219803a07239a4269,2021-09-27_14h09.16.151,forced_choiceRT_color,2021.2.3,MacIntel,59.99880002,,,,,,,,10,Ontime,short,j,0,2.0729,0,2,2,3,1,,,,,
,1.47,,,,,,,,,j,red,5f0c61f219803a07239a4269,2021-09-27_14h09.16.151,forced_choiceRT_color,2021.2.3,MacIntel,59.99880002,,,,,,,,10,Ontime,short,f,0,2.0869,0,3,3,2,1,,,,,
,1.46,,,,,,,,,j,red,5f0c61f219803a07239a4269,2021-09-27_14h09.16.151,forced_choiceRT_color,2021.2.3,MacIntel,59.99880002,,,,,,,,10,Fast,short,d,0,1.885,1,0,4,2,1,,,,,
,0.29,,,,,,,,,d,orange,5f0c61f219803a07239a4269,2021-09-27_14h09.16.151,forced_choiceRT_color,2021.2.3,MacIntel,59.99880002,,,,,,,,10,Fast,short,d,1,1.7535,1,1,5,0,1,,,,,
,1.98,,,,,,,,,k,purple,5f0c61f219803a07239a4269,2021-09-27_14h09.16.151,forced_choiceRT_color,2021.2.3,MacIntel,59.99880002,,,,,,,,10,Ontime,short,k,1,2.0419,1,2,6,3,1,,,,,
,1.23,,,,,,,,,j,red,5f0c61f219803a07239a4269,2021-09-27_14h09.16.151,forced_choiceRT_color,2021.2.3,MacIntel,59.99880002,,,,,,,,10,Ontime,short,j,1,1.9244,1,3,7,2,1,,,,,
,0.02,,,,,,,,,f,blue,5f0c61f219803a07239a4269,2021-09-27_14h09.16.151,forced_choiceRT_color,2021.2.3,MacIntel,59.99880002,,,,,,,,10,Ontime,short,f,1,2.0197,2,0,8,1,1,,,,,
,1.96,,,,,,,,,f,blue,5f0c61f219803a07239a4269,2021-09-27_14h09.16.151,forced_choiceRT_color,2021.2.3,MacIntel,59.99880002,,,,,,,,10,Fast,short,d,0,0.0177,2,1,9,1,1,,,,,
,1.98,,,,,,,,,j,red,5f0c61f219803a07239a4269,2021-09-27_14h09.16.151,forced_choiceRT_color,2021.2.3,MacIntel,59.99880002,,,,,,,,10,Ontime,short,f,0,2.0206,2,2,10,2,1,,,,,
,0.19,,,,,,,,,k,purple,5f0c61f219803a07239a4269,2021-09-27_14h09.16.151,forced_choiceRT_color,2021.2.3,MacIntel,59.99880002,,,,,,,,10,Ontime,short,k,1,2.0074,2,3,11,3,1,,,,,
,0.45,,,,,,,,,j,red,5f0c61f219803a07239a4269,2021-09-27_14h09.16.151,forced_choiceRT_color,2021.2.3,MacIntel,59.99880002,,,,,,,,10,Ontime,short,j,1,1.9538,3,0,12,2,1,,,,,
,0.22,,,,,,,,,k,purple,5f0c61f219803a07239a4269,2021-09-27_14h09.16.151,forced_choiceRT_color,2021.2.3,MacIntel,59.99880002,,,,,,,,10,Ontime,short,k,1,1.9708,3,1,13,3,1,,,,,
,1.51,,,,,,,,,f,blue,5f0c61f219803a07239a4269,2021-09-27_14h09.16.151,forced_choiceRT_color,2021.2.3,MacIntel,59.99880002,,,,,,,,10,Fast,short,f,1,1.758,3,2,14,1,1,,,,,
,1.42,,,,,,,,,d,orange,5f0c61f219803a07239a4269,2021-09-27_14h09.16.151,forced_choiceRT_color,2021.2.3,MacIntel,59.99880002,,,,,,,,10,Ontime,short,d,1,2.0261,3,3,15,0,1,,,,,
,1.83,,,,,,,,,k,purple,5f0c61f219803a07239a4269,2021-09-27_14h09.16.151,forced_choiceRT_color,2021.2.3,MacIntel,59.99880002,,,,,,,,10,Ontime,short,d,0,2.0821,4,0,16,3,1,,,,,
,1.42,,,,,,,,,d,orange,5f0c61f219803a07239a4269,2021-09-27_14h09.16.151,forced_choiceRT_color,2021.2.3,MacIntel,59.99880002,,,,,,,,10,Slow,short,j,0,2.1007,4,1,17,0,1,,,,,
,0.59,,,,,,,,,k,purple,5f0c61f219803a07239a4269,2021-09-27_14h09.16.151,forced_choiceRT_color,2021.2.3,MacIntel,59.99880002,,,,,,,,10,Ontime,short,k,1,1.9371,4,2,18,3,1,,,,,
,1.46,,,,,,,,,k,purple,5f0c61f219803a07239a4269,2021-09-27_14h09.16.151,forced_choiceRT_color,2021.2.3,MacIntel,59.99880002,,,,,,,,10,Ontime,short,k,1,2.036,4,3,19,3,1,,,,,
,0.06,,,,,,,,,d,orange,5f0c61f219803a07239a4269,2021-09-27_14h09.16.151,forced_choiceRT_color,2021.2.3,MacIntel,59.99880002,,,,,,,,10,Ontime,short,d,1,1.9731,5,0,20,0,1,,,,,
,1.01,,,,,,,,,f,blue,5f0c61f219803a07239a4269,2021-09-27_14h09.16.151,forced_choiceRT_color,2021.2.3,MacIntel,59.99880002,,,,,,,,10,Fast,short,f,1,1.7242,5,1,21,1,1,,,,,
,1.82,,,,,,,,,d,orange,5f0c61f219803a07239a4269,2021-09-27_14h09.16.151,forced_choiceRT_color,2021.2.3,MacIntel,59.99880002,,,,,,,,10,Slow,short,j,0,2.1098,5,2,22,0,1,,,,,
,0.02,,,,,,,,,d,orange,5f0c61f219803a07239a4269,2021-09-27_14h09.16.151,forced_choiceRT_color,2021.2.3,MacIntel,59.99880002,,,,,,,,10,Ontime,short,d,1,2.0511,5,3,23,0,1,,,,,
,0.23,,,,,,,,,f,blue,5f0c61f219803a07239a4269,2021-09-27_14h09.16.151,forced_choiceRT_color,2021.2.3,MacIntel,59.99880002,,,,,,,,10,Ontime,short,f,1,2.0666,6,0,24,1,1,,,,,
,1.88,,,,,,,,,d,orange,5f0c61f219803a07239a4269,2021-09-27_14h09.16.151,forced_choiceRT_color,2021.2.3,MacIntel,59.99880002,,,,,,,,10,Fast,short,j,0,1.8097,6,1,25,0,1,,,,,
,1.75,,,,,,,,,d,orange,5f0c61f219803a07239a4269,2021-09-27_14h09.16.151,forced_choiceRT_color,2021.2.3,MacIntel,59.99880002,,,,,,,,10,Ontime,short,k,0,2.0532,6,2,26,0,1,,,,,
,0.17,,,,,,,,,k,purple,5f0c61f219803a07239a4269,2021-09-27_14h09.16.151,forced_choiceRT_color,2021.2.3,MacIntel,59.99880002,,,,,,,,10,Ontime,short,k,1,1.9886,6,3,27,3,1,,,,,
,0.34,,,,,,,,,d,orange,5f0c61f219803a07239a4269,2021-09-27_14h09.16.151,forced_choiceRT_color,2021.2.3,MacIntel,59.99880002,,,,,,,,10,Ontime,short,d,1,2.0044,7,0,28,0,1,,,,,
,0.49,,,,,,,,,k,purple,5f0c61f219803a07239a4269,2021-09-27_14h09.16.151,forced_choiceRT_color,2021.2.3,MacIntel,59.99880002,,,,,,,,10,Ontime,short,f,0,2.0194,7,1,29,3,1,,,,,
,0.06,,,,,,,,,f,blue,5f0c61f219803a07239a4269,2021-09-27_14h09.16.151,forced_choiceRT_color,2021.2.3,MacIntel,59.99880002,,,,,,,,10,Ontime,short,f,1,2.0195,7,2,30,1,1,,,,,
,1.33,,,,,,,,,j,red,5f0c61f219803a07239a4269,2021-09-27_14h09.16.151,forced_choiceRT_color,2021.2.3,MacIntel,59.99880002,,,,,,,,10,Ontime,short,j,1,2.0873,7,3,31,2,1,,,,,
,1.74,,,,,,,,,j,red,5f0c61f219803a07239a4269,2021-09-27_14h09.16.151,forced_choiceRT_color,2021.2.3,MacIntel,59.99880002,,,,,,,,10,Ontime,short,j,1,2.0481,8,0,32,2,1,,,,,
,1.19,,,,,,,,,f,blue,5f0c61f219803a07239a4269,2021-09-27_14h09.16.151,forced_choiceRT_color,2021.2.3,MacIntel,59.99880002,,,,,,,,10,Ontime,short,k,0,2.0587,8,1,33,1,1,,,,,
,0.95,,,,,,,,,f,blue,5f0c61f219803a07239a4269,2021-09-27_14h09.16.151,forced_choiceRT_color,2021.2.3,MacIntel,59.99880002,,,,,,,,10,Ontime,short,d,0,2.0286,8,2,34,1,1,,,,,
,1.66,,,,,,,,,j,red,5f0c61f219803a07239a4269,2021-09-27_14h09.16.151,forced_choiceRT_color,2021.2.3,MacIntel,59.99880002,,,,,,,,10,Ontime,short,f,0,2.0493,8,3,35,2,1,,,,,
,1.12,,,,,,,,,j,red,5f0c61f219803a07239a4269,2021-09-27_14h09.16.151,forced_choiceRT_color,2021.2.3,MacIntel,59.99880002,,,,,,,,10,Ontime,short,j,1,2.009,9,0,36,2,1,,,,,
,1.58,,,,,,,,,d,orange,5f0c61f219803a07239a4269,2021-09-27_14h09.16.151,forced_choiceRT_color,2021.2.3,MacIntel,59.99880002,,,,,,,,10,Ontime,short,d,1,1.9367,9,1,37,0,1,,,,,
,0.34,,,,,,,,,k,purple,5f0c61f219803a07239a4269,2021-09-27_14h09.16.151,forced_choiceRT_color,2021.2.3,MacIntel,59.99880002,,,,,,,,10,Ontime,short,k,1,2.0065,9,2,38,3,1,,,,,
,0.58,,,,,,,,,j,red,5f0c61f219803a07239a4269,2021-09-27_14h09.16.151,forced_choiceRT_color,2021.2.3,MacIntel,59.99880002,,,,,,,,10,Ontime,short,j,1,1.9847,9,3,39,2,1,,,,,
,,,,,,,,,,,,5f0c61f219803a07239a4269,2021-09-27_14h09.16.151,forced_choiceRT_color,2021.2.3,MacIntel,59.99880002,,,,,,,,,,,,,,,,,,,9,0,9,0,1
