IP_Addresss,target_onset,trial_resp_sp.keys,trial_resp_sp.corr,trial_resp_sp.rt,trials_train_loop.thisRepN,trials_train_loop.thisTrialN,trials_train_loop.thisN,trials_train_loop.thisIndex,trials_train_loop.ran,correct_key,color,participant,date,expName,psychopyVersion,OS,frameRate,trial_resp_timing.keys,trial_resp_timing.rt,trials_train_timing.thisRepN,trials_train_timing.thisTrialN,trials_train_timing.thisN,trials_train_timing.thisIndex,trials_train_timing.ran,block_id,ontime,feedback_cond,forcedRT_resp.keys,forcedRT_resp.corr,forcedRT_resp.rt,trials.thisRepN,trials.thisTrialN,trials.thisN,trials.thisIndex,trials.ran,blocks.thisRepN,blocks.thisTrialN,blocks.thisN,blocks.thisIndex,blocks.ran
68.239.22.34,0,k,1,1.9945,0,0,0,3,1,k,purple,5f501399c8c9cc17d6118e60,2021-09-27_17h11.57.730,forced_choiceRT_color,2021.2.3,Win32,60.02040694,,,,,,,,,,,,,,,,,,,,,,,
,0,d,1,2.8548,0,1,1,0,1,d,orange,5f501399c8c9cc17d6118e60,2021-09-27_17h11.57.730,forced_choiceRT_color,2021.2.3,Win32,60.02040694,,,,,,,,,,,,,,,,,,,,,,,
,0,k,1,5.4699,0,2,2,3,1,k,purple,5f501399c8c9cc17d6118e60,2021-09-27_17h11.57.730,forced_choiceRT_color,2021.2.3,Win32,60.02040694,,,,,,,,,,,,,,,,,,,,,,,
,0,k,1,2.8103,0,3,3,3,1,k,purple,5f501399c8c9cc17d6118e60,2021-09-27_17h11.57.730,forced_choiceRT_color,2021.2.3,Win32,60.02040694,,,,,,,,,,,,,,,,,,,,,,,
,0,d,1,0.9007,1,0,4,0,1,d,orange,5f501399c8c9cc17d6118e60,2021-09-27_17h11.57.730,forced_choiceRT_color,2021.2.3,Win32,60.02040694,,,,,,,,,,,,,,,,,,,,,,,
,0,j,1,1.0175,1,1,5,2,1,j,red,5f501399c8c9cc17d6118e60,2021-09-27_17h11.57.730,forced_choiceRT_color,2021.2.3,Win32,60.02040694,,,,,,,,,,,,,,,,,,,,,,,
,0,k,1,0.644,1,2,6,3,1,k,purple,5f501399c8c9cc17d6118e60,2021-09-27_17h11.57.730,forced_choiceRT_color,2021.2.3,Win32,60.02040694,,,,,,,,,,,,,,,,,,,,,,,
,0,f,1,0.9343,1,3,7,1,1,f,blue,5f501399c8c9cc17d6118e60,2021-09-27_17h11.57.730,forced_choiceRT_color,2021.2.3,Win32,60.02040694,,,,,,,,,,,,,,,,,,,,,,,
,0,f,1,0.5863,2,0,8,1,1,f,blue,5f501399c8c9cc17d6118e60,2021-09-27_17h11.57.730,forced_choiceRT_color,2021.2.3,Win32,60.02040694,,,,,,,,,,,,,,,,,,,,,,,
,0,d,1,0.5887,2,1,9,0,1,d,orange,5f501399c8c9cc17d6118e60,2021-09-27_17h11.57.730,forced_choiceRT_color,2021.2.3,Win32,60.02040694,,,,,,,,,,,,,,,,,,,,,,,
,0,j,1,0.5279,2,2,10,2,1,j,red,5f501399c8c9cc17d6118e60,2021-09-27_17h11.57.730,forced_choiceRT_color,2021.2.3,Win32,60.02040694,,,,,,,,,,,,,,,,,,,,,,,
,0,f,1,0.4699,2,3,11,1,1,f,blue,5f501399c8c9cc17d6118e60,2021-09-27_17h11.57.730,forced_choiceRT_color,2021.2.3,Win32,60.02040694,,,,,,,,,,,,,,,,,,,,,,,
,0,d,1,0.501,3,0,12,0,1,d,orange,5f501399c8c9cc17d6118e60,2021-09-27_17h11.57.730,forced_choiceRT_color,2021.2.3,Win32,60.02040694,,,,,,,,,,,,,,,,,,,,,,,
,0,k,1,0.6607,3,1,13,3,1,k,purple,5f501399c8c9cc17d6118e60,2021-09-27_17h11.57.730,forced_choiceRT_color,2021.2.3,Win32,60.02040694,,,,,,,,,,,,,,,,,,,,,,,
,0,k,1,0.6036,3,2,14,3,1,k,purple,5f501399c8c9cc17d6118e60,2021-09-27_17h11.57.730,forced_choiceRT_color,2021.2.3,Win32,60.02040694,,,,,,,,,,,,,,,,,,,,,,,
,0,d,1,0.5023,3,3,15,0,1,d,orange,5f501399c8c9cc17d6118e60,2021-09-27_17h11.57.730,forced_choiceRT_color,2021.2.3,Win32,60.02040694,,,,,,,,,,,,,,,,,,,,,,,
,0,f,0,1.0926,4,0,16,2,1,j,red,5f501399c8c9cc17d6118e60,2021-09-27_17h11.57.730,forced_choiceRT_color,2021.2.3,Win32,60.02040694,,,,,,,,,,,,,,,,,,,,,,,
,0,j,1,0.4908,4,1,17,2,1,j,red,5f501399c8c9cc17d6118e60,2021-09-27_17h11.57.730,forced_choiceRT_color,2021.2.3,Win32,60.02040694,,,,,,,,,,,,,,,,,,,,,,,
,0,f,1,0.794,4,2,18,1,1,f,blue,5f501399c8c9cc17d6118e60,2021-09-27_17h11.57.730,forced_choiceRT_color,2021.2.3,Win32,60.02040694,,,,,,,,,,,,,,,,,,,,,,,
,0,d,1,0.601,4,3,19,0,1,d,orange,5f501399c8c9cc17d6118e60,2021-09-27_17h11.57.730,forced_choiceRT_color,2021.2.3,Win32,60.02040694,,,,,,,,,,,,,,,,,,,,,,,
,0,j,1,0.8673,5,0,20,2,1,j,red,5f501399c8c9cc17d6118e60,2021-09-27_17h11.57.730,forced_choiceRT_color,2021.2.3,Win32,60.02040694,,,,,,,,,,,,,,,,,,,,,,,
,0,d,1,0.6869,5,1,21,0,1,d,orange,5f501399c8c9cc17d6118e60,2021-09-27_17h11.57.730,forced_choiceRT_color,2021.2.3,Win32,60.02040694,,,,,,,,,,,,,,,,,,,,,,,
,0,j,1,0.9673,5,2,22,2,1,j,red,5f501399c8c9cc17d6118e60,2021-09-27_17h11.57.730,forced_choiceRT_color,2021.2.3,Win32,60.02040694,,,,,,,,,,,,,,,,,,,,,,,
,0,j,1,0.5847,5,3,23,2,1,j,red,5f501399c8c9cc17d6118e60,2021-09-27_17h11.57.730,forced_choiceRT_color,2021.2.3,Win32,60.02040694,,,,,,,,,,,,,,,,,,,,,,,
,0,k,1,0.7512,6,0,24,3,1,k,purple,5f501399c8c9cc17d6118e60,2021-09-27_17h11.57.730,forced_choiceRT_color,2021.2.3,Win32,60.02040694,,,,,,,,,,,,,,,,,,,,,,,
,0,d,1,0.8849,6,1,25,0,1,d,orange,5f501399c8c9cc17d6118e60,2021-09-27_17h11.57.730,forced_choiceRT_color,2021.2.3,Win32,60.02040694,,,,,,,,,,,,,,,,,,,,,,,
,0,f,1,0.9758,6,2,26,1,1,f,blue,5f501399c8c9cc17d6118e60,2021-09-27_17h11.57.730,forced_choiceRT_color,2021.2.3,Win32,60.02040694,,,,,,,,,,,,,,,,,,,,,,,
,0,f,1,0.7861,6,3,27,1,1,f,blue,5f501399c8c9cc17d6118e60,2021-09-27_17h11.57.730,forced_choiceRT_color,2021.2.3,Win32,60.02040694,,,,,,,,,,,,,,,,,,,,,,,
,0,k,1,1.0176,7,0,28,3,1,k,purple,5f501399c8c9cc17d6118e60,2021-09-27_17h11.57.730,forced_choiceRT_color,2021.2.3,Win32,60.02040694,,,,,,,,,,,,,,,,,,,,,,,
,0,d,1,0.8235,7,1,29,0,1,d,orange,5f501399c8c9cc17d6118e60,2021-09-27_17h11.57.730,forced_choiceRT_color,2021.2.3,Win32,60.02040694,,,,,,,,,,,,,,,,,,,,,,,
,0,k,1,0.7936,7,2,30,3,1,k,purple,5f501399c8c9cc17d6118e60,2021-09-27_17h11.57.730,forced_choiceRT_color,2021.2.3,Win32,60.02040694,,,,,,,,,,,,,,,,,,,,,,,
,0,k,1,0.7511,7,3,31,3,1,k,purple,5f501399c8c9cc17d6118e60,2021-09-27_17h11.57.730,forced_choiceRT_color,2021.2.3,Win32,60.02040694,,,,,,,,,,,,,,,,,,,,,,,
,0,d,1,0.8182,8,0,32,0,1,d,orange,5f501399c8c9cc17d6118e60,2021-09-27_17h11.57.730,forced_choiceRT_color,2021.2.3,Win32,60.02040694,,,,,,,,,,,,,,,,,,,,,,,
,0,j,1,0.9288,8,1,33,2,1,j,red,5f501399c8c9cc17d6118e60,2021-09-27_17h11.57.730,forced_choiceRT_color,2021.2.3,Win32,60.02040694,,,,,,,,,,,,,,,,,,,,,,,
,0,k,1,0.9178,8,2,34,3,1,k,purple,5f501399c8c9cc17d6118e60,2021-09-27_17h11.57.730,forced_choiceRT_color,2021.2.3,Win32,60.02040694,,,,,,,,,,,,,,,,,,,,,,,
,0,d,1,2.0518,8,3,35,0,1,d,orange,5f501399c8c9cc17d6118e60,2021-09-27_17h11.57.730,forced_choiceRT_color,2021.2.3,Win32,60.02040694,,,,,,,,,,,,,,,,,,,,,,,
,0,k,1,0.7231,9,0,36,3,1,k,purple,5f501399c8c9cc17d6118e60,2021-09-27_17h11.57.730,forced_choiceRT_color,2021.2.3,Win32,60.02040694,,,,,,,,,,,,,,,,,,,,,,,
,0,f,1,0.8242,9,1,37,1,1,f,blue,5f501399c8c9cc17d6118e60,2021-09-27_17h11.57.730,forced_choiceRT_color,2021.2.3,Win32,60.02040694,,,,,,,,,,,,,,,,,,,,,,,
,0,k,1,0.674,9,2,38,3,1,k,purple,5f501399c8c9cc17d6118e60,2021-09-27_17h11.57.730,forced_choiceRT_color,2021.2.3,Win32,60.02040694,,,,,,,,,,,,,,,,,,,,,,,
,0,j,1,1.6193,9,3,39,2,1,j,red,5f501399c8c9cc17d6118e60,2021-09-27_17h11.57.730,forced_choiceRT_color,2021.2.3,Win32,60.02040694,,,,,,,,,,,,,,,,,,,,,,,
,0,f,1,1.2517,10,0,40,1,1,f,blue,5f501399c8c9cc17d6118e60,2021-09-27_17h11.57.730,forced_choiceRT_color,2021.2.3,Win32,60.02040694,,,,,,,,,,,,,,,,,,,,,,,
,0,f,1,3.3794,10,1,41,1,1,f,blue,5f501399c8c9cc17d6118e60,2021-09-27_17h11.57.730,forced_choiceRT_color,2021.2.3,Win32,60.02040694,,,,,,,,,,,,,,,,,,,,,,,
,0,f,1,1.0181,10,2,42,1,1,f,blue,5f501399c8c9cc17d6118e60,2021-09-27_17h11.57.730,forced_choiceRT_color,2021.2.3,Win32,60.02040694,,,,,,,,,,,,,,,,,,,,,,,
,0,f,1,0.7026,10,3,43,1,1,f,blue,5f501399c8c9cc17d6118e60,2021-09-27_17h11.57.730,forced_choiceRT_color,2021.2.3,Win32,60.02040694,,,,,,,,,,,,,,,,,,,,,,,
,0,j,1,1.2293,11,0,44,2,1,j,red,5f501399c8c9cc17d6118e60,2021-09-27_17h11.57.730,forced_choiceRT_color,2021.2.3,Win32,60.02040694,,,,,,,,,,,,,,,,,,,,,,,
,0,j,1,0.6548,11,1,45,2,1,j,red,5f501399c8c9cc17d6118e60,2021-09-27_17h11.57.730,forced_choiceRT_color,2021.2.3,Win32,60.02040694,,,,,,,,,,,,,,,,,,,,,,,
,0,j,1,0.6881,11,2,46,2,1,j,red,5f501399c8c9cc17d6118e60,2021-09-27_17h11.57.730,forced_choiceRT_color,2021.2.3,Win32,60.02040694,,,,,,,,,,,,,,,,,,,,,,,
,0,k,1,1.2186,11,3,47,3,1,k,purple,5f501399c8c9cc17d6118e60,2021-09-27_17h11.57.730,forced_choiceRT_color,2021.2.3,Win32,60.02040694,,,,,,,,,,,,,,,,,,,,,,,
,0,k,1,0.9772,12,0,48,3,1,k,purple,5f501399c8c9cc17d6118e60,2021-09-27_17h11.57.730,forced_choiceRT_color,2021.2.3,Win32,60.02040694,,,,,,,,,,,,,,,,,,,,,,,
,0,d,1,0.9513,12,1,49,0,1,d,orange,5f501399c8c9cc17d6118e60,2021-09-27_17h11.57.730,forced_choiceRT_color,2021.2.3,Win32,60.02040694,,,,,,,,,,,,,,,,,,,,,,,
,0,d,1,1.0345,12,2,50,0,1,d,orange,5f501399c8c9cc17d6118e60,2021-09-27_17h11.57.730,forced_choiceRT_color,2021.2.3,Win32,60.02040694,,,,,,,,,,,,,,,,,,,,,,,
,0,j,1,1.5769,12,3,51,2,1,j,red,5f501399c8c9cc17d6118e60,2021-09-27_17h11.57.730,forced_choiceRT_color,2021.2.3,Win32,60.02040694,,,,,,,,,,,,,,,,,,,,,,,
,0,f,1,1.0288,13,0,52,1,1,f,blue,5f501399c8c9cc17d6118e60,2021-09-27_17h11.57.730,forced_choiceRT_color,2021.2.3,Win32,60.02040694,,,,,,,,,,,,,,,,,,,,,,,
,0,d,1,1.0929,13,1,53,0,1,d,orange,5f501399c8c9cc17d6118e60,2021-09-27_17h11.57.730,forced_choiceRT_color,2021.2.3,Win32,60.02040694,,,,,,,,,,,,,,,,,,,,,,,
,0,f,1,0.6926,13,2,54,1,1,f,blue,5f501399c8c9cc17d6118e60,2021-09-27_17h11.57.730,forced_choiceRT_color,2021.2.3,Win32,60.02040694,,,,,,,,,,,,,,,,,,,,,,,
,0,d,1,0.8369,13,3,55,0,1,d,orange,5f501399c8c9cc17d6118e60,2021-09-27_17h11.57.730,forced_choiceRT_color,2021.2.3,Win32,60.02040694,,,,,,,,,,,,,,,,,,,,,,,
,0,f,1,1.0045,14,0,56,1,1,f,blue,5f501399c8c9cc17d6118e60,2021-09-27_17h11.57.730,forced_choiceRT_color,2021.2.3,Win32,60.02040694,,,,,,,,,,,,,,,,,,,,,,,
,0,j,1,1.0866,14,1,57,2,1,j,red,5f501399c8c9cc17d6118e60,2021-09-27_17h11.57.730,forced_choiceRT_color,2021.2.3,Win32,60.02040694,,,,,,,,,,,,,,,,,,,,,,,
,0,j,1,0.9028,14,2,58,2,1,j,red,5f501399c8c9cc17d6118e60,2021-09-27_17h11.57.730,forced_choiceRT_color,2021.2.3,Win32,60.02040694,,,,,,,,,,,,,,,,,,,,,,,
,0,f,1,0.8918,14,3,59,1,1,f,blue,5f501399c8c9cc17d6118e60,2021-09-27_17h11.57.730,forced_choiceRT_color,2021.2.3,Win32,60.02040694,,,,,,,,,,,,,,,,,,,,,,,
,,,,,,,,,,,,5f501399c8c9cc17d6118e60,2021-09-27_17h11.57.730,forced_choiceRT_color,2021.2.3,Win32,60.02040694,j,6.2029,0,0,0,0,1,,,,,,,,,,,,,,,,
,,,,,,,,,,,,5f501399c8c9cc17d6118e60,2021-09-27_17h11.57.730,forced_choiceRT_color,2021.2.3,Win32,60.02040694,j,0.7711,1,0,1,0,1,,,,,,,,,,,,,,,,
,,,,,,,,,,,,5f501399c8c9cc17d6118e60,2021-09-27_17h11.57.730,forced_choiceRT_color,2021.2.3,Win32,60.02040694,j,0.1036,2,0,2,0,1,,,,,,,,,,,,,,,,
,,,,,,,,,,,,5f501399c8c9cc17d6118e60,2021-09-27_17h11.57.730,forced_choiceRT_color,2021.2.3,Win32,60.02040694,j,1.2852,3,0,3,0,1,,,,,,,,,,,,,,,,
,,,,,,,,,,,,5f501399c8c9cc17d6118e60,2021-09-27_17h11.57.730,forced_choiceRT_color,2021.2.3,Win32,60.02040694,d,0.4687,4,0,4,0,1,,,,,,,,,,,,,,,,
,,,,,,,,,,,,5f501399c8c9cc17d6118e60,2021-09-27_17h11.57.730,forced_choiceRT_color,2021.2.3,Win32,60.02040694,f,4.7874,5,0,5,0,1,,,,,,,,,,,,,,,,
,,,,,,,,,,,,5f501399c8c9cc17d6118e60,2021-09-27_17h11.57.730,forced_choiceRT_color,2021.2.3,Win32,60.02040694,d,1.0352,6,0,6,0,1,,,,,,,,,,,,,,,,
,,,,,,,,,,,,5f501399c8c9cc17d6118e60,2021-09-27_17h11.57.730,forced_choiceRT_color,2021.2.3,Win32,60.02040694,j,1.5734,7,0,7,0,1,,,,,,,,,,,,,,,,
,,,,,,,,,,,,5f501399c8c9cc17d6118e60,2021-09-27_17h11.57.730,forced_choiceRT_color,2021.2.3,Win32,60.02040694,j,0.803,8,0,8,0,1,,,,,,,,,,,,,,,,
,,,,,,,,,,,,5f501399c8c9cc17d6118e60,2021-09-27_17h11.57.730,forced_choiceRT_color,2021.2.3,Win32,60.02040694,d,1.7347,9,0,9,0,1,,,,,,,,,,,,,,,,
,,,,,,,,,,,,5f501399c8c9cc17d6118e60,2021-09-27_17h11.57.730,forced_choiceRT_color,2021.2.3,Win32,60.02040694,d,3.2087,10,0,10,0,1,,,,,,,,,,,,,,,,
,,,,,,,,,,,,5f501399c8c9cc17d6118e60,2021-09-27_17h11.57.730,forced_choiceRT_color,2021.2.3,Win32,60.02040694,d,1.5461,11,0,11,0,1,,,,,,,,,,,,,,,,
,,,,,,,,,,,,5f501399c8c9cc17d6118e60,2021-09-27_17h11.57.730,forced_choiceRT_color,2021.2.3,Win32,60.02040694,d,2.1588,12,0,12,0,1,,,,,,,,,,,,,,,,
,,,,,,,,,,,,5f501399c8c9cc17d6118e60,2021-09-27_17h11.57.730,forced_choiceRT_color,2021.2.3,Win32,60.02040694,d,1.251,13,0,13,0,1,,,,,,,,,,,,,,,,
,,,,,,,,,,,,5f501399c8c9cc17d6118e60,2021-09-27_17h11.57.730,forced_choiceRT_color,2021.2.3,Win32,60.02040694,d,1.3622,14,0,14,0,1,,,,,,,,,,,,,,,,
,,,,,,,,,,,,5f501399c8c9cc17d6118e60,2021-09-27_17h11.57.730,forced_choiceRT_color,2021.2.3,Win32,60.02040694,j,0.8673,15,0,15,0,1,,,,,,,,,,,,,,,,
,,,,,,,,,,,,5f501399c8c9cc17d6118e60,2021-09-27_17h11.57.730,forced_choiceRT_color,2021.2.3,Win32,60.02040694,d,1.5106,16,0,16,0,1,,,,,,,,,,,,,,,,
,,,,,,,,,,,,5f501399c8c9cc17d6118e60,2021-09-27_17h11.57.730,forced_choiceRT_color,2021.2.3,Win32,60.02040694,d,0.4699,17,0,17,0,1,,,,,,,,,,,,,,,,
,,,,,,,,,,,,5f501399c8c9cc17d6118e60,2021-09-27_17h11.57.730,forced_choiceRT_color,2021.2.3,Win32,60.02040694,j,0.3176,18,0,18,0,1,,,,,,,,,,,,,,,,
,,,,,,,,,,,,5f501399c8c9cc17d6118e60,2021-09-27_17h11.57.730,forced_choiceRT_color,2021.2.3,Win32,60.02040694,f,0.5016,19,0,19,0,1,,,,,,,,,,,,,,,,
,0.32,,,,,,,,,k,purple,5f501399c8c9cc17d6118e60,2021-09-27_17h11.57.730,forced_choiceRT_color,2021.2.3,Win32,60.02040694,,,,,,,,1,Fast,long,j,0,1.7558,0,0,0,3,1,,,,,
,0.34,,,,,,,,,j,red,5f501399c8c9cc17d6118e60,2021-09-27_17h11.57.730,forced_choiceRT_color,2021.2.3,Win32,60.02040694,,,,,,,,1,Fast,long,k,0,1.0141,0,1,1,2,1,,,,,
,0.43,,,,,,,,,f,blue,5f501399c8c9cc17d6118e60,2021-09-27_17h11.57.730,forced_choiceRT_color,2021.2.3,Win32,60.02040694,,,,,,,,1,Fast,long,j,0,1.792,0,2,2,1,1,,,,,
,0.82,,,,,,,,,j,red,5f501399c8c9cc17d6118e60,2021-09-27_17h11.57.730,forced_choiceRT_color,2021.2.3,Win32,60.02040694,,,,,,,,1,Slow,long,k,0,11.4403,0,3,3,2,1,,,,,
,0.8,,,,,,,,,k,purple,5f501399c8c9cc17d6118e60,2021-09-27_17h11.57.730,forced_choiceRT_color,2021.2.3,Win32,60.02040694,,,,,,,,1,Slow,long,k,1,5.4242,1,0,4,3,1,,,,,
,1.04,,,,,,,,,j,red,5f501399c8c9cc17d6118e60,2021-09-27_17h11.57.730,forced_choiceRT_color,2021.2.3,Win32,60.02040694,,,,,,,,1,Ontime,long,k,0,2.0979,1,1,5,2,1,,,,,
,1.66,,,,,,,,,j,red,5f501399c8c9cc17d6118e60,2021-09-27_17h11.57.730,forced_choiceRT_color,2021.2.3,Win32,60.02040694,,,,,,,,1,Slow,long,j,1,2.4581,1,2,6,2,1,,,,,
,1.7,,,,,,,,,j,red,5f501399c8c9cc17d6118e60,2021-09-27_17h11.57.730,forced_choiceRT_color,2021.2.3,Win32,60.02040694,,,,,,,,1,Fast,long,j,1,0.6032,1,3,7,2,1,,,,,
,1.64,,,,,,,,,d,orange,5f501399c8c9cc17d6118e60,2021-09-27_17h11.57.730,forced_choiceRT_color,2021.2.3,Win32,60.02040694,,,,,,,,1,Slow,long,k,0,10.5389,2,0,8,0,1,,,,,
,1.03,,,,,,,,,f,blue,5f501399c8c9cc17d6118e60,2021-09-27_17h11.57.730,forced_choiceRT_color,2021.2.3,Win32,60.02040694,,,,,,,,1,Fast,long,k,0,1.0821,2,1,9,1,1,,,,,
,0.99,,,,,,,,,d,orange,5f501399c8c9cc17d6118e60,2021-09-27_17h11.57.730,forced_choiceRT_color,2021.2.3,Win32,60.02040694,,,,,,,,1,Fast,long,j,0,0.3351,2,2,10,0,1,,,,,
,0.94,,,,,,,,,f,blue,5f501399c8c9cc17d6118e60,2021-09-27_17h11.57.730,forced_choiceRT_color,2021.2.3,Win32,60.02040694,,,,,,,,1,Fast,long,j,0,1.2036,2,3,11,1,1,,,,,
,1.05,,,,,,,,,f,blue,5f501399c8c9cc17d6118e60,2021-09-27_17h11.57.730,forced_choiceRT_color,2021.2.3,Win32,60.02040694,,,,,,,,1,Slow,long,j,0,9.5391,3,0,12,1,1,,,,,
,1.67,,,,,,,,,k,purple,5f501399c8c9cc17d6118e60,2021-09-27_17h11.57.730,forced_choiceRT_color,2021.2.3,Win32,60.02040694,,,,,,,,1,Slow,long,k,1,2.3536,3,1,13,3,1,,,,,
,1.54,,,,,,,,,j,red,5f501399c8c9cc17d6118e60,2021-09-27_17h11.57.730,forced_choiceRT_color,2021.2.3,Win32,60.02040694,,,,,,,,1,Slow,long,k,0,2.5019,3,2,14,2,1,,,,,
,0.09,,,,,,,,,k,purple,5f501399c8c9cc17d6118e60,2021-09-27_17h11.57.730,forced_choiceRT_color,2021.2.3,Win32,60.02040694,,,,,,,,1,Fast,long,k,1,0.8045,3,3,15,3,1,,,,,
,1.01,,,,,,,,,f,blue,5f501399c8c9cc17d6118e60,2021-09-27_17h11.57.730,forced_choiceRT_color,2021.2.3,Win32,60.02040694,,,,,,,,1,Slow,long,j,0,2.7023,4,0,16,1,1,,,,,
,1.33,,,,,,,,,d,orange,5f501399c8c9cc17d6118e60,2021-09-27_17h11.57.730,forced_choiceRT_color,2021.2.3,Win32,60.02040694,,,,,,,,1,Slow,long,j,0,4.8716,4,1,17,0,1,,,,,
,0.31,,,,,,,,,k,purple,5f501399c8c9cc17d6118e60,2021-09-27_17h11.57.730,forced_choiceRT_color,2021.2.3,Win32,60.02040694,,,,,,,,1,Ontime,long,j,0,1.9836,4,2,18,3,1,,,,,
,1.9,,,,,,,,,d,orange,5f501399c8c9cc17d6118e60,2021-09-27_17h11.57.730,forced_choiceRT_color,2021.2.3,Win32,60.02040694,,,,,,,,1,Fast,long,j,0,1.6734,4,3,19,0,1,,,,,
,1.99,,,,,,,,,d,orange,5f501399c8c9cc17d6118e60,2021-09-27_17h11.57.730,forced_choiceRT_color,2021.2.3,Win32,60.02040694,,,,,,,,1,Slow,long,j,0,2.7924,5,0,20,0,1,,,,,
,0.56,,,,,,,,,d,orange,5f501399c8c9cc17d6118e60,2021-09-27_17h11.57.730,forced_choiceRT_color,2021.2.3,Win32,60.02040694,,,,,,,,1,Slow,long,j,0,12.346,5,1,21,0,1,,,,,
,0.68,,,,,,,,,j,red,5f501399c8c9cc17d6118e60,2021-09-27_17h11.57.730,forced_choiceRT_color,2021.2.3,Win32,60.02040694,,,,,,,,1,Slow,long,k,0,5.5373,5,2,22,2,1,,,,,
,0.31,,,,,,,,,k,purple,5f501399c8c9cc17d6118e60,2021-09-27_17h11.57.730,forced_choiceRT_color,2021.2.3,Win32,60.02040694,,,,,,,,1,Fast,long,k,1,0.6524,5,3,23,3,1,,,,,
,1.7,,,,,,,,,j,red,5f501399c8c9cc17d6118e60,2021-09-27_17h11.57.730,forced_choiceRT_color,2021.2.3,Win32,60.02040694,,,,,,,,1,Fast,long,k,0,1.4682,6,0,24,2,1,,,,,
,1.3,,,,,,,,,f,blue,5f501399c8c9cc17d6118e60,2021-09-27_17h11.57.730,forced_choiceRT_color,2021.2.3,Win32,60.02040694,,,,,,,,1,Fast,long,k,0,1.5912,6,1,25,1,1,,,,,
,1.36,,,,,,,,,d,orange,5f501399c8c9cc17d6118e60,2021-09-27_17h11.57.730,forced_choiceRT_color,2021.2.3,Win32,60.02040694,,,,,,,,1,Slow,long,k,0,5.1503,6,2,26,0,1,,,,,
,1.57,,,,,,,,,k,purple,5f501399c8c9cc17d6118e60,2021-09-27_17h11.57.730,forced_choiceRT_color,2021.2.3,Win32,60.02040694,,,,,,,,1,Slow,long,k,1,37.5815,6,3,27,3,1,,,,,
,0.07,,,,,,,,,d,orange,5f501399c8c9cc17d6118e60,2021-09-27_17h11.57.730,forced_choiceRT_color,2021.2.3,Win32,60.02040694,,,,,,,,1,Ontime,long,k,0,1.9753,7,0,28,0,1,,,,,
,1.38,,,,,,,,,j,red,5f501399c8c9cc17d6118e60,2021-09-27_17h11.57.730,forced_choiceRT_color,2021.2.3,Win32,60.02040694,,,,,,,,1,Fast,long,k,0,1.5923,7,1,29,2,1,,,,,
,0.73,,,,,,,,,d,orange,5f501399c8c9cc17d6118e60,2021-09-27_17h11.57.730,forced_choiceRT_color,2021.2.3,Win32,60.02040694,,,,,,,,1,Slow,long,k,0,2.5049,7,2,30,0,1,,,,,
,0.08,,,,,,,,,f,blue,5f501399c8c9cc17d6118e60,2021-09-27_17h11.57.730,forced_choiceRT_color,2021.2.3,Win32,60.02040694,,,,,,,,1,Slow,long,k,0,8.1584,7,3,31,1,1,,,,,
,1.8,,,,,,,,,d,orange,5f501399c8c9cc17d6118e60,2021-09-27_17h11.57.730,forced_choiceRT_color,2021.2.3,Win32,60.02040694,,,,,,,,1,Slow,long,j,0,2.3861,8,0,32,0,1,,,,,
,1.52,,,,,,,,,k,purple,5f501399c8c9cc17d6118e60,2021-09-27_17h11.57.730,forced_choiceRT_color,2021.2.3,Win32,60.02040694,,,,,,,,1,Slow,long,k,1,4.3551,8,1,33,3,1,,,,,
,1.02,,,,,,,,,f,blue,5f501399c8c9cc17d6118e60,2021-09-27_17h11.57.730,forced_choiceRT_color,2021.2.3,Win32,60.02040694,,,,,,,,1,Fast,long,k,0,0.8991,8,2,34,1,1,,,,,
,0.26,,,,,,,,,j,red,5f501399c8c9cc17d6118e60,2021-09-27_17h11.57.730,forced_choiceRT_color,2021.2.3,Win32,60.02040694,,,,,,,,1,Fast,long,j,1,0.6818,8,3,35,2,1,,,,,
,0.64,,,,,,,,,f,blue,5f501399c8c9cc17d6118e60,2021-09-27_17h11.57.730,forced_choiceRT_color,2021.2.3,Win32,60.02040694,,,,,,,,1,Slow,long,k,0,14.4487,9,0,36,1,1,,,,,
,1.78,,,,,,,,,k,purple,5f501399c8c9cc17d6118e60,2021-09-27_17h11.57.730,forced_choiceRT_color,2021.2.3,Win32,60.02040694,,,,,,,,1,Slow,long,k,1,3.507,9,1,37,3,1,,,,,
,1.85,,,,,,,,,k,purple,5f501399c8c9cc17d6118e60,2021-09-27_17h11.57.730,forced_choiceRT_color,2021.2.3,Win32,60.02040694,,,,,,,,1,Fast,long,k,1,0.2179,9,2,38,3,1,,,,,
,1.86,,,,,,,,,f,blue,5f501399c8c9cc17d6118e60,2021-09-27_17h11.57.730,forced_choiceRT_color,2021.2.3,Win32,60.02040694,,,,,,,,1,Slow,long,k,0,21.6791,9,3,39,1,1,,,,,
,,,,,,,,,,,,5f501399c8c9cc17d6118e60,2021-09-27_17h11.57.730,forced_choiceRT_color,2021.2.3,Win32,60.02040694,,,,,,,,,,,,,,,,,,,0,0,0,0,1
,1.38,,,,,,,,,f,blue,5f501399c8c9cc17d6118e60,2021-09-27_17h11.57.730,forced_choiceRT_color,2021.2.3,Win32,60.02040694,,,,,,,,2,Ontime,long,j,0,1.975,0,0,0,1,1,,,,,
,0.24,,,,,,,,,d,orange,5f501399c8c9cc17d6118e60,2021-09-27_17h11.57.730,forced_choiceRT_color,2021.2.3,Win32,60.02040694,,,,,,,,2,Fast,long,j,0,0.6707,0,1,1,0,1,,,,,
,1,,,,,,,,,j,red,5f501399c8c9cc17d6118e60,2021-09-27_17h11.57.730,forced_choiceRT_color,2021.2.3,Win32,60.02040694,,,,,,,,2,Slow,long,j,1,2.6043,0,2,2,2,1,,,,,
,1.17,,,,,,,,,f,blue,5f501399c8c9cc17d6118e60,2021-09-27_17h11.57.730,forced_choiceRT_color,2021.2.3,Win32,60.02040694,,,,,,,,2,Ontime,long,f,1,2.092,0,3,3,1,1,,,,,
,1.69,,,,,,,,,d,orange,5f501399c8c9cc17d6118e60,2021-09-27_17h11.57.730,forced_choiceRT_color,2021.2.3,Win32,60.02040694,,,,,,,,2,Slow,long,k,0,2.1103,1,0,4,0,1,,,,,
,0.21,,,,,,,,,k,purple,5f501399c8c9cc17d6118e60,2021-09-27_17h11.57.730,forced_choiceRT_color,2021.2.3,Win32,60.02040694,,,,,,,,2,Fast,long,k,1,0.8037,1,1,5,3,1,,,,,
,0.27,,,,,,,,,j,red,5f501399c8c9cc17d6118e60,2021-09-27_17h11.57.730,forced_choiceRT_color,2021.2.3,Win32,60.02040694,,,,,,,,2,Fast,long,j,1,0.8373,1,2,6,2,1,,,,,
,0.88,,,,,,,,,d,orange,5f501399c8c9cc17d6118e60,2021-09-27_17h11.57.730,forced_choiceRT_color,2021.2.3,Win32,60.02040694,,,,,,,,2,Fast,long,j,0,1.5411,1,3,7,0,1,,,,,
,1.65,,,,,,,,,f,blue,5f501399c8c9cc17d6118e60,2021-09-27_17h11.57.730,forced_choiceRT_color,2021.2.3,Win32,60.02040694,,,,,,,,2,Slow,long,f,1,139.8011,2,0,8,1,1,,,,,
,1.14,,,,,,,,,j,red,5f501399c8c9cc17d6118e60,2021-09-27_17h11.57.730,forced_choiceRT_color,2021.2.3,Win32,60.02040694,,,,,,,,2,Fast,long,k,0,1.6703,2,1,9,2,1,,,,,
,1.72,,,,,,,,,f,blue,5f501399c8c9cc17d6118e60,2021-09-27_17h11.57.730,forced_choiceRT_color,2021.2.3,Win32,60.02040694,,,,,,,,2,Fast,long,j,0,0.9357,2,2,10,1,1,,,,,
,0.37,,,,,,,,,d,orange,5f501399c8c9cc17d6118e60,2021-09-27_17h11.57.730,forced_choiceRT_color,2021.2.3,Win32,60.02040694,,,,,,,,2,Fast,long,d,1,0.0732,2,3,11,0,1,,,,,
,1.37,,,,,,,,,d,orange,5f501399c8c9cc17d6118e60,2021-09-27_17h11.57.730,forced_choiceRT_color,2021.2.3,Win32,60.02040694,,,,,,,,2,Ontime,long,d,1,1.9766,3,0,12,0,1,,,,,
,0.64,,,,,,,,,j,red,5f501399c8c9cc17d6118e60,2021-09-27_17h11.57.730,forced_choiceRT_color,2021.2.3,Win32,60.02040694,,,,,,,,2,Fast,long,d,0,0.6506,3,1,13,2,1,,,,,
,0.28,,,,,,,,,j,red,5f501399c8c9cc17d6118e60,2021-09-27_17h11.57.730,forced_choiceRT_color,2021.2.3,Win32,60.02040694,,,,,,,,2,Fast,long,d,0,0.6516,3,2,14,2,1,,,,,
,1.11,,,,,,,,,j,red,5f501399c8c9cc17d6118e60,2021-09-27_17h11.57.730,forced_choiceRT_color,2021.2.3,Win32,60.02040694,,,,,,,,2,Fast,long,f,0,0.2628,3,3,15,2,1,,,,,
,1.99,,,,,,,,,f,blue,5f501399c8c9cc17d6118e60,2021-09-27_17h11.57.730,forced_choiceRT_color,2021.2.3,Win32,60.02040694,,,,,,,,2,Fast,long,f,1,0.638,4,0,16,1,1,,,,,
,0.2,,,,,,,,,k,purple,5f501399c8c9cc17d6118e60,2021-09-27_17h11.57.730,forced_choiceRT_color,2021.2.3,Win32,60.02040694,,,,,,,,2,Fast,long,f,0,0.6226,4,1,17,3,1,,,,,
,1.56,,,,,,,,,j,red,5f501399c8c9cc17d6118e60,2021-09-27_17h11.57.730,forced_choiceRT_color,2021.2.3,Win32,60.02040694,,,,,,,,2,Fast,long,k,0,0.2505,4,2,18,2,1,,,,,
,1.09,,,,,,,,,j,red,5f501399c8c9cc17d6118e60,2021-09-27_17h11.57.730,forced_choiceRT_color,2021.2.3,Win32,60.02040694,,,,,,,,2,Fast,long,d,0,0.7267,4,3,19,2,1,,,,,
,1.09,,,,,,,,,d,orange,5f501399c8c9cc17d6118e60,2021-09-27_17h11.57.730,forced_choiceRT_color,2021.2.3,Win32,60.02040694,,,,,,,,2,Fast,long,f,0,0.5345,5,0,20,0,1,,,,,
,0.99,,,,,,,,,k,purple,5f501399c8c9cc17d6118e60,2021-09-27_17h11.57.730,forced_choiceRT_color,2021.2.3,Win32,60.02040694,,,,,,,,2,Fast,long,f,0,1.3437,5,1,21,3,1,,,,,
,1.26,,,,,,,,,k,purple,5f501399c8c9cc17d6118e60,2021-09-27_17h11.57.730,forced_choiceRT_color,2021.2.3,Win32,60.02040694,,,,,,,,2,Fast,long,f,0,0.652,5,2,22,3,1,,,,,
,0.44,,,,,,,,,f,blue,5f501399c8c9cc17d6118e60,2021-09-27_17h11.57.730,forced_choiceRT_color,2021.2.3,Win32,60.02040694,,,,,,,,2,Fast,long,f,1,0.979,5,3,23,1,1,,,,,
,0.9,,,,,,,,,k,purple,5f501399c8c9cc17d6118e60,2021-09-27_17h11.57.730,forced_choiceRT_color,2021.2.3,Win32,60.02040694,,,,,,,,2,Fast,long,j,0,1.4215,6,0,24,3,1,,,,,
,1.5,,,,,,,,,f,blue,5f501399c8c9cc17d6118e60,2021-09-27_17h11.57.730,forced_choiceRT_color,2021.2.3,Win32,60.02040694,,,,,,,,2,Slow,long,f,1,2.2222,6,1,25,1,1,,,,,
,0.78,,,,,,,,,f,blue,5f501399c8c9cc17d6118e60,2021-09-27_17h11.57.730,forced_choiceRT_color,2021.2.3,Win32,60.02040694,,,,,,,,2,Fast,long,d,0,1.0459,6,2,26,1,1,,,,,
,0.34,,,,,,,,,k,purple,5f501399c8c9cc17d6118e60,2021-09-27_17h11.57.730,forced_choiceRT_color,2021.2.3,Win32,60.02040694,,,,,,,,2,Slow,long,j,0,2.6232,6,3,27,3,1,,,,,
,0.11,,,,,,,,,k,purple,5f501399c8c9cc17d6118e60,2021-09-27_17h11.57.730,forced_choiceRT_color,2021.2.3,Win32,60.02040694,,,,,,,,2,Fast,long,j,0,0.7682,7,0,28,3,1,,,,,
,0.28,,,,,,,,,d,orange,5f501399c8c9cc17d6118e60,2021-09-27_17h11.57.730,forced_choiceRT_color,2021.2.3,Win32,60.02040694,,,,,,,,2,Fast,long,j,0,0.906,7,1,29,0,1,,,,,
,1.74,,,,,,,,,k,purple,5f501399c8c9cc17d6118e60,2021-09-27_17h11.57.730,forced_choiceRT_color,2021.2.3,Win32,60.02040694,,,,,,,,2,Fast,long,d,0,0.4225,7,2,30,3,1,,,,,
,0.6,,,,,,,,,k,purple,5f501399c8c9cc17d6118e60,2021-09-27_17h11.57.730,forced_choiceRT_color,2021.2.3,Win32,60.02040694,,,,,,,,2,Fast,long,j,0,0.9686,7,3,31,3,1,,,,,
,1.52,,,,,,,,,k,purple,5f501399c8c9cc17d6118e60,2021-09-27_17h11.57.730,forced_choiceRT_color,2021.2.3,Win32,60.02040694,,,,,,,,2,Slow,long,j,0,2.4421,8,0,32,3,1,,,,,
,0.56,,,,,,,,,j,red,5f501399c8c9cc17d6118e60,2021-09-27_17h11.57.730,forced_choiceRT_color,2021.2.3,Win32,60.02040694,,,,,,,,2,Fast,long,j,1,1.2899,8,1,33,2,1,,,,,
,1.51,,,,,,,,,j,red,5f501399c8c9cc17d6118e60,2021-09-27_17h11.57.730,forced_choiceRT_color,2021.2.3,Win32,60.02040694,,,,,,,,2,Slow,long,j,1,3.8795,8,2,34,2,1,,,,,
,1.37,,,,,,,,,d,orange,5f501399c8c9cc17d6118e60,2021-09-27_17h11.57.730,forced_choiceRT_color,2021.2.3,Win32,60.02040694,,,,,,,,2,Fast,long,j,0,0.5155,8,3,35,0,1,,,,,
,1.96,,,,,,,,,f,blue,5f501399c8c9cc17d6118e60,2021-09-27_17h11.57.730,forced_choiceRT_color,2021.2.3,Win32,60.02040694,,,,,,,,2,Fast,long,d,0,0.8096,9,0,36,1,1,,,,,
,1.82,,,,,,,,,d,orange,5f501399c8c9cc17d6118e60,2021-09-27_17h11.57.730,forced_choiceRT_color,2021.2.3,Win32,60.02040694,,,,,,,,2,Fast,long,j,0,0.636,9,1,37,0,1,,,,,
,0.38,,,,,,,,,d,orange,5f501399c8c9cc17d6118e60,2021-09-27_17h11.57.730,forced_choiceRT_color,2021.2.3,Win32,60.02040694,,,,,,,,2,Fast,long,f,0,0.9079,9,2,38,0,1,,,,,
,1.39,,,,,,,,,f,blue,5f501399c8c9cc17d6118e60,2021-09-27_17h11.57.730,forced_choiceRT_color,2021.2.3,Win32,60.02040694,,,,,,,,2,Fast,long,j,0,1.052,9,3,39,1,1,,,,,
,,,,,,,,,,,,5f501399c8c9cc17d6118e60,2021-09-27_17h11.57.730,forced_choiceRT_color,2021.2.3,Win32,60.02040694,,,,,,,,,,,,,,,,,,,1,0,1,0,1
,0.49,,,,,,,,,f,blue,5f501399c8c9cc17d6118e60,2021-09-27_17h11.57.730,forced_choiceRT_color,2021.2.3,Win32,60.02040694,,,,,,,,3,Fast,long,j,0,0.9518,0,0,0,1,1,,,,,
,1.51,,,,,,,,,j,red,5f501399c8c9cc17d6118e60,2021-09-27_17h11.57.730,forced_choiceRT_color,2021.2.3,Win32,60.02040694,,,,,,,,3,Fast,long,k,0,1.2861,0,1,1,2,1,,,,,
,1.43,,,,,,,,,k,purple,5f501399c8c9cc17d6118e60,2021-09-27_17h11.57.730,forced_choiceRT_color,2021.2.3,Win32,60.02040694,,,,,,,,3,Fast,long,j,0,1.637,0,2,2,3,1,,,,,
,1.95,,,,,,,,,f,blue,5f501399c8c9cc17d6118e60,2021-09-27_17h11.57.730,forced_choiceRT_color,2021.2.3,Win32,60.02040694,,,,,,,,3,Fast,long,f,1,1.4386,0,3,3,1,1,,,,,
,0.18,,,,,,,,,j,red,5f501399c8c9cc17d6118e60,2021-09-27_17h11.57.730,forced_choiceRT_color,2021.2.3,Win32,60.02040694,,,,,,,,3,Fast,long,j,1,0.7588,1,0,4,2,1,,,,,
,1.29,,,,,,,,,f,blue,5f501399c8c9cc17d6118e60,2021-09-27_17h11.57.730,forced_choiceRT_color,2021.2.3,Win32,60.02040694,,,,,,,,3,Fast,long,k,0,0.3385,1,1,5,1,1,,,,,
,0.13,,,,,,,,,f,blue,5f501399c8c9cc17d6118e60,2021-09-27_17h11.57.730,forced_choiceRT_color,2021.2.3,Win32,60.02040694,,,,,,,,3,Fast,long,d,0,0.5316,1,2,6,1,1,,,,,
,0.39,,,,,,,,,d,orange,5f501399c8c9cc17d6118e60,2021-09-27_17h11.57.730,forced_choiceRT_color,2021.2.3,Win32,60.02040694,,,,,,,,3,Fast,long,f,0,0.3515,1,3,7,0,1,,,,,
,1.13,,,,,,,,,d,orange,5f501399c8c9cc17d6118e60,2021-09-27_17h11.57.730,forced_choiceRT_color,2021.2.3,Win32,60.02040694,,,,,,,,3,Fast,long,j,0,0.544,2,0,8,0,1,,,,,
,0.38,,,,,,,,,d,orange,5f501399c8c9cc17d6118e60,2021-09-27_17h11.57.730,forced_choiceRT_color,2021.2.3,Win32,60.02040694,,,,,,,,3,Fast,long,k,0,0.0903,2,1,9,0,1,,,,,
,1,,,,,,,,,k,purple,5f501399c8c9cc17d6118e60,2021-09-27_17h11.57.730,forced_choiceRT_color,2021.2.3,Win32,60.02040694,,,,,,,,3,Fast,long,k,1,1.6145,2,2,10,3,1,,,,,
,0.61,,,,,,,,,k,purple,5f501399c8c9cc17d6118e60,2021-09-27_17h11.57.730,forced_choiceRT_color,2021.2.3,Win32,60.02040694,,,,,,,,3,Fast,long,f,0,1.2526,2,3,11,3,1,,,,,
,0.61,,,,,,,,,j,red,5f501399c8c9cc17d6118e60,2021-09-27_17h11.57.730,forced_choiceRT_color,2021.2.3,Win32,60.02040694,,,,,,,,3,Fast,long,d,0,1.1467,3,0,12,2,1,,,,,
,1.61,,,,,,,,,d,orange,5f501399c8c9cc17d6118e60,2021-09-27_17h11.57.730,forced_choiceRT_color,2021.2.3,Win32,60.02040694,,,,,,,,3,Fast,long,f,0,0.4366,3,1,13,0,1,,,,,
,1.08,,,,,,,,,j,red,5f501399c8c9cc17d6118e60,2021-09-27_17h11.57.730,forced_choiceRT_color,2021.2.3,Win32,60.02040694,,,,,,,,3,Fast,long,f,0,1.5521,3,2,14,2,1,,,,,
,1.4,,,,,,,,,f,blue,5f501399c8c9cc17d6118e60,2021-09-27_17h11.57.730,forced_choiceRT_color,2021.2.3,Win32,60.02040694,,,,,,,,3,Slow,long,k,0,2.1127,3,3,15,1,1,,,,,
,0.95,,,,,,,,,k,purple,5f501399c8c9cc17d6118e60,2021-09-27_17h11.57.730,forced_choiceRT_color,2021.2.3,Win32,60.02040694,,,,,,,,3,Slow,long,f,0,7.638,4,0,16,3,1,,,,,
,1.17,,,,,,,,,d,orange,5f501399c8c9cc17d6118e60,2021-09-27_17h11.57.730,forced_choiceRT_color,2021.2.3,Win32,60.02040694,,,,,,,,3,Fast,long,d,1,1.8909,4,1,17,0,1,,,,,
,0.91,,,,,,,,,f,blue,5f501399c8c9cc17d6118e60,2021-09-27_17h11.57.730,forced_choiceRT_color,2021.2.3,Win32,60.02040694,,,,,,,,3,Fast,long,f,1,1.5186,4,2,18,1,1,,,,,
,0.74,,,,,,,,,k,purple,5f501399c8c9cc17d6118e60,2021-09-27_17h11.57.730,forced_choiceRT_color,2021.2.3,Win32,60.02040694,,,,,,,,3,Fast,long,k,1,1.4293,4,3,19,3,1,,,,,
,0.48,,,,,,,,,j,red,5f501399c8c9cc17d6118e60,2021-09-27_17h11.57.730,forced_choiceRT_color,2021.2.3,Win32,60.02040694,,,,,,,,3,Ontime,long,k,0,1.9188,5,0,20,2,1,,,,,
,1.75,,,,,,,,,d,orange,5f501399c8c9cc17d6118e60,2021-09-27_17h11.57.730,forced_choiceRT_color,2021.2.3,Win32,60.02040694,,,,,,,,3,Slow,long,d,1,2.3692,5,1,21,0,1,,,,,
,1.72,,,,,,,,,d,orange,5f501399c8c9cc17d6118e60,2021-09-27_17h11.57.730,forced_choiceRT_color,2021.2.3,Win32,60.02040694,,,,,,,,3,Slow,long,d,1,2.9042,5,2,22,0,1,,,,,
,1.68,,,,,,,,,d,orange,5f501399c8c9cc17d6118e60,2021-09-27_17h11.57.730,forced_choiceRT_color,2021.2.3,Win32,60.02040694,,,,,,,,3,Fast,long,f,0,1.5683,5,3,23,0,1,,,,,
,1.8,,,,,,,,,j,red,5f501399c8c9cc17d6118e60,2021-09-27_17h11.57.730,forced_choiceRT_color,2021.2.3,Win32,60.02040694,,,,,,,,3,Fast,long,d,0,1.8705,6,0,24,2,1,,,,,
,1.33,,,,,,,,,k,purple,5f501399c8c9cc17d6118e60,2021-09-27_17h11.57.730,forced_choiceRT_color,2021.2.3,Win32,60.02040694,,,,,,,,3,Fast,long,f,0,1.4713,6,1,25,3,1,,,,,
,0.7,,,,,,,,,f,blue,5f501399c8c9cc17d6118e60,2021-09-27_17h11.57.730,forced_choiceRT_color,2021.2.3,Win32,60.02040694,,,,,,,,3,Fast,long,k,0,1.3881,6,2,26,1,1,,,,,
,0.2,,,,,,,,,k,purple,5f501399c8c9cc17d6118e60,2021-09-27_17h11.57.730,forced_choiceRT_color,2021.2.3,Win32,60.02040694,,,,,,,,3,Fast,long,k,1,0.434,6,3,27,3,1,,,,,
,0.95,,,,,,,,,k,purple,5f501399c8c9cc17d6118e60,2021-09-27_17h11.57.730,forced_choiceRT_color,2021.2.3,Win32,60.02040694,,,,,,,,3,Slow,long,d,0,9.5921,7,0,28,3,1,,,,,
,1.01,,,,,,,,,d,orange,5f501399c8c9cc17d6118e60,2021-09-27_17h11.57.730,forced_choiceRT_color,2021.2.3,Win32,60.02040694,,,,,,,,3,Fast,long,f,0,0.469,7,1,29,0,1,,,,,
,0.05,,,,,,,,,j,red,5f501399c8c9cc17d6118e60,2021-09-27_17h11.57.730,forced_choiceRT_color,2021.2.3,Win32,60.02040694,,,,,,,,3,Fast,long,k,0,0.4682,7,2,30,2,1,,,,,
,0.15,,,,,,,,,k,purple,5f501399c8c9cc17d6118e60,2021-09-27_17h11.57.730,forced_choiceRT_color,2021.2.3,Win32,60.02040694,,,,,,,,3,Fast,long,d,0,0.5065,7,3,31,3,1,,,,,
,1.64,,,,,,,,,k,purple,5f501399c8c9cc17d6118e60,2021-09-27_17h11.57.730,forced_choiceRT_color,2021.2.3,Win32,60.02040694,,,,,,,,3,Fast,long,k,1,0.9926,8,0,32,3,1,,,,,
,0.85,,,,,,,,,f,blue,5f501399c8c9cc17d6118e60,2021-09-27_17h11.57.730,forced_choiceRT_color,2021.2.3,Win32,60.02040694,,,,,,,,3,Fast,long,k,0,1.5077,8,1,33,1,1,,,,,
,1.49,,,,,,,,,j,red,5f501399c8c9cc17d6118e60,2021-09-27_17h11.57.730,forced_choiceRT_color,2021.2.3,Win32,60.02040694,,,,,,,,3,Fast,long,f,0,0.6539,8,2,34,2,1,,,,,
,1.29,,,,,,,,,f,blue,5f501399c8c9cc17d6118e60,2021-09-27_17h11.57.730,forced_choiceRT_color,2021.2.3,Win32,60.02040694,,,,,,,,3,Fast,long,k,0,0.2179,8,3,35,1,1,,,,,
,1.86,,,,,,,,,j,red,5f501399c8c9cc17d6118e60,2021-09-27_17h11.57.730,forced_choiceRT_color,2021.2.3,Win32,60.02040694,,,,,,,,3,Fast,long,j,1,0.1198,9,0,36,2,1,,,,,
,1.81,,,,,,,,,d,orange,5f501399c8c9cc17d6118e60,2021-09-27_17h11.57.730,forced_choiceRT_color,2021.2.3,Win32,60.02040694,,,,,,,,3,Fast,long,k,0,0.494,9,1,37,0,1,,,,,
,1.2,,,,,,,,,j,red,5f501399c8c9cc17d6118e60,2021-09-27_17h11.57.730,forced_choiceRT_color,2021.2.3,Win32,60.02040694,,,,,,,,3,Fast,long,k,0,0.2519,9,2,38,2,1,,,,,
,0.89,,,,,,,,,f,blue,5f501399c8c9cc17d6118e60,2021-09-27_17h11.57.730,forced_choiceRT_color,2021.2.3,Win32,60.02040694,,,,,,,,3,Fast,long,k,0,0.5183,9,3,39,1,1,,,,,
,,,,,,,,,,,,5f501399c8c9cc17d6118e60,2021-09-27_17h11.57.730,forced_choiceRT_color,2021.2.3,Win32,60.02040694,,,,,,,,,,,,,,,,,,,2,0,2,0,1
,0.37,,,,,,,,,j,red,5f501399c8c9cc17d6118e60,2021-09-27_17h11.57.730,forced_choiceRT_color,2021.2.3,Win32,60.02040694,,,,,,,,4,Fast,long,j,1,1.583,0,0,0,2,1,,,,,
,1.4,,,,,,,,,d,orange,5f501399c8c9cc17d6118e60,2021-09-27_17h11.57.730,forced_choiceRT_color,2021.2.3,Win32,60.02040694,,,,,,,,4,Fast,long,f,0,1.4243,0,1,1,0,1,,,,,
,0.8,,,,,,,,,k,purple,5f501399c8c9cc17d6118e60,2021-09-27_17h11.57.730,forced_choiceRT_color,2021.2.3,Win32,60.02040694,,,,,,,,4,Fast,long,d,0,1.073,0,2,2,3,1,,,,,
,0.7,,,,,,,,,j,red,5f501399c8c9cc17d6118e60,2021-09-27_17h11.57.730,forced_choiceRT_color,2021.2.3,Win32,60.02040694,,,,,,,,4,Fast,long,k,0,0.8961,0,3,3,2,1,,,,,
,0.69,,,,,,,,,j,red,5f501399c8c9cc17d6118e60,2021-09-27_17h11.57.730,forced_choiceRT_color,2021.2.3,Win32,60.02040694,,,,,,,,4,Fast,long,f,0,1.0711,1,0,4,2,1,,,,,
,0.35,,,,,,,,,k,purple,5f501399c8c9cc17d6118e60,2021-09-27_17h11.57.730,forced_choiceRT_color,2021.2.3,Win32,60.02040694,,,,,,,,4,Fast,long,j,0,0.5512,1,1,5,3,1,,,,,
,0.5,,,,,,,,,f,blue,5f501399c8c9cc17d6118e60,2021-09-27_17h11.57.730,forced_choiceRT_color,2021.2.3,Win32,60.02040694,,,,,,,,4,Fast,long,k,0,0.9575,1,2,6,1,1,,,,,
,1.05,,,,,,,,,d,orange,5f501399c8c9cc17d6118e60,2021-09-27_17h11.57.730,forced_choiceRT_color,2021.2.3,Win32,60.02040694,,,,,,,,4,Fast,long,f,0,0.7715,1,3,7,0,1,,,,,
,0.09,,,,,,,,,j,red,5f501399c8c9cc17d6118e60,2021-09-27_17h11.57.730,forced_choiceRT_color,2021.2.3,Win32,60.02040694,,,,,,,,4,Fast,long,j,1,0.6059,2,0,8,2,1,,,,,
,1.66,,,,,,,,,d,orange,5f501399c8c9cc17d6118e60,2021-09-27_17h11.57.730,forced_choiceRT_color,2021.2.3,Win32,60.02040694,,,,,,,,4,Ontime,long,f,0,2.002,2,1,9,0,1,,,,,
,0.54,,,,,,,,,f,blue,5f501399c8c9cc17d6118e60,2021-09-27_17h11.57.730,forced_choiceRT_color,2021.2.3,Win32,60.02040694,,,,,,,,4,Fast,long,f,1,1.219,2,2,10,1,1,,,,,
,0.19,,,,,,,,,k,purple,5f501399c8c9cc17d6118e60,2021-09-27_17h11.57.730,forced_choiceRT_color,2021.2.3,Win32,60.02040694,,,,,,,,4,Fast,long,f,0,0.8355,2,3,11,3,1,,,,,
,1.83,,,,,,,,,f,blue,5f501399c8c9cc17d6118e60,2021-09-27_17h11.57.730,forced_choiceRT_color,2021.2.3,Win32,60.02040694,,,,,,,,4,Slow,long,k,0,3.4546,3,0,12,1,1,,,,,
,0,,,,,,,,,f,blue,5f501399c8c9cc17d6118e60,2021-09-27_17h11.57.730,forced_choiceRT_color,2021.2.3,Win32,60.02040694,,,,,,,,4,Fast,long,f,1,0.6103,3,1,13,1,1,,,,,
,1.89,,,,,,,,,d,orange,5f501399c8c9cc17d6118e60,2021-09-27_17h11.57.730,forced_choiceRT_color,2021.2.3,Win32,60.02040694,,,,,,,,4,Slow,long,f,0,2.9249,3,2,14,0,1,,,,,
,1.83,,,,,,,,,j,red,5f501399c8c9cc17d6118e60,2021-09-27_17h11.57.730,forced_choiceRT_color,2021.2.3,Win32,60.02040694,,,,,,,,4,Slow,long,d,0,6.6982,3,3,15,2,1,,,,,
,1.38,,,,,,,,,k,purple,5f501399c8c9cc17d6118e60,2021-09-27_17h11.57.730,forced_choiceRT_color,2021.2.3,Win32,60.02040694,,,,,,,,4,Fast,long,f,0,0.8606,4,0,16,3,1,,,,,
,1.35,,,,,,,,,d,orange,5f501399c8c9cc17d6118e60,2021-09-27_17h11.57.730,forced_choiceRT_color,2021.2.3,Win32,60.02040694,,,,,,,,4,Fast,long,f,0,0.5532,4,1,17,0,1,,,,,
,1.94,,,,,,,,,k,purple,5f501399c8c9cc17d6118e60,2021-09-27_17h11.57.730,forced_choiceRT_color,2021.2.3,Win32,60.02040694,,,,,,,,4,Fast,long,f,0,0.7499,4,2,18,3,1,,,,,
,1.55,,,,,,,,,j,red,5f501399c8c9cc17d6118e60,2021-09-27_17h11.57.730,forced_choiceRT_color,2021.2.3,Win32,60.02040694,,,,,,,,4,Fast,long,k,0,0.2594,4,3,19,2,1,,,,,
,0.57,,,,,,,,,d,orange,5f501399c8c9cc17d6118e60,2021-09-27_17h11.57.730,forced_choiceRT_color,2021.2.3,Win32,60.02040694,,,,,,,,4,Fast,long,k,0,0.3232,5,0,20,0,1,,,,,
,0.23,,,,,,,,,d,orange,5f501399c8c9cc17d6118e60,2021-09-27_17h11.57.730,forced_choiceRT_color,2021.2.3,Win32,60.02040694,,,,,,,,4,Fast,long,j,0,0.0564,5,1,21,0,1,,,,,
,0.88,,,,,,,,,j,red,5f501399c8c9cc17d6118e60,2021-09-27_17h11.57.730,forced_choiceRT_color,2021.2.3,Win32,60.02040694,,,,,,,,4,Fast,long,j,1,0.4348,5,2,22,2,1,,,,,
,1.19,,,,,,,,,f,blue,5f501399c8c9cc17d6118e60,2021-09-27_17h11.57.730,forced_choiceRT_color,2021.2.3,Win32,60.02040694,,,,,,,,4,Fast,long,f,1,0.4251,5,3,23,1,1,,,,,
,0.55,,,,,,,,,d,orange,5f501399c8c9cc17d6118e60,2021-09-27_17h11.57.730,forced_choiceRT_color,2021.2.3,Win32,60.02040694,,,,,,,,4,Fast,long,f,0,1.0682,6,0,24,0,1,,,,,
,0.51,,,,,,,,,d,orange,5f501399c8c9cc17d6118e60,2021-09-27_17h11.57.730,forced_choiceRT_color,2021.2.3,Win32,60.02040694,,,,,,,,4,Fast,long,f,0,1.0572,6,1,25,0,1,,,,,
,0.5,,,,,,,,,f,blue,5f501399c8c9cc17d6118e60,2021-09-27_17h11.57.730,forced_choiceRT_color,2021.2.3,Win32,60.02040694,,,,,,,,4,Fast,long,f,1,0.5756,6,2,26,1,1,,,,,
,0.19,,,,,,,,,j,red,5f501399c8c9cc17d6118e60,2021-09-27_17h11.57.730,forced_choiceRT_color,2021.2.3,Win32,60.02040694,,,,,,,,4,Fast,long,f,0,0.3387,6,3,27,2,1,,,,,
,1.02,,,,,,,,,k,purple,5f501399c8c9cc17d6118e60,2021-09-27_17h11.57.730,forced_choiceRT_color,2021.2.3,Win32,60.02040694,,,,,,,,4,Fast,long,k,1,0.8022,7,0,28,3,1,,,,,
,0.84,,,,,,,,,j,red,5f501399c8c9cc17d6118e60,2021-09-27_17h11.57.730,forced_choiceRT_color,2021.2.3,Win32,60.02040694,,,,,,,,4,Fast,long,k,0,0.7755,7,1,29,2,1,,,,,
,0.5,,,,,,,,,k,purple,5f501399c8c9cc17d6118e60,2021-09-27_17h11.57.730,forced_choiceRT_color,2021.2.3,Win32,60.02040694,,,,,,,,4,Fast,long,f,0,0.5795,7,2,30,3,1,,,,,
,1.66,,,,,,,,,f,blue,5f501399c8c9cc17d6118e60,2021-09-27_17h11.57.730,forced_choiceRT_color,2021.2.3,Win32,60.02040694,,,,,,,,4,Slow,long,d,0,2.9565,7,3,31,1,1,,,,,
,0.26,,,,,,,,,k,purple,5f501399c8c9cc17d6118e60,2021-09-27_17h11.57.730,forced_choiceRT_color,2021.2.3,Win32,60.02040694,,,,,,,,4,Slow,long,f,0,2.5119,8,0,32,3,1,,,,,
,1.45,,,,,,,,,j,red,5f501399c8c9cc17d6118e60,2021-09-27_17h11.57.730,forced_choiceRT_color,2021.2.3,Win32,60.02040694,,,,,,,,4,Slow,long,f,0,18.3337,8,1,33,2,1,,,,,
,0.99,,,,,,,,,f,blue,5f501399c8c9cc17d6118e60,2021-09-27_17h11.57.730,forced_choiceRT_color,2021.2.3,Win32,60.02040694,,,,,,,,4,Slow,long,f,1,2.9785,8,2,34,1,1,,,,,
,0.23,,,,,,,,,d,orange,5f501399c8c9cc17d6118e60,2021-09-27_17h11.57.730,forced_choiceRT_color,2021.2.3,Win32,60.02040694,,,,,,,,4,Fast,long,f,0,0.1083,8,3,35,0,1,,,,,
,0.11,,,,,,,,,k,purple,5f501399c8c9cc17d6118e60,2021-09-27_17h11.57.730,forced_choiceRT_color,2021.2.3,Win32,60.02040694,,,,,,,,4,Fast,long,f,0,1.1343,9,0,36,3,1,,,,,
,1.79,,,,,,,,,k,purple,5f501399c8c9cc17d6118e60,2021-09-27_17h11.57.730,forced_choiceRT_color,2021.2.3,Win32,60.02040694,,,,,,,,4,Ontime,long,d,0,1.9852,9,1,37,3,1,,,,,
,0.79,,,,,,,,,f,blue,5f501399c8c9cc17d6118e60,2021-09-27_17h11.57.730,forced_choiceRT_color,2021.2.3,Win32,60.02040694,,,,,,,,4,Fast,long,k,0,0.4293,9,2,38,1,1,,,,,
,1.22,,,,,,,,,f,blue,5f501399c8c9cc17d6118e60,2021-09-27_17h11.57.730,forced_choiceRT_color,2021.2.3,Win32,60.02040694,,,,,,,,4,Fast,long,f,1,1.013,9,3,39,1,1,,,,,
,,,,,,,,,,,,5f501399c8c9cc17d6118e60,2021-09-27_17h11.57.730,forced_choiceRT_color,2021.2.3,Win32,60.02040694,,,,,,,,,,,,,,,,,,,3,0,3,0,1
,1.38,,,,,,,,,j,red,5f501399c8c9cc17d6118e60,2021-09-27_17h11.57.730,forced_choiceRT_color,2021.2.3,Win32,60.02040694,,,,,,,,5,Slow,long,k,0,4.0184,0,0,0,2,1,,,,,
,1.47,,,,,,,,,f,blue,5f501399c8c9cc17d6118e60,2021-09-27_17h11.57.730,forced_choiceRT_color,2021.2.3,Win32,60.02040694,,,,,,,,5,Fast,long,k,0,1.3847,0,1,1,1,1,,,,,
,0.83,,,,,,,,,d,orange,5f501399c8c9cc17d6118e60,2021-09-27_17h11.57.730,forced_choiceRT_color,2021.2.3,Win32,60.02040694,,,,,,,,5,Fast,long,j,0,0.5839,0,2,2,0,1,,,,,
,0.53,,,,,,,,,f,blue,5f501399c8c9cc17d6118e60,2021-09-27_17h11.57.730,forced_choiceRT_color,2021.2.3,Win32,60.02040694,,,,,,,,5,Fast,long,j,0,0.7508,0,3,3,1,1,,,,,
,1.94,,,,,,,,,j,red,5f501399c8c9cc17d6118e60,2021-09-27_17h11.57.730,forced_choiceRT_color,2021.2.3,Win32,60.02040694,,,,,,,,5,Fast,long,j,1,1.0039,1,0,4,2,1,,,,,
,0.15,,,,,,,,,f,blue,5f501399c8c9cc17d6118e60,2021-09-27_17h11.57.730,forced_choiceRT_color,2021.2.3,Win32,60.02040694,,,,,,,,5,Fast,long,j,0,1.1791,1,1,5,1,1,,,,,
,1.14,,,,,,,,,d,orange,5f501399c8c9cc17d6118e60,2021-09-27_17h11.57.730,forced_choiceRT_color,2021.2.3,Win32,60.02040694,,,,,,,,5,Slow,long,j,0,39.4072,1,2,6,0,1,,,,,
,0.22,,,,,,,,,f,blue,5f501399c8c9cc17d6118e60,2021-09-27_17h11.57.730,forced_choiceRT_color,2021.2.3,Win32,60.02040694,,,,,,,,5,Fast,long,k,0,0.2595,1,3,7,1,1,,,,,
,1.7,,,,,,,,,k,purple,5f501399c8c9cc17d6118e60,2021-09-27_17h11.57.730,forced_choiceRT_color,2021.2.3,Win32,60.02040694,,,,,,,,5,Fast,long,k,1,0.5218,2,0,8,3,1,,,,,
,1.14,,,,,,,,,d,orange,5f501399c8c9cc17d6118e60,2021-09-27_17h11.57.730,forced_choiceRT_color,2021.2.3,Win32,60.02040694,,,,,,,,5,Fast,long,k,0,0.4222,2,1,9,0,1,,,,,
,1.74,,,,,,,,,k,purple,5f501399c8c9cc17d6118e60,2021-09-27_17h11.57.730,forced_choiceRT_color,2021.2.3,Win32,60.02040694,,,,,,,,5,Fast,long,j,0,0.874,2,2,10,3,1,,,,,
,0.3,,,,,,,,,f,blue,5f501399c8c9cc17d6118e60,2021-09-27_17h11.57.730,forced_choiceRT_color,2021.2.3,Win32,60.02040694,,,,,,,,5,Fast,long,k,0,0.5424,2,3,11,1,1,,,,,
,0.61,,,,,,,,,k,purple,5f501399c8c9cc17d6118e60,2021-09-27_17h11.57.730,forced_choiceRT_color,2021.2.3,Win32,60.02040694,,,,,,,,5,Fast,long,j,0,1.3187,3,0,12,3,1,,,,,
,0.19,,,,,,,,,f,blue,5f501399c8c9cc17d6118e60,2021-09-27_17h11.57.730,forced_choiceRT_color,2021.2.3,Win32,60.02040694,,,,,,,,5,Fast,long,j,0,0.8351,3,1,13,1,1,,,,,
,1.76,,,,,,,,,f,blue,5f501399c8c9cc17d6118e60,2021-09-27_17h11.57.730,forced_choiceRT_color,2021.2.3,Win32,60.02040694,,,,,,,,5,Fast,long,k,0,1.376,3,2,14,1,1,,,,,
,1.54,,,,,,,,,d,orange,5f501399c8c9cc17d6118e60,2021-09-27_17h11.57.730,forced_choiceRT_color,2021.2.3,Win32,60.02040694,,,,,,,,5,Fast,long,k,0,1.1175,3,3,15,0,1,,,,,
,0.7,,,,,,,,,j,red,5f501399c8c9cc17d6118e60,2021-09-27_17h11.57.730,forced_choiceRT_color,2021.2.3,Win32,60.02040694,,,,,,,,5,Slow,long,k,0,5.7714,4,0,16,2,1,,,,,
,0.23,,,,,,,,,f,blue,5f501399c8c9cc17d6118e60,2021-09-27_17h11.57.730,forced_choiceRT_color,2021.2.3,Win32,60.02040694,,,,,,,,5,Slow,long,k,0,10.9915,4,1,17,1,1,,,,,
,0.71,,,,,,,,,k,purple,5f501399c8c9cc17d6118e60,2021-09-27_17h11.57.730,forced_choiceRT_color,2021.2.3,Win32,60.02040694,,,,,,,,5,Slow,long,k,1,8.2374,4,2,18,3,1,,,,,
,0.5,,,,,,,,,d,orange,5f501399c8c9cc17d6118e60,2021-09-27_17h11.57.730,forced_choiceRT_color,2021.2.3,Win32,60.02040694,,,,,,,,5,Fast,long,j,0,0.8659,4,3,19,0,1,,,,,
,0.67,,,,,,,,,j,red,5f501399c8c9cc17d6118e60,2021-09-27_17h11.57.730,forced_choiceRT_color,2021.2.3,Win32,60.02040694,,,,,,,,5,Fast,long,k,0,0.5932,5,0,20,2,1,,,,,
,1.38,,,,,,,,,d,orange,5f501399c8c9cc17d6118e60,2021-09-27_17h11.57.730,forced_choiceRT_color,2021.2.3,Win32,60.02040694,,,,,,,,5,Fast,long,j,0,1.0121,5,1,21,0,1,,,,,
,1.85,,,,,,,,,j,red,5f501399c8c9cc17d6118e60,2021-09-27_17h11.57.730,forced_choiceRT_color,2021.2.3,Win32,60.02040694,,,,,,,,5,Fast,long,j,1,0.6432,5,2,22,2,1,,,,,
,1.29,,,,,,,,,k,purple,5f501399c8c9cc17d6118e60,2021-09-27_17h11.57.730,forced_choiceRT_color,2021.2.3,Win32,60.02040694,,,,,,,,5,Fast,long,j,0,0.9348,5,3,23,3,1,,,,,
,0.33,,,,,,,,,k,purple,5f501399c8c9cc17d6118e60,2021-09-27_17h11.57.730,forced_choiceRT_color,2021.2.3,Win32,60.02040694,,,,,,,,5,Slow,long,k,1,2.6569,6,0,24,3,1,,,,,
,0.38,,,,,,,,,f,blue,5f501399c8c9cc17d6118e60,2021-09-27_17h11.57.730,forced_choiceRT_color,2021.2.3,Win32,60.02040694,,,,,,,,5,Fast,long,k,0,0.7574,6,1,25,1,1,,,,,
,0.95,,,,,,,,,d,orange,5f501399c8c9cc17d6118e60,2021-09-27_17h11.57.730,forced_choiceRT_color,2021.2.3,Win32,60.02040694,,,,,,,,5,Slow,long,j,0,3.3871,6,2,26,0,1,,,,,
,0.71,,,,,,,,,d,orange,5f501399c8c9cc17d6118e60,2021-09-27_17h11.57.730,forced_choiceRT_color,2021.2.3,Win32,60.02040694,,,,,,,,5,Fast,long,k,0,1.2377,6,3,27,0,1,,,,,
,0.54,,,,,,,,,k,purple,5f501399c8c9cc17d6118e60,2021-09-27_17h11.57.730,forced_choiceRT_color,2021.2.3,Win32,60.02040694,,,,,,,,5,Fast,long,j,0,0.8844,7,0,28,3,1,,,,,
,1.66,,,,,,,,,k,purple,5f501399c8c9cc17d6118e60,2021-09-27_17h11.57.730,forced_choiceRT_color,2021.2.3,Win32,60.02040694,,,,,,,,5,Fast,long,k,1,0.738,7,1,29,3,1,,,,,
,0.04,,,,,,,,,j,red,5f501399c8c9cc17d6118e60,2021-09-27_17h11.57.730,forced_choiceRT_color,2021.2.3,Win32,60.02040694,,,,,,,,5,Fast,long,k,0,0.7189,7,2,30,2,1,,,,,
,0.17,,,,,,,,,j,red,5f501399c8c9cc17d6118e60,2021-09-27_17h11.57.730,forced_choiceRT_color,2021.2.3,Win32,60.02040694,,,,,,,,5,Fast,long,j,1,0.5556,7,3,31,2,1,,,,,
,0.35,,,,,,,,,k,purple,5f501399c8c9cc17d6118e60,2021-09-27_17h11.57.730,forced_choiceRT_color,2021.2.3,Win32,60.02040694,,,,,,,,5,Fast,long,k,1,0.3845,8,0,32,3,1,,,,,
,0.1,,,,,,,,,j,red,5f501399c8c9cc17d6118e60,2021-09-27_17h11.57.730,forced_choiceRT_color,2021.2.3,Win32,60.02040694,,,,,,,,5,Fast,long,j,1,0.3925,8,1,33,2,1,,,,,
,0.15,,,,,,,,,j,red,5f501399c8c9cc17d6118e60,2021-09-27_17h11.57.730,forced_choiceRT_color,2021.2.3,Win32,60.02040694,,,,,,,,5,Fast,long,k,0,0.4748,8,2,34,2,1,,,,,
,1.19,,,,,,,,,j,red,5f501399c8c9cc17d6118e60,2021-09-27_17h11.57.730,forced_choiceRT_color,2021.2.3,Win32,60.02040694,,,,,,,,5,Fast,long,j,1,0.4002,8,3,35,2,1,,,,,
,0.59,,,,,,,,,d,orange,5f501399c8c9cc17d6118e60,2021-09-27_17h11.57.730,forced_choiceRT_color,2021.2.3,Win32,60.02040694,,,,,,,,5,Fast,long,j,0,0.0005,9,0,36,0,1,,,,,
,1.84,,,,,,,,,d,orange,5f501399c8c9cc17d6118e60,2021-09-27_17h11.57.730,forced_choiceRT_color,2021.2.3,Win32,60.02040694,,,,,,,,5,Fast,long,j,0,0.5712,9,1,37,0,1,,,,,
,1.42,,,,,,,,,k,purple,5f501399c8c9cc17d6118e60,2021-09-27_17h11.57.730,forced_choiceRT_color,2021.2.3,Win32,60.02040694,,,,,,,,5,Fast,long,k,1,0.4675,9,2,38,3,1,,,,,
,1.74,,,,,,,,,f,blue,5f501399c8c9cc17d6118e60,2021-09-27_17h11.57.730,forced_choiceRT_color,2021.2.3,Win32,60.02040694,,,,,,,,5,Fast,long,j,0,0.3776,9,3,39,1,1,,,,,
,,,,,,,,,,,,5f501399c8c9cc17d6118e60,2021-09-27_17h11.57.730,forced_choiceRT_color,2021.2.3,Win32,60.02040694,,,,,,,,,,,,,,,,,,,4,0,4,0,1
,0.95,,,,,,,,,d,orange,5f501399c8c9cc17d6118e60,2021-09-27_17h11.57.730,forced_choiceRT_color,2021.2.3,Win32,60.02040694,,,,,,,,6,Slow,long,k,0,4.4954,0,0,0,0,1,,,,,
,0,,,,,,,,,j,red,5f501399c8c9cc17d6118e60,2021-09-27_17h11.57.730,forced_choiceRT_color,2021.2.3,Win32,60.02040694,,,,,,,,6,Fast,long,k,0,0.449,0,1,1,2,1,,,,,
,0.48,,,,,,,,,k,purple,5f501399c8c9cc17d6118e60,2021-09-27_17h11.57.730,forced_choiceRT_color,2021.2.3,Win32,60.02040694,,,,,,,,6,Fast,long,f,0,0.4582,0,2,2,3,1,,,,,
,0.24,,,,,,,,,d,orange,5f501399c8c9cc17d6118e60,2021-09-27_17h11.57.730,forced_choiceRT_color,2021.2.3,Win32,60.02040694,,,,,,,,6,Fast,long,k,0,0.4144,0,3,3,0,1,,,,,
,1.49,,,,,,,,,j,red,5f501399c8c9cc17d6118e60,2021-09-27_17h11.57.730,forced_choiceRT_color,2021.2.3,Win32,60.02040694,,,,,,,,6,Fast,long,k,0,1.3868,1,0,4,2,1,,,,,
,0.09,,,,,,,,,k,purple,5f501399c8c9cc17d6118e60,2021-09-27_17h11.57.730,forced_choiceRT_color,2021.2.3,Win32,60.02040694,,,,,,,,6,Fast,long,f,0,0.4456,1,1,5,3,1,,,,,
,1.88,,,,,,,,,f,blue,5f501399c8c9cc17d6118e60,2021-09-27_17h11.57.730,forced_choiceRT_color,2021.2.3,Win32,60.02040694,,,,,,,,6,Fast,long,f,1,0.3718,1,2,6,1,1,,,,,
,0.47,,,,,,,,,f,blue,5f501399c8c9cc17d6118e60,2021-09-27_17h11.57.730,forced_choiceRT_color,2021.2.3,Win32,60.02040694,,,,,,,,6,Fast,long,f,1,1.3496,1,3,7,1,1,,,,,
,1.39,,,,,,,,,d,orange,5f501399c8c9cc17d6118e60,2021-09-27_17h11.57.730,forced_choiceRT_color,2021.2.3,Win32,60.02040694,,,,,,,,6,Fast,long,k,0,1.4405,2,0,8,0,1,,,,,
,0.8,,,,,,,,,j,red,5f501399c8c9cc17d6118e60,2021-09-27_17h11.57.730,forced_choiceRT_color,2021.2.3,Win32,60.02040694,,,,,,,,6,Ontime,long,f,0,1.9621,2,1,9,2,1,,,,,
,0.97,,,,,,,,,d,orange,5f501399c8c9cc17d6118e60,2021-09-27_17h11.57.730,forced_choiceRT_color,2021.2.3,Win32,60.02040694,,,,,,,,6,Slow,long,f,0,4.4077,2,2,10,0,1,,,,,
,1.26,,,,,,,,,j,red,5f501399c8c9cc17d6118e60,2021-09-27_17h11.57.730,forced_choiceRT_color,2021.2.3,Win32,60.02040694,,,,,,,,6,Slow,long,f,0,3.64,2,3,11,2,1,,,,,
,0.4,,,,,,,,,k,purple,5f501399c8c9cc17d6118e60,2021-09-27_17h11.57.730,forced_choiceRT_color,2021.2.3,Win32,60.02040694,,,,,,,,6,Fast,long,f,0,1.8414,3,0,12,3,1,,,,,
,0.76,,,,,,,,,f,blue,5f501399c8c9cc17d6118e60,2021-09-27_17h11.57.730,forced_choiceRT_color,2021.2.3,Win32,60.02040694,,,,,,,,6,Slow,long,k,0,149.6807,3,1,13,1,1,,,,,
,0.36,,,,,,,,,f,blue,5f501399c8c9cc17d6118e60,2021-09-27_17h11.57.730,forced_choiceRT_color,2021.2.3,Win32,60.02040694,,,,,,,,6,Fast,long,f,1,0.4234,3,2,14,1,1,,,,,
,1.13,,,,,,,,,f,blue,5f501399c8c9cc17d6118e60,2021-09-27_17h11.57.730,forced_choiceRT_color,2021.2.3,Win32,60.02040694,,,,,,,,6,Fast,long,k,0,0.3543,3,3,15,1,1,,,,,
,1.52,,,,,,,,,d,orange,5f501399c8c9cc17d6118e60,2021-09-27_17h11.57.730,forced_choiceRT_color,2021.2.3,Win32,60.02040694,,,,,,,,6,Fast,long,k,0,0.3858,4,0,16,0,1,,,,,
,0.14,,,,,,,,,d,orange,5f501399c8c9cc17d6118e60,2021-09-27_17h11.57.730,forced_choiceRT_color,2021.2.3,Win32,60.02040694,,,,,,,,6,Fast,long,f,0,0.3331,4,1,17,0,1,,,,,
,0.81,,,,,,,,,k,purple,5f501399c8c9cc17d6118e60,2021-09-27_17h11.57.730,forced_choiceRT_color,2021.2.3,Win32,60.02040694,,,,,,,,6,Fast,long,f,0,0.4154,4,2,18,3,1,,,,,
,1.53,,,,,,,,,d,orange,5f501399c8c9cc17d6118e60,2021-09-27_17h11.57.730,forced_choiceRT_color,2021.2.3,Win32,60.02040694,,,,,,,,6,Fast,long,f,0,0.4445,4,3,19,0,1,,,,,
,0.54,,,,,,,,,j,red,5f501399c8c9cc17d6118e60,2021-09-27_17h11.57.730,forced_choiceRT_color,2021.2.3,Win32,60.02040694,,,,,,,,6,Fast,long,f,0,0.5677,5,0,20,2,1,,,,,
,0.84,,,,,,,,,j,red,5f501399c8c9cc17d6118e60,2021-09-27_17h11.57.730,forced_choiceRT_color,2021.2.3,Win32,60.02040694,,,,,,,,6,Slow,long,f,0,2.9971,5,1,21,2,1,,,,,
,1.42,,,,,,,,,f,blue,5f501399c8c9cc17d6118e60,2021-09-27_17h11.57.730,forced_choiceRT_color,2021.2.3,Win32,60.02040694,,,,,,,,6,Fast,long,k,0,1.1448,5,2,22,1,1,,,,,
,0.45,,,,,,,,,d,orange,5f501399c8c9cc17d6118e60,2021-09-27_17h11.57.730,forced_choiceRT_color,2021.2.3,Win32,60.02040694,,,,,,,,6,Fast,long,k,0,0.6682,5,3,23,0,1,,,,,
,0.26,,,,,,,,,k,purple,5f501399c8c9cc17d6118e60,2021-09-27_17h11.57.730,forced_choiceRT_color,2021.2.3,Win32,60.02040694,,,,,,,,6,Slow,long,k,1,2.487,6,0,24,3,1,,,,,
,1.58,,,,,,,,,f,blue,5f501399c8c9cc17d6118e60,2021-09-27_17h11.57.730,forced_choiceRT_color,2021.2.3,Win32,60.02040694,,,,,,,,6,Fast,long,k,0,1.6964,6,1,25,1,1,,,,,
,0.09,,,,,,,,,f,blue,5f501399c8c9cc17d6118e60,2021-09-27_17h11.57.730,forced_choiceRT_color,2021.2.3,Win32,60.02040694,,,,,,,,6,Slow,long,k,0,2.2108,6,2,26,1,1,,,,,
,0.47,,,,,,,,,k,purple,5f501399c8c9cc17d6118e60,2021-09-27_17h11.57.730,forced_choiceRT_color,2021.2.3,Win32,60.02040694,,,,,,,,6,Slow,long,k,1,9.1394,6,3,27,3,1,,,,,
,1.35,,,,,,,,,k,purple,5f501399c8c9cc17d6118e60,2021-09-27_17h11.57.730,forced_choiceRT_color,2021.2.3,Win32,60.02040694,,,,,,,,6,Slow,long,k,1,8.2149,7,0,28,3,1,,,,,
,0.58,,,,,,,,,j,red,5f501399c8c9cc17d6118e60,2021-09-27_17h11.57.730,forced_choiceRT_color,2021.2.3,Win32,60.02040694,,,,,,,,6,Slow,long,k,0,329.7881,7,1,29,2,1,,,,,
,0.26,,,,,,,,,k,purple,5f501399c8c9cc17d6118e60,2021-09-27_17h11.57.730,forced_choiceRT_color,2021.2.3,Win32,60.02040694,,,,,,,,6,Fast,long,f,0,0.4351,7,2,30,3,1,,,,,
,0.17,,,,,,,,,d,orange,5f501399c8c9cc17d6118e60,2021-09-27_17h11.57.730,forced_choiceRT_color,2021.2.3,Win32,60.02040694,,,,,,,,6,Slow,long,k,0,6.3377,7,3,31,0,1,,,,,
,1.37,,,,,,,,,j,red,5f501399c8c9cc17d6118e60,2021-09-27_17h11.57.730,forced_choiceRT_color,2021.2.3,Win32,60.02040694,,,,,,,,6,Slow,long,k,0,2.7907,8,0,32,2,1,,,,,
,0.07,,,,,,,,,k,purple,5f501399c8c9cc17d6118e60,2021-09-27_17h11.57.730,forced_choiceRT_color,2021.2.3,Win32,60.02040694,,,,,,,,6,Fast,long,f,0,0.1342,8,1,33,3,1,,,,,
,0.03,,,,,,,,,k,purple,5f501399c8c9cc17d6118e60,2021-09-27_17h11.57.730,forced_choiceRT_color,2021.2.3,Win32,60.02040694,,,,,,,,6,Fast,long,f,0,0.4251,8,2,34,3,1,,,,,
,1.68,,,,,,,,,j,red,5f501399c8c9cc17d6118e60,2021-09-27_17h11.57.730,forced_choiceRT_color,2021.2.3,Win32,60.02040694,,,,,,,,6,Fast,long,k,0,0.4389,8,3,35,2,1,,,,,
,1.13,,,,,,,,,j,red,5f501399c8c9cc17d6118e60,2021-09-27_17h11.57.730,forced_choiceRT_color,2021.2.3,Win32,60.02040694,,,,,,,,6,Fast,long,k,0,0.1232,9,0,36,2,1,,,,,
,0.34,,,,,,,,,d,orange,5f501399c8c9cc17d6118e60,2021-09-27_17h11.57.730,forced_choiceRT_color,2021.2.3,Win32,60.02040694,,,,,,,,6,Fast,long,k,0,1.3124,9,1,37,0,1,,,,,
,0.1,,,,,,,,,f,blue,5f501399c8c9cc17d6118e60,2021-09-27_17h11.57.730,forced_choiceRT_color,2021.2.3,Win32,60.02040694,,,,,,,,6,Fast,long,f,1,1.032,9,2,38,1,1,,,,,
,1.47,,,,,,,,,f,blue,5f501399c8c9cc17d6118e60,2021-09-27_17h11.57.730,forced_choiceRT_color,2021.2.3,Win32,60.02040694,,,,,,,,6,Ontime,long,k,0,1.9878,9,3,39,1,1,,,,,
,,,,,,,,,,,,5f501399c8c9cc17d6118e60,2021-09-27_17h11.57.730,forced_choiceRT_color,2021.2.3,Win32,60.02040694,,,,,,,,,,,,,,,,,,,5,0,5,0,1
,0.34,,,,,,,,,j,red,5f501399c8c9cc17d6118e60,2021-09-27_17h11.57.730,forced_choiceRT_color,2021.2.3,Win32,60.02040694,,,,,,,,7,Fast,long,f,0,0.8427,0,0,0,2,1,,,,,
,1.31,,,,,,,,,j,red,5f501399c8c9cc17d6118e60,2021-09-27_17h11.57.730,forced_choiceRT_color,2021.2.3,Win32,60.02040694,,,,,,,,7,Fast,long,k,0,0.8654,0,1,1,2,1,,,,,
,0.1,,,,,,,,,d,orange,5f501399c8c9cc17d6118e60,2021-09-27_17h11.57.730,forced_choiceRT_color,2021.2.3,Win32,60.02040694,,,,,,,,7,Fast,long,f,0,0.5258,0,2,2,0,1,,,,,
,1.05,,,,,,,,,k,purple,5f501399c8c9cc17d6118e60,2021-09-27_17h11.57.730,forced_choiceRT_color,2021.2.3,Win32,60.02040694,,,,,,,,7,Slow,long,f,0,16.3511,0,3,3,3,1,,,,,
,1.76,,,,,,,,,d,orange,5f501399c8c9cc17d6118e60,2021-09-27_17h11.57.730,forced_choiceRT_color,2021.2.3,Win32,60.02040694,,,,,,,,7,Fast,long,k,0,0.0253,1,0,4,0,1,,,,,
,1.46,,,,,,,,,j,red,5f501399c8c9cc17d6118e60,2021-09-27_17h11.57.730,forced_choiceRT_color,2021.2.3,Win32,60.02040694,,,,,,,,7,Fast,long,k,0,0.3512,1,1,5,2,1,,,,,
,0.21,,,,,,,,,f,blue,5f501399c8c9cc17d6118e60,2021-09-27_17h11.57.730,forced_choiceRT_color,2021.2.3,Win32,60.02040694,,,,,,,,7,Fast,long,k,0,0.662,1,2,6,1,1,,,,,
,0.5,,,,,,,,,k,purple,5f501399c8c9cc17d6118e60,2021-09-27_17h11.57.730,forced_choiceRT_color,2021.2.3,Win32,60.02040694,,,,,,,,7,Fast,long,k,1,0.7583,1,3,7,3,1,,,,,
,1.22,,,,,,,,,d,orange,5f501399c8c9cc17d6118e60,2021-09-27_17h11.57.730,forced_choiceRT_color,2021.2.3,Win32,60.02040694,,,,,,,,7,Fast,long,k,0,0.241,2,0,8,0,1,,,,,
,0.92,,,,,,,,,f,blue,5f501399c8c9cc17d6118e60,2021-09-27_17h11.57.730,forced_choiceRT_color,2021.2.3,Win32,60.02040694,,,,,,,,7,Fast,long,k,0,0.7371,2,1,9,1,1,,,,,
,0.42,,,,,,,,,d,orange,5f501399c8c9cc17d6118e60,2021-09-27_17h11.57.730,forced_choiceRT_color,2021.2.3,Win32,60.02040694,,,,,,,,7,Fast,long,k,0,0.3346,2,2,10,0,1,,,,,
,1.33,,,,,,,,,k,purple,5f501399c8c9cc17d6118e60,2021-09-27_17h11.57.730,forced_choiceRT_color,2021.2.3,Win32,60.02040694,,,,,,,,7,Fast,long,f,0,0.3347,2,3,11,3,1,,,,,
,1.68,,,,,,,,,k,purple,5f501399c8c9cc17d6118e60,2021-09-27_17h11.57.730,forced_choiceRT_color,2021.2.3,Win32,60.02040694,,,,,,,,7,Fast,long,k,1,0.2015,3,0,12,3,1,,,,,
,0.37,,,,,,,,,j,red,5f501399c8c9cc17d6118e60,2021-09-27_17h11.57.730,forced_choiceRT_color,2021.2.3,Win32,60.02040694,,,,,,,,7,Fast,long,f,0,1.4396,3,1,13,2,1,,,,,
,0.39,,,,,,,,,d,orange,5f501399c8c9cc17d6118e60,2021-09-27_17h11.57.730,forced_choiceRT_color,2021.2.3,Win32,60.02040694,,,,,,,,7,Fast,long,f,0,0.6874,3,2,14,0,1,,,,,
,1.79,,,,,,,,,f,blue,5f501399c8c9cc17d6118e60,2021-09-27_17h11.57.730,forced_choiceRT_color,2021.2.3,Win32,60.02040694,,,,,,,,7,Fast,long,k,0,1.0938,3,3,15,1,1,,,,,
,0.94,,,,,,,,,j,red,5f501399c8c9cc17d6118e60,2021-09-27_17h11.57.730,forced_choiceRT_color,2021.2.3,Win32,60.02040694,,,,,,,,7,Fast,long,f,0,1.4756,4,0,16,2,1,,,,,
,0.99,,,,,,,,,d,orange,5f501399c8c9cc17d6118e60,2021-09-27_17h11.57.730,forced_choiceRT_color,2021.2.3,Win32,60.02040694,,,,,,,,7,Fast,long,f,0,1.33,4,1,17,0,1,,,,,
,0.04,,,,,,,,,f,blue,5f501399c8c9cc17d6118e60,2021-09-27_17h11.57.730,forced_choiceRT_color,2021.2.3,Win32,60.02040694,,,,,,,,7,Fast,long,f,1,1.3266,4,2,18,1,1,,,,,
,1.5,,,,,,,,,d,orange,5f501399c8c9cc17d6118e60,2021-09-27_17h11.57.730,forced_choiceRT_color,2021.2.3,Win32,60.02040694,,,,,,,,7,Slow,long,k,0,2.3473,4,3,19,0,1,,,,,
,1.44,,,,,,,,,d,orange,5f501399c8c9cc17d6118e60,2021-09-27_17h11.57.730,forced_choiceRT_color,2021.2.3,Win32,60.02040694,,,,,,,,7,Fast,long,k,0,1.5852,5,0,20,0,1,,,,,
,0.18,,,,,,,,,j,red,5f501399c8c9cc17d6118e60,2021-09-27_17h11.57.730,forced_choiceRT_color,2021.2.3,Win32,60.02040694,,,,,,,,7,Fast,long,f,0,1.6804,5,1,21,2,1,,,,,
,1.17,,,,,,,,,j,red,5f501399c8c9cc17d6118e60,2021-09-27_17h11.57.730,forced_choiceRT_color,2021.2.3,Win32,60.02040694,,,,,,,,7,Fast,long,k,0,1.8467,5,2,22,2,1,,,,,
,0.87,,,,,,,,,f,blue,5f501399c8c9cc17d6118e60,2021-09-27_17h11.57.730,forced_choiceRT_color,2021.2.3,Win32,60.02040694,,,,,,,,7,Slow,long,k,0,10.6712,5,3,23,1,1,,,,,
,1.88,,,,,,,,,d,orange,5f501399c8c9cc17d6118e60,2021-09-27_17h11.57.730,forced_choiceRT_color,2021.2.3,Win32,60.02040694,,,,,,,,7,Fast,long,f,0,0.3533,6,0,24,0,1,,,,,
,1.17,,,,,,,,,f,blue,5f501399c8c9cc17d6118e60,2021-09-27_17h11.57.730,forced_choiceRT_color,2021.2.3,Win32,60.02040694,,,,,,,,7,Fast,long,f,1,0.0204,6,1,25,1,1,,,,,
,1.29,,,,,,,,,k,purple,5f501399c8c9cc17d6118e60,2021-09-27_17h11.57.730,forced_choiceRT_color,2021.2.3,Win32,60.02040694,,,,,,,,7,Fast,long,k,1,0.4649,6,2,26,3,1,,,,,
,1.25,,,,,,,,,f,blue,5f501399c8c9cc17d6118e60,2021-09-27_17h11.57.730,forced_choiceRT_color,2021.2.3,Win32,60.02040694,,,,,,,,7,Fast,long,k,0,0.368,6,3,27,1,1,,,,,
,1.6,,,,,,,,,d,orange,5f501399c8c9cc17d6118e60,2021-09-27_17h11.57.730,forced_choiceRT_color,2021.2.3,Win32,60.02040694,,,,,,,,7,Fast,long,k,0,0.8083,7,0,28,0,1,,,,,
,1.26,,,,,,,,,f,blue,5f501399c8c9cc17d6118e60,2021-09-27_17h11.57.730,forced_choiceRT_color,2021.2.3,Win32,60.02040694,,,,,,,,7,Fast,long,k,0,0.4342,7,1,29,1,1,,,,,
,0.67,,,,,,,,,k,purple,5f501399c8c9cc17d6118e60,2021-09-27_17h11.57.730,forced_choiceRT_color,2021.2.3,Win32,60.02040694,,,,,,,,7,Fast,long,f,0,1.4098,7,2,30,3,1,,,,,
,0.44,,,,,,,,,k,purple,5f501399c8c9cc17d6118e60,2021-09-27_17h11.57.730,forced_choiceRT_color,2021.2.3,Win32,60.02040694,,,,,,,,7,Fast,long,f,0,0.0679,7,3,31,3,1,,,,,
,0.21,,,,,,,,,k,purple,5f501399c8c9cc17d6118e60,2021-09-27_17h11.57.730,forced_choiceRT_color,2021.2.3,Win32,60.02040694,,,,,,,,7,Slow,long,k,1,3.3059,8,0,32,3,1,,,,,
,0.57,,,,,,,,,k,purple,5f501399c8c9cc17d6118e60,2021-09-27_17h11.57.730,forced_choiceRT_color,2021.2.3,Win32,60.02040694,,,,,,,,7,Slow,long,f,0,2.2633,8,1,33,3,1,,,,,
,0.45,,,,,,,,,f,blue,5f501399c8c9cc17d6118e60,2021-09-27_17h11.57.730,forced_choiceRT_color,2021.2.3,Win32,60.02040694,,,,,,,,7,Fast,long,k,0,0.8009,8,2,34,1,1,,,,,
,0.84,,,,,,,,,j,red,5f501399c8c9cc17d6118e60,2021-09-27_17h11.57.730,forced_choiceRT_color,2021.2.3,Win32,60.02040694,,,,,,,,7,Fast,long,k,0,1.0183,8,3,35,2,1,,,,,
,1.54,,,,,,,,,j,red,5f501399c8c9cc17d6118e60,2021-09-27_17h11.57.730,forced_choiceRT_color,2021.2.3,Win32,60.02040694,,,,,,,,7,Slow,long,f,0,9.8796,9,0,36,2,1,,,,,
,1.11,,,,,,,,,f,blue,5f501399c8c9cc17d6118e60,2021-09-27_17h11.57.730,forced_choiceRT_color,2021.2.3,Win32,60.02040694,,,,,,,,7,Ontime,long,f,1,1.9711,9,1,37,1,1,,,,,
,1.68,,,,,,,,,k,purple,5f501399c8c9cc17d6118e60,2021-09-27_17h11.57.730,forced_choiceRT_color,2021.2.3,Win32,60.02040694,,,,,,,,7,Fast,long,f,0,0.6852,9,2,38,3,1,,,,,
,1.49,,,,,,,,,j,red,5f501399c8c9cc17d6118e60,2021-09-27_17h11.57.730,forced_choiceRT_color,2021.2.3,Win32,60.02040694,,,,,,,,7,Fast,long,k,0,1.336,9,3,39,2,1,,,,,
,,,,,,,,,,,,5f501399c8c9cc17d6118e60,2021-09-27_17h11.57.730,forced_choiceRT_color,2021.2.3,Win32,60.02040694,,,,,,,,,,,,,,,,,,,6,0,6,0,1
,1.98,,,,,,,,,k,purple,5f501399c8c9cc17d6118e60,2021-09-27_17h11.57.730,forced_choiceRT_color,2021.2.3,Win32,60.02040694,,,,,,,,8,Fast,long,k,1,0.9016,0,0,0,3,1,,,,,
,0.85,,,,,,,,,d,orange,5f501399c8c9cc17d6118e60,2021-09-27_17h11.57.730,forced_choiceRT_color,2021.2.3,Win32,60.02040694,,,,,,,,8,Fast,long,k,0,0.8673,0,1,1,0,1,,,,,
,1.7,,,,,,,,,j,red,5f501399c8c9cc17d6118e60,2021-09-27_17h11.57.730,forced_choiceRT_color,2021.2.3,Win32,60.02040694,,,,,,,,8,Fast,long,k,0,0.9014,0,2,2,2,1,,,,,
,0.48,,,,,,,,,f,blue,5f501399c8c9cc17d6118e60,2021-09-27_17h11.57.730,forced_choiceRT_color,2021.2.3,Win32,60.02040694,,,,,,,,8,Slow,long,f,1,2.9019,0,3,3,1,1,,,,,
,1.28,,,,,,,,,j,red,5f501399c8c9cc17d6118e60,2021-09-27_17h11.57.730,forced_choiceRT_color,2021.2.3,Win32,60.02040694,,,,,,,,8,Fast,long,f,0,0.8514,1,0,4,2,1,,,,,
,0.71,,,,,,,,,f,blue,5f501399c8c9cc17d6118e60,2021-09-27_17h11.57.730,forced_choiceRT_color,2021.2.3,Win32,60.02040694,,,,,,,,8,Slow,long,f,1,2.9063,1,1,5,1,1,,,,,
,1.98,,,,,,,,,f,blue,5f501399c8c9cc17d6118e60,2021-09-27_17h11.57.730,forced_choiceRT_color,2021.2.3,Win32,60.02040694,,,,,,,,8,Fast,long,k,0,0.7438,1,2,6,1,1,,,,,
,1.16,,,,,,,,,f,blue,5f501399c8c9cc17d6118e60,2021-09-27_17h11.57.730,forced_choiceRT_color,2021.2.3,Win32,60.02040694,,,,,,,,8,Fast,long,f,1,0.8685,1,3,7,1,1,,,,,
,1.92,,,,,,,,,j,red,5f501399c8c9cc17d6118e60,2021-09-27_17h11.57.730,forced_choiceRT_color,2021.2.3,Win32,60.02040694,,,,,,,,8,Fast,long,k,0,0.9056,2,0,8,2,1,,,,,
,1.84,,,,,,,,,j,red,5f501399c8c9cc17d6118e60,2021-09-27_17h11.57.730,forced_choiceRT_color,2021.2.3,Win32,60.02040694,,,,,,,,8,Slow,long,f,0,2.7034,2,1,9,2,1,,,,,
,0.4,,,,,,,,,d,orange,5f501399c8c9cc17d6118e60,2021-09-27_17h11.57.730,forced_choiceRT_color,2021.2.3,Win32,60.02040694,,,,,,,,8,Slow,long,f,0,4.9719,2,2,10,0,1,,,,,
,1.71,,,,,,,,,j,red,5f501399c8c9cc17d6118e60,2021-09-27_17h11.57.730,forced_choiceRT_color,2021.2.3,Win32,60.02040694,,,,,,,,8,Fast,long,k,0,1.1247,2,3,11,2,1,,,,,
,0.14,,,,,,,,,f,blue,5f501399c8c9cc17d6118e60,2021-09-27_17h11.57.730,forced_choiceRT_color,2021.2.3,Win32,60.02040694,,,,,,,,8,Fast,long,f,1,0.4679,3,0,12,1,1,,,,,
,0.54,,,,,,,,,j,red,5f501399c8c9cc17d6118e60,2021-09-27_17h11.57.730,forced_choiceRT_color,2021.2.3,Win32,60.02040694,,,,,,,,8,Slow,long,k,0,25.7189,3,1,13,2,1,,,,,
,1.4,,,,,,,,,j,red,5f501399c8c9cc17d6118e60,2021-09-27_17h11.57.730,forced_choiceRT_color,2021.2.3,Win32,60.02040694,,,,,,,,8,Fast,long,f,0,0.7876,3,2,14,2,1,,,,,
,0.22,,,,,,,,,j,red,5f501399c8c9cc17d6118e60,2021-09-27_17h11.57.730,forced_choiceRT_color,2021.2.3,Win32,60.02040694,,,,,,,,8,Fast,long,k,0,0.51,3,3,15,2,1,,,,,
,0.96,,,,,,,,,f,blue,5f501399c8c9cc17d6118e60,2021-09-27_17h11.57.730,forced_choiceRT_color,2021.2.3,Win32,60.02040694,,,,,,,,8,Fast,long,k,0,0.8116,4,0,16,1,1,,,,,
,1.15,,,,,,,,,d,orange,5f501399c8c9cc17d6118e60,2021-09-27_17h11.57.730,forced_choiceRT_color,2021.2.3,Win32,60.02040694,,,,,,,,8,Fast,long,f,0,1.6691,4,1,17,0,1,,,,,
,0.18,,,,,,,,,k,purple,5f501399c8c9cc17d6118e60,2021-09-27_17h11.57.730,forced_choiceRT_color,2021.2.3,Win32,60.02040694,,,,,,,,8,Fast,long,f,0,1.2753,4,2,18,3,1,,,,,
,0.42,,,,,,,,,d,orange,5f501399c8c9cc17d6118e60,2021-09-27_17h11.57.730,forced_choiceRT_color,2021.2.3,Win32,60.02040694,,,,,,,,8,Fast,long,k,0,0.8256,4,3,19,0,1,,,,,
,0.97,,,,,,,,,f,blue,5f501399c8c9cc17d6118e60,2021-09-27_17h11.57.730,forced_choiceRT_color,2021.2.3,Win32,60.02040694,,,,,,,,8,Fast,long,k,0,1.6426,5,0,20,1,1,,,,,
,0.35,,,,,,,,,f,blue,5f501399c8c9cc17d6118e60,2021-09-27_17h11.57.730,forced_choiceRT_color,2021.2.3,Win32,60.02040694,,,,,,,,8,Slow,long,f,1,4.9381,5,1,21,1,1,,,,,
,0.03,,,,,,,,,k,purple,5f501399c8c9cc17d6118e60,2021-09-27_17h11.57.730,forced_choiceRT_color,2021.2.3,Win32,60.02040694,,,,,,,,8,Fast,long,k,1,0.6209,5,2,22,3,1,,,,,
,0.68,,,,,,,,,d,orange,5f501399c8c9cc17d6118e60,2021-09-27_17h11.57.730,forced_choiceRT_color,2021.2.3,Win32,60.02040694,,,,,,,,8,Fast,long,k,0,1.134,5,3,23,0,1,,,,,
,1.48,,,,,,,,,j,red,5f501399c8c9cc17d6118e60,2021-09-27_17h11.57.730,forced_choiceRT_color,2021.2.3,Win32,60.02040694,,,,,,,,8,Fast,long,f,0,1.0549,6,0,24,2,1,,,,,
,0.16,,,,,,,,,k,purple,5f501399c8c9cc17d6118e60,2021-09-27_17h11.57.730,forced_choiceRT_color,2021.2.3,Win32,60.02040694,,,,,,,,8,Fast,long,k,1,0.4672,6,1,25,3,1,,,,,
,0.94,,,,,,,,,k,purple,5f501399c8c9cc17d6118e60,2021-09-27_17h11.57.730,forced_choiceRT_color,2021.2.3,Win32,60.02040694,,,,,,,,8,Fast,long,f,0,1.0514,6,2,26,3,1,,,,,
,0.11,,,,,,,,,k,purple,5f501399c8c9cc17d6118e60,2021-09-27_17h11.57.730,forced_choiceRT_color,2021.2.3,Win32,60.02040694,,,,,,,,8,Fast,long,k,1,0.4397,6,3,27,3,1,,,,,
,0.82,,,,,,,,,d,orange,5f501399c8c9cc17d6118e60,2021-09-27_17h11.57.730,forced_choiceRT_color,2021.2.3,Win32,60.02040694,,,,,,,,8,Fast,long,k,0,1.1761,7,0,28,0,1,,,,,
,0.49,,,,,,,,,f,blue,5f501399c8c9cc17d6118e60,2021-09-27_17h11.57.730,forced_choiceRT_color,2021.2.3,Win32,60.02040694,,,,,,,,8,Fast,long,f,1,1.0521,7,1,29,1,1,,,,,
,0.21,,,,,,,,,f,blue,5f501399c8c9cc17d6118e60,2021-09-27_17h11.57.730,forced_choiceRT_color,2021.2.3,Win32,60.02040694,,,,,,,,8,Fast,long,f,1,1.4257,7,2,30,1,1,,,,,
,0.66,,,,,,,,,j,red,5f501399c8c9cc17d6118e60,2021-09-27_17h11.57.730,forced_choiceRT_color,2021.2.3,Win32,60.02040694,,,,,,,,8,Fast,long,f,0,1.5378,7,3,31,2,1,,,,,
,1.17,,,,,,,,,k,purple,5f501399c8c9cc17d6118e60,2021-09-27_17h11.57.730,forced_choiceRT_color,2021.2.3,Win32,60.02040694,,,,,,,,8,Fast,long,k,1,1.1418,8,0,32,3,1,,,,,
,0.18,,,,,,,,,d,orange,5f501399c8c9cc17d6118e60,2021-09-27_17h11.57.730,forced_choiceRT_color,2021.2.3,Win32,60.02040694,,,,,,,,8,Fast,long,j,0,0.5859,8,1,33,0,1,,,,,
,1.23,,,,,,,,,d,orange,5f501399c8c9cc17d6118e60,2021-09-27_17h11.57.730,forced_choiceRT_color,2021.2.3,Win32,60.02040694,,,,,,,,8,Fast,long,f,0,0.6689,8,2,34,0,1,,,,,
,0.7,,,,,,,,,k,purple,5f501399c8c9cc17d6118e60,2021-09-27_17h11.57.730,forced_choiceRT_color,2021.2.3,Win32,60.02040694,,,,,,,,8,Slow,long,f,0,2.2515,8,3,35,3,1,,,,,
,1.49,,,,,,,,,k,purple,5f501399c8c9cc17d6118e60,2021-09-27_17h11.57.730,forced_choiceRT_color,2021.2.3,Win32,60.02040694,,,,,,,,8,Slow,long,f,0,9.0254,9,0,36,3,1,,,,,
,1.79,,,,,,,,,d,orange,5f501399c8c9cc17d6118e60,2021-09-27_17h11.57.730,forced_choiceRT_color,2021.2.3,Win32,60.02040694,,,,,,,,8,Fast,long,j,0,0.4179,9,1,37,0,1,,,,,
,1.24,,,,,,,,,k,purple,5f501399c8c9cc17d6118e60,2021-09-27_17h11.57.730,forced_choiceRT_color,2021.2.3,Win32,60.02040694,,,,,,,,8,Fast,long,f,0,1.8728,9,2,38,3,1,,,,,
,1.15,,,,,,,,,d,orange,5f501399c8c9cc17d6118e60,2021-09-27_17h11.57.730,forced_choiceRT_color,2021.2.3,Win32,60.02040694,,,,,,,,8,Fast,long,j,0,1.0858,9,3,39,0,1,,,,,
,,,,,,,,,,,,5f501399c8c9cc17d6118e60,2021-09-27_17h11.57.730,forced_choiceRT_color,2021.2.3,Win32,60.02040694,,,,,,,,,,,,,,,,,,,7,0,7,0,1
,1.8,,,,,,,,,d,orange,5f501399c8c9cc17d6118e60,2021-09-27_17h11.57.730,forced_choiceRT_color,2021.2.3,Win32,60.02040694,,,,,,,,9,Slow,long,j,0,2.302,0,0,0,0,1,,,,,
,1.48,,,,,,,,,j,red,5f501399c8c9cc17d6118e60,2021-09-27_17h11.57.730,forced_choiceRT_color,2021.2.3,Win32,60.02040694,,,,,,,,9,Fast,long,f,0,1.8421,0,1,1,2,1,,,,,
,0.62,,,,,,,,,d,orange,5f501399c8c9cc17d6118e60,2021-09-27_17h11.57.730,forced_choiceRT_color,2021.2.3,Win32,60.02040694,,,,,,,,9,Fast,long,j,0,0.3776,0,2,2,0,1,,,,,
,1.86,,,,,,,,,f,blue,5f501399c8c9cc17d6118e60,2021-09-27_17h11.57.730,forced_choiceRT_color,2021.2.3,Win32,60.02040694,,,,,,,,9,Fast,long,f,1,1.1727,0,3,3,1,1,,,,,
,1.64,,,,,,,,,d,orange,5f501399c8c9cc17d6118e60,2021-09-27_17h11.57.730,forced_choiceRT_color,2021.2.3,Win32,60.02040694,,,,,,,,9,Slow,long,f,0,2.2519,1,0,4,0,1,,,,,
,1.97,,,,,,,,,f,blue,5f501399c8c9cc17d6118e60,2021-09-27_17h11.57.730,forced_choiceRT_color,2021.2.3,Win32,60.02040694,,,,,,,,9,Fast,long,f,1,0.342,1,1,5,1,1,,,,,
,1.15,,,,,,,,,f,blue,5f501399c8c9cc17d6118e60,2021-09-27_17h11.57.730,forced_choiceRT_color,2021.2.3,Win32,60.02040694,,,,,,,,9,Fast,long,f,1,1.8348,1,2,6,1,1,,,,,
,0.8,,,,,,,,,f,blue,5f501399c8c9cc17d6118e60,2021-09-27_17h11.57.730,forced_choiceRT_color,2021.2.3,Win32,60.02040694,,,,,,,,9,Ontime,long,f,1,1.9467,1,3,7,1,1,,,,,
,1.41,,,,,,,,,k,purple,5f501399c8c9cc17d6118e60,2021-09-27_17h11.57.730,forced_choiceRT_color,2021.2.3,Win32,60.02040694,,,,,,,,9,Fast,long,j,0,1.2739,2,0,8,3,1,,,,,
,1.35,,,,,,,,,k,purple,5f501399c8c9cc17d6118e60,2021-09-27_17h11.57.730,forced_choiceRT_color,2021.2.3,Win32,60.02040694,,,,,,,,9,Slow,long,j,0,2.1451,2,1,9,3,1,,,,,
,1.1,,,,,,,,,d,orange,5f501399c8c9cc17d6118e60,2021-09-27_17h11.57.730,forced_choiceRT_color,2021.2.3,Win32,60.02040694,,,,,,,,9,Fast,long,j,0,0.1175,2,2,10,0,1,,,,,
,0.64,,,,,,,,,f,blue,5f501399c8c9cc17d6118e60,2021-09-27_17h11.57.730,forced_choiceRT_color,2021.2.3,Win32,60.02040694,,,,,,,,9,Fast,long,j,0,1.4521,2,3,11,1,1,,,,,
,0.42,,,,,,,,,d,orange,5f501399c8c9cc17d6118e60,2021-09-27_17h11.57.730,forced_choiceRT_color,2021.2.3,Win32,60.02040694,,,,,,,,9,Slow,long,j,0,10.7607,3,0,12,0,1,,,,,
,1.9,,,,,,,,,k,purple,5f501399c8c9cc17d6118e60,2021-09-27_17h11.57.730,forced_choiceRT_color,2021.2.3,Win32,60.02040694,,,,,,,,9,Fast,long,j,0,1.0243,3,1,13,3,1,,,,,
,1,,,,,,,,,d,orange,5f501399c8c9cc17d6118e60,2021-09-27_17h11.57.730,forced_choiceRT_color,2021.2.3,Win32,60.02040694,,,,,,,,9,Fast,long,j,0,1.2678,3,2,14,0,1,,,,,
,0.31,,,,,,,,,k,purple,5f501399c8c9cc17d6118e60,2021-09-27_17h11.57.730,forced_choiceRT_color,2021.2.3,Win32,60.02040694,,,,,,,,9,Slow,long,j,0,10.6482,3,3,15,3,1,,,,,
,1.71,,,,,,,,,k,purple,5f501399c8c9cc17d6118e60,2021-09-27_17h11.57.730,forced_choiceRT_color,2021.2.3,Win32,60.02040694,,,,,,,,9,Fast,long,f,0,1.3246,4,0,16,3,1,,,,,
,1.39,,,,,,,,,k,purple,5f501399c8c9cc17d6118e60,2021-09-27_17h11.57.730,forced_choiceRT_color,2021.2.3,Win32,60.02040694,,,,,,,,9,Slow,long,f,0,3.4091,4,1,17,3,1,,,,,
,0.89,,,,,,,,,k,purple,5f501399c8c9cc17d6118e60,2021-09-27_17h11.57.730,forced_choiceRT_color,2021.2.3,Win32,60.02040694,,,,,,,,9,Fast,long,j,0,0.7856,4,2,18,3,1,,,,,
,0.73,,,,,,,,,j,red,5f501399c8c9cc17d6118e60,2021-09-27_17h11.57.730,forced_choiceRT_color,2021.2.3,Win32,60.02040694,,,,,,,,9,Fast,long,k,0,1.2758,4,3,19,2,1,,,,,
,0.25,,,,,,,,,j,red,5f501399c8c9cc17d6118e60,2021-09-27_17h11.57.730,forced_choiceRT_color,2021.2.3,Win32,60.02040694,,,,,,,,9,Fast,long,f,0,1.6353,5,0,20,2,1,,,,,
,1.08,,,,,,,,,k,purple,5f501399c8c9cc17d6118e60,2021-09-27_17h11.57.730,forced_choiceRT_color,2021.2.3,Win32,60.02040694,,,,,,,,9,Fast,long,k,1,1.026,5,1,21,3,1,,,,,
,0.42,,,,,,,,,j,red,5f501399c8c9cc17d6118e60,2021-09-27_17h11.57.730,forced_choiceRT_color,2021.2.3,Win32,60.02040694,,,,,,,,9,Slow,long,k,0,16.8264,5,2,22,2,1,,,,,
,0.69,,,,,,,,,j,red,5f501399c8c9cc17d6118e60,2021-09-27_17h11.57.730,forced_choiceRT_color,2021.2.3,Win32,60.02040694,,,,,,,,9,Slow,long,d,0,176.5512,5,3,23,2,1,,,,,
,1.37,,,,,,,,,f,blue,5f501399c8c9cc17d6118e60,2021-09-27_17h11.57.730,forced_choiceRT_color,2021.2.3,Win32,60.02040694,,,,,,,,9,Fast,long,j,0,0.4509,6,0,24,1,1,,,,,
,0.49,,,,,,,,,d,orange,5f501399c8c9cc17d6118e60,2021-09-27_17h11.57.730,forced_choiceRT_color,2021.2.3,Win32,60.02040694,,,,,,,,9,Slow,long,j,0,7.6792,6,1,25,0,1,,,,,
,1.52,,,,,,,,,f,blue,5f501399c8c9cc17d6118e60,2021-09-27_17h11.57.730,forced_choiceRT_color,2021.2.3,Win32,60.02040694,,,,,,,,9,Fast,long,j,0,0.6596,6,2,26,1,1,,,,,
,0.83,,,,,,,,,f,blue,5f501399c8c9cc17d6118e60,2021-09-27_17h11.57.730,forced_choiceRT_color,2021.2.3,Win32,60.02040694,,,,,,,,9,Fast,long,j,0,1.7016,6,3,27,1,1,,,,,
,1.35,,,,,,,,,d,orange,5f501399c8c9cc17d6118e60,2021-09-27_17h11.57.730,forced_choiceRT_color,2021.2.3,Win32,60.02040694,,,,,,,,9,Fast,long,j,0,1.5439,7,0,28,0,1,,,,,
,1.59,,,,,,,,,f,blue,5f501399c8c9cc17d6118e60,2021-09-27_17h11.57.730,forced_choiceRT_color,2021.2.3,Win32,60.02040694,,,,,,,,9,Fast,long,d,0,0.6757,7,1,29,1,1,,,,,
,0.12,,,,,,,,,j,red,5f501399c8c9cc17d6118e60,2021-09-27_17h11.57.730,forced_choiceRT_color,2021.2.3,Win32,60.02040694,,,,,,,,9,Fast,long,j,1,0.5945,7,2,30,2,1,,,,,
,1.66,,,,,,,,,j,red,5f501399c8c9cc17d6118e60,2021-09-27_17h11.57.730,forced_choiceRT_color,2021.2.3,Win32,60.02040694,,,,,,,,9,Slow,long,j,1,35.1176,7,3,31,2,1,,,,,
,0.82,,,,,,,,,j,red,5f501399c8c9cc17d6118e60,2021-09-27_17h11.57.730,forced_choiceRT_color,2021.2.3,Win32,60.02040694,,,,,,,,9,Fast,long,d,0,0.4243,8,0,32,2,1,,,,,
,0.98,,,,,,,,,j,red,5f501399c8c9cc17d6118e60,2021-09-27_17h11.57.730,forced_choiceRT_color,2021.2.3,Win32,60.02040694,,,,,,,,9,Slow,long,j,1,11.0302,8,1,33,2,1,,,,,
,0.47,,,,,,,,,k,purple,5f501399c8c9cc17d6118e60,2021-09-27_17h11.57.730,forced_choiceRT_color,2021.2.3,Win32,60.02040694,,,,,,,,9,Fast,long,d,0,0.7905,8,2,34,3,1,,,,,
,0.88,,,,,,,,,d,orange,5f501399c8c9cc17d6118e60,2021-09-27_17h11.57.730,forced_choiceRT_color,2021.2.3,Win32,60.02040694,,,,,,,,9,Fast,long,j,0,1.4224,8,3,35,0,1,,,,,
,0.46,,,,,,,,,f,blue,5f501399c8c9cc17d6118e60,2021-09-27_17h11.57.730,forced_choiceRT_color,2021.2.3,Win32,60.02040694,,,,,,,,9,Fast,long,j,0,0.4831,9,0,36,1,1,,,,,
,0.05,,,,,,,,,j,red,5f501399c8c9cc17d6118e60,2021-09-27_17h11.57.730,forced_choiceRT_color,2021.2.3,Win32,60.02040694,,,,,,,,9,Ontime,long,d,0,1.9059,9,1,37,2,1,,,,,
,0.94,,,,,,,,,k,purple,5f501399c8c9cc17d6118e60,2021-09-27_17h11.57.730,forced_choiceRT_color,2021.2.3,Win32,60.02040694,,,,,,,,9,Fast,long,d,0,1.8309,9,2,38,3,1,,,,,
,1.94,,,,,,,,,d,orange,5f501399c8c9cc17d6118e60,2021-09-27_17h11.57.730,forced_choiceRT_color,2021.2.3,Win32,60.02040694,,,,,,,,9,Fast,long,j,0,1.3083,9,3,39,0,1,,,,,
,,,,,,,,,,,,5f501399c8c9cc17d6118e60,2021-09-27_17h11.57.730,forced_choiceRT_color,2021.2.3,Win32,60.02040694,,,,,,,,,,,,,,,,,,,8,0,8,0,1
,1.79,,,,,,,,,d,orange,5f501399c8c9cc17d6118e60,2021-09-27_17h11.57.730,forced_choiceRT_color,2021.2.3,Win32,60.02040694,,,,,,,,10,Slow,long,j,0,2.6368,0,0,0,0,1,,,,,
,0.65,,,,,,,,,k,purple,5f501399c8c9cc17d6118e60,2021-09-27_17h11.57.730,forced_choiceRT_color,2021.2.3,Win32,60.02040694,,,,,,,,10,Fast,long,d,0,1.8651,0,1,1,3,1,,,,,
,1.46,,,,,,,,,j,red,5f501399c8c9cc17d6118e60,2021-09-27_17h11.57.730,forced_choiceRT_color,2021.2.3,Win32,60.02040694,,,,,,,,10,Fast,long,j,1,0.7758,0,2,2,2,1,,,,,
,1.24,,,,,,,,,k,purple,5f501399c8c9cc17d6118e60,2021-09-27_17h11.57.730,forced_choiceRT_color,2021.2.3,Win32,60.02040694,,,,,,,,10,Fast,long,d,0,1.1005,0,3,3,3,1,,,,,
,1.9,,,,,,,,,f,blue,5f501399c8c9cc17d6118e60,2021-09-27_17h11.57.730,forced_choiceRT_color,2021.2.3,Win32,60.02040694,,,,,,,,10,Fast,long,j,0,0.7299,1,0,4,1,1,,,,,
,0.45,,,,,,,,,f,blue,5f501399c8c9cc17d6118e60,2021-09-27_17h11.57.730,forced_choiceRT_color,2021.2.3,Win32,60.02040694,,,,,,,,10,Fast,long,d,0,1.118,1,1,5,1,1,,,,,
,1.58,,,,,,,,,k,purple,5f501399c8c9cc17d6118e60,2021-09-27_17h11.57.730,forced_choiceRT_color,2021.2.3,Win32,60.02040694,,,,,,,,10,Slow,long,j,0,5.6575,1,2,6,3,1,,,,,
,1.56,,,,,,,,,d,orange,5f501399c8c9cc17d6118e60,2021-09-27_17h11.57.730,forced_choiceRT_color,2021.2.3,Win32,60.02040694,,,,,,,,10,Slow,long,d,1,4.5456,1,3,7,0,1,,,,,
,1.1,,,,,,,,,f,blue,5f501399c8c9cc17d6118e60,2021-09-27_17h11.57.730,forced_choiceRT_color,2021.2.3,Win32,60.02040694,,,,,,,,10,Fast,long,d,0,0.0181,2,0,8,1,1,,,,,
,0.46,,,,,,,,,f,blue,5f501399c8c9cc17d6118e60,2021-09-27_17h11.57.730,forced_choiceRT_color,2021.2.3,Win32,60.02040694,,,,,,,,10,Fast,long,j,0,0.1554,2,1,9,1,1,,,,,
,0.7,,,,,,,,,j,red,5f501399c8c9cc17d6118e60,2021-09-27_17h11.57.730,forced_choiceRT_color,2021.2.3,Win32,60.02040694,,,,,,,,10,Fast,long,d,0,0.0355,2,2,10,2,1,,,,,
,0.36,,,,,,,,,d,orange,5f501399c8c9cc17d6118e60,2021-09-27_17h11.57.730,forced_choiceRT_color,2021.2.3,Win32,60.02040694,,,,,,,,10,Fast,long,j,0,0.1657,2,3,11,0,1,,,,,
,0.77,,,,,,,,,j,red,5f501399c8c9cc17d6118e60,2021-09-27_17h11.57.730,forced_choiceRT_color,2021.2.3,Win32,60.02040694,,,,,,,,10,Fast,long,j,1,0.2847,3,0,12,2,1,,,,,
,0.21,,,,,,,,,d,orange,5f501399c8c9cc17d6118e60,2021-09-27_17h11.57.730,forced_choiceRT_color,2021.2.3,Win32,60.02040694,,,,,,,,10,Fast,long,j,0,0.0175,3,1,13,0,1,,,,,
,1.74,,,,,,,,,k,purple,5f501399c8c9cc17d6118e60,2021-09-27_17h11.57.730,forced_choiceRT_color,2021.2.3,Win32,60.02040694,,,,,,,,10,Fast,long,j,0,0.4342,3,2,14,3,1,,,,,
,0.36,,,,,,,,,k,purple,5f501399c8c9cc17d6118e60,2021-09-27_17h11.57.730,forced_choiceRT_color,2021.2.3,Win32,60.02040694,,,,,,,,10,Fast,long,d,0,0.1655,3,3,15,3,1,,,,,
,1.42,,,,,,,,,j,red,5f501399c8c9cc17d6118e60,2021-09-27_17h11.57.730,forced_choiceRT_color,2021.2.3,Win32,60.02040694,,,,,,,,10,Fast,long,d,0,0.094,4,0,16,2,1,,,,,
,0.11,,,,,,,,,k,purple,5f501399c8c9cc17d6118e60,2021-09-27_17h11.57.730,forced_choiceRT_color,2021.2.3,Win32,60.02040694,,,,,,,,10,Fast,long,j,0,0.045,4,1,17,3,1,,,,,
,0.33,,,,,,,,,d,orange,5f501399c8c9cc17d6118e60,2021-09-27_17h11.57.730,forced_choiceRT_color,2021.2.3,Win32,60.02040694,,,,,,,,10,Fast,long,d,1,0.1329,4,2,18,0,1,,,,,
,0.01,,,,,,,,,j,red,5f501399c8c9cc17d6118e60,2021-09-27_17h11.57.730,forced_choiceRT_color,2021.2.3,Win32,60.02040694,,,,,,,,10,Fast,long,d,0,0.6032,4,3,19,2,1,,,,,
,0.1,,,,,,,,,f,blue,5f501399c8c9cc17d6118e60,2021-09-27_17h11.57.730,forced_choiceRT_color,2021.2.3,Win32,60.02040694,,,,,,,,10,Fast,long,d,0,0.6793,5,0,20,1,1,,,,,
,1.83,,,,,,,,,d,orange,5f501399c8c9cc17d6118e60,2021-09-27_17h11.57.730,forced_choiceRT_color,2021.2.3,Win32,60.02040694,,,,,,,,10,Fast,long,d,1,0.6175,5,1,21,0,1,,,,,
,0.25,,,,,,,,,j,red,5f501399c8c9cc17d6118e60,2021-09-27_17h11.57.730,forced_choiceRT_color,2021.2.3,Win32,60.02040694,,,,,,,,10,Fast,long,j,1,0.3346,5,2,22,2,1,,,,,
,0.86,,,,,,,,,j,red,5f501399c8c9cc17d6118e60,2021-09-27_17h11.57.730,forced_choiceRT_color,2021.2.3,Win32,60.02040694,,,,,,,,10,Fast,long,d,0,0.0516,5,3,23,2,1,,,,,
,1.11,,,,,,,,,f,blue,5f501399c8c9cc17d6118e60,2021-09-27_17h11.57.730,forced_choiceRT_color,2021.2.3,Win32,60.02040694,,,,,,,,10,Fast,long,d,0,0.8512,6,0,24,1,1,,,,,
,0.38,,,,,,,,,k,purple,5f501399c8c9cc17d6118e60,2021-09-27_17h11.57.730,forced_choiceRT_color,2021.2.3,Win32,60.02040694,,,,,,,,10,Fast,long,d,0,0.3352,6,1,25,3,1,,,,,
,0.67,,,,,,,,,d,orange,5f501399c8c9cc17d6118e60,2021-09-27_17h11.57.730,forced_choiceRT_color,2021.2.3,Win32,60.02040694,,,,,,,,10,Fast,long,j,0,0.2845,6,2,26,0,1,,,,,
,0.51,,,,,,,,,k,purple,5f501399c8c9cc17d6118e60,2021-09-27_17h11.57.730,forced_choiceRT_color,2021.2.3,Win32,60.02040694,,,,,,,,10,Fast,long,d,0,0.3009,6,3,27,3,1,,,,,
,1.03,,,,,,,,,f,blue,5f501399c8c9cc17d6118e60,2021-09-27_17h11.57.730,forced_choiceRT_color,2021.2.3,Win32,60.02040694,,,,,,,,10,Fast,long,j,0,0.2673,7,0,28,1,1,,,,,
,0.37,,,,,,,,,j,red,5f501399c8c9cc17d6118e60,2021-09-27_17h11.57.730,forced_choiceRT_color,2021.2.3,Win32,60.02040694,,,,,,,,10,Fast,long,d,0,0.2672,7,1,29,2,1,,,,,
,1.55,,,,,,,,,k,purple,5f501399c8c9cc17d6118e60,2021-09-27_17h11.57.730,forced_choiceRT_color,2021.2.3,Win32,60.02040694,,,,,,,,10,Fast,long,d,0,1.4349,7,2,30,3,1,,,,,
,1.86,,,,,,,,,f,blue,5f501399c8c9cc17d6118e60,2021-09-27_17h11.57.730,forced_choiceRT_color,2021.2.3,Win32,60.02040694,,,,,,,,10,Fast,long,d,0,1.0515,7,3,31,1,1,,,,,
,1.57,,,,,,,,,j,red,5f501399c8c9cc17d6118e60,2021-09-27_17h11.57.730,forced_choiceRT_color,2021.2.3,Win32,60.02040694,,,,,,,,10,Fast,long,d,0,1.0177,8,0,32,2,1,,,,,
,1.73,,,,,,,,,d,orange,5f501399c8c9cc17d6118e60,2021-09-27_17h11.57.730,forced_choiceRT_color,2021.2.3,Win32,60.02040694,,,,,,,,10,Fast,long,j,0,0.9505,8,1,33,0,1,,,,,
,0.54,,,,,,,,,d,orange,5f501399c8c9cc17d6118e60,2021-09-27_17h11.57.730,forced_choiceRT_color,2021.2.3,Win32,60.02040694,,,,,,,,10,Fast,long,j,0,1.7678,8,2,34,0,1,,,,,
,1.92,,,,,,,,,f,blue,5f501399c8c9cc17d6118e60,2021-09-27_17h11.57.730,forced_choiceRT_color,2021.2.3,Win32,60.02040694,,,,,,,,10,Fast,long,d,0,1.1357,8,3,35,1,1,,,,,
,1.9,,,,,,,,,k,purple,5f501399c8c9cc17d6118e60,2021-09-27_17h11.57.730,forced_choiceRT_color,2021.2.3,Win32,60.02040694,,,,,,,,10,Fast,long,j,0,0.6702,9,0,36,3,1,,,,,
,0.19,,,,,,,,,f,blue,5f501399c8c9cc17d6118e60,2021-09-27_17h11.57.730,forced_choiceRT_color,2021.2.3,Win32,60.02040694,,,,,,,,10,Fast,long,j,0,0.418,9,1,37,1,1,,,,,
,1.84,,,,,,,,,d,orange,5f501399c8c9cc17d6118e60,2021-09-27_17h11.57.730,forced_choiceRT_color,2021.2.3,Win32,60.02040694,,,,,,,,10,Fast,long,f,0,0.1167,9,2,38,0,1,,,,,
,0.99,,,,,,,,,j,red,5f501399c8c9cc17d6118e60,2021-09-27_17h11.57.730,forced_choiceRT_color,2021.2.3,Win32,60.02040694,,,,,,,,10,Fast,long,j,1,0.6343,9,3,39,2,1,,,,,
,,,,,,,,,,,,5f501399c8c9cc17d6118e60,2021-09-27_17h11.57.730,forced_choiceRT_color,2021.2.3,Win32,60.02040694,,,,,,,,,,,,,,,,,,,9,0,9,0,1
