IP_Addresss,target_onset,trial_resp_sp.keys,trial_resp_sp.corr,trial_resp_sp.rt,trials_train_loop.thisRepN,trials_train_loop.thisTrialN,trials_train_loop.thisN,trials_train_loop.thisIndex,trials_train_loop.ran,correct_key,color,participant,date,expName,psychopyVersion,OS,frameRate,trial_resp_timing.keys,trial_resp_timing.rt,trials_train_timing.thisRepN,trials_train_timing.thisTrialN,trials_train_timing.thisN,trials_train_timing.thisIndex,trials_train_timing.ran,block_id,ontime,feedback_cond,forcedRT_resp.keys,forcedRT_resp.corr,forcedRT_resp.rt,trials.thisRepN,trials.thisTrialN,trials.thisN,trials.thisIndex,trials.ran,blocks.thisRepN,blocks.thisTrialN,blocks.thisN,blocks.thisIndex,blocks.ran
24.77.73.227,0,j,1,1.6293,0,0,0,2,1,j,red,5f6e72f4f0d70a3c02af4ee6,2021-09-27_16h08.39.353,forced_choiceRT_color,2021.2.3,Win32,59.80861244,,,,,,,,,,,,,,,,,,,,,,,
,0,k,1,1.1158,0,1,1,3,1,k,purple,5f6e72f4f0d70a3c02af4ee6,2021-09-27_16h08.39.353,forced_choiceRT_color,2021.2.3,Win32,59.80861244,,,,,,,,,,,,,,,,,,,,,,,
,0,k,1,1.3521,0,2,2,3,1,k,purple,5f6e72f4f0d70a3c02af4ee6,2021-09-27_16h08.39.353,forced_choiceRT_color,2021.2.3,Win32,59.80861244,,,,,,,,,,,,,,,,,,,,,,,
,0,k,1,0.5521,0,3,3,3,1,k,purple,5f6e72f4f0d70a3c02af4ee6,2021-09-27_16h08.39.353,forced_choiceRT_color,2021.2.3,Win32,59.80861244,,,,,,,,,,,,,,,,,,,,,,,
,0,f,1,0.9601,1,0,4,1,1,f,blue,5f6e72f4f0d70a3c02af4ee6,2021-09-27_16h08.39.353,forced_choiceRT_color,2021.2.3,Win32,59.80861244,,,,,,,,,,,,,,,,,,,,,,,
,0,j,1,0.8606,1,1,5,2,1,j,red,5f6e72f4f0d70a3c02af4ee6,2021-09-27_16h08.39.353,forced_choiceRT_color,2021.2.3,Win32,59.80861244,,,,,,,,,,,,,,,,,,,,,,,
,0,j,1,0.7686,1,2,6,2,1,j,red,5f6e72f4f0d70a3c02af4ee6,2021-09-27_16h08.39.353,forced_choiceRT_color,2021.2.3,Win32,59.80861244,,,,,,,,,,,,,,,,,,,,,,,
,0,f,1,0.7176,1,3,7,1,1,f,blue,5f6e72f4f0d70a3c02af4ee6,2021-09-27_16h08.39.353,forced_choiceRT_color,2021.2.3,Win32,59.80861244,,,,,,,,,,,,,,,,,,,,,,,
,0,f,1,0.5684,2,0,8,1,1,f,blue,5f6e72f4f0d70a3c02af4ee6,2021-09-27_16h08.39.353,forced_choiceRT_color,2021.2.3,Win32,59.80861244,,,,,,,,,,,,,,,,,,,,,,,
,0,j,1,0.7267,2,1,9,2,1,j,red,5f6e72f4f0d70a3c02af4ee6,2021-09-27_16h08.39.353,forced_choiceRT_color,2021.2.3,Win32,59.80861244,,,,,,,,,,,,,,,,,,,,,,,
,0,d,1,0.7022,2,2,10,0,1,d,orange,5f6e72f4f0d70a3c02af4ee6,2021-09-27_16h08.39.353,forced_choiceRT_color,2021.2.3,Win32,59.80861244,,,,,,,,,,,,,,,,,,,,,,,
,0,k,1,0.5325,2,3,11,3,1,k,purple,5f6e72f4f0d70a3c02af4ee6,2021-09-27_16h08.39.353,forced_choiceRT_color,2021.2.3,Win32,59.80861244,,,,,,,,,,,,,,,,,,,,,,,
,0,k,1,0.6417,3,0,12,3,1,k,purple,5f6e72f4f0d70a3c02af4ee6,2021-09-27_16h08.39.353,forced_choiceRT_color,2021.2.3,Win32,59.80861244,,,,,,,,,,,,,,,,,,,,,,,
,0,j,1,0.6878,3,1,13,2,1,j,red,5f6e72f4f0d70a3c02af4ee6,2021-09-27_16h08.39.353,forced_choiceRT_color,2021.2.3,Win32,59.80861244,,,,,,,,,,,,,,,,,,,,,,,
,0,d,1,0.6677,3,2,14,0,1,d,orange,5f6e72f4f0d70a3c02af4ee6,2021-09-27_16h08.39.353,forced_choiceRT_color,2021.2.3,Win32,59.80861244,,,,,,,,,,,,,,,,,,,,,,,
,0,f,1,0.5673,3,3,15,1,1,f,blue,5f6e72f4f0d70a3c02af4ee6,2021-09-27_16h08.39.353,forced_choiceRT_color,2021.2.3,Win32,59.80861244,,,,,,,,,,,,,,,,,,,,,,,
,0,d,1,0.7505,4,0,16,0,1,d,orange,5f6e72f4f0d70a3c02af4ee6,2021-09-27_16h08.39.353,forced_choiceRT_color,2021.2.3,Win32,59.80861244,,,,,,,,,,,,,,,,,,,,,,,
,0,k,1,0.7346,4,1,17,3,1,k,purple,5f6e72f4f0d70a3c02af4ee6,2021-09-27_16h08.39.353,forced_choiceRT_color,2021.2.3,Win32,59.80861244,,,,,,,,,,,,,,,,,,,,,,,
,0,k,1,0.6109,4,2,18,3,1,k,purple,5f6e72f4f0d70a3c02af4ee6,2021-09-27_16h08.39.353,forced_choiceRT_color,2021.2.3,Win32,59.80861244,,,,,,,,,,,,,,,,,,,,,,,
,0,j,1,0.6183,4,3,19,2,1,j,red,5f6e72f4f0d70a3c02af4ee6,2021-09-27_16h08.39.353,forced_choiceRT_color,2021.2.3,Win32,59.80861244,,,,,,,,,,,,,,,,,,,,,,,
,0,j,1,0.6678,5,0,20,2,1,j,red,5f6e72f4f0d70a3c02af4ee6,2021-09-27_16h08.39.353,forced_choiceRT_color,2021.2.3,Win32,59.80861244,,,,,,,,,,,,,,,,,,,,,,,
,0,d,1,0.6674,5,1,21,0,1,d,orange,5f6e72f4f0d70a3c02af4ee6,2021-09-27_16h08.39.353,forced_choiceRT_color,2021.2.3,Win32,59.80861244,,,,,,,,,,,,,,,,,,,,,,,
,0,f,1,0.6515,5,2,22,1,1,f,blue,5f6e72f4f0d70a3c02af4ee6,2021-09-27_16h08.39.353,forced_choiceRT_color,2021.2.3,Win32,59.80861244,,,,,,,,,,,,,,,,,,,,,,,
,0,j,1,0.6843,5,3,23,2,1,j,red,5f6e72f4f0d70a3c02af4ee6,2021-09-27_16h08.39.353,forced_choiceRT_color,2021.2.3,Win32,59.80861244,,,,,,,,,,,,,,,,,,,,,,,
,0,f,1,0.6818,6,0,24,1,1,f,blue,5f6e72f4f0d70a3c02af4ee6,2021-09-27_16h08.39.353,forced_choiceRT_color,2021.2.3,Win32,59.80861244,,,,,,,,,,,,,,,,,,,,,,,
,0,k,1,0.7359,6,1,25,3,1,k,purple,5f6e72f4f0d70a3c02af4ee6,2021-09-27_16h08.39.353,forced_choiceRT_color,2021.2.3,Win32,59.80861244,,,,,,,,,,,,,,,,,,,,,,,
,0,d,1,0.5851,6,2,26,0,1,d,orange,5f6e72f4f0d70a3c02af4ee6,2021-09-27_16h08.39.353,forced_choiceRT_color,2021.2.3,Win32,59.80861244,,,,,,,,,,,,,,,,,,,,,,,
,0,f,1,0.6498,6,3,27,1,1,f,blue,5f6e72f4f0d70a3c02af4ee6,2021-09-27_16h08.39.353,forced_choiceRT_color,2021.2.3,Win32,59.80861244,,,,,,,,,,,,,,,,,,,,,,,
,0,d,1,0.635,7,0,28,0,1,d,orange,5f6e72f4f0d70a3c02af4ee6,2021-09-27_16h08.39.353,forced_choiceRT_color,2021.2.3,Win32,59.80861244,,,,,,,,,,,,,,,,,,,,,,,
,0,d,1,0.522,7,1,29,0,1,d,orange,5f6e72f4f0d70a3c02af4ee6,2021-09-27_16h08.39.353,forced_choiceRT_color,2021.2.3,Win32,59.80861244,,,,,,,,,,,,,,,,,,,,,,,
,0,k,1,0.6851,7,2,30,3,1,k,purple,5f6e72f4f0d70a3c02af4ee6,2021-09-27_16h08.39.353,forced_choiceRT_color,2021.2.3,Win32,59.80861244,,,,,,,,,,,,,,,,,,,,,,,
,0,d,1,0.6124,7,3,31,0,1,d,orange,5f6e72f4f0d70a3c02af4ee6,2021-09-27_16h08.39.353,forced_choiceRT_color,2021.2.3,Win32,59.80861244,,,,,,,,,,,,,,,,,,,,,,,
,0,d,1,0.5846,8,0,32,0,1,d,orange,5f6e72f4f0d70a3c02af4ee6,2021-09-27_16h08.39.353,forced_choiceRT_color,2021.2.3,Win32,59.80861244,,,,,,,,,,,,,,,,,,,,,,,
,0,k,1,0.7412,8,1,33,3,1,k,purple,5f6e72f4f0d70a3c02af4ee6,2021-09-27_16h08.39.353,forced_choiceRT_color,2021.2.3,Win32,59.80861244,,,,,,,,,,,,,,,,,,,,,,,
,0,j,1,0.5694,8,2,34,2,1,j,red,5f6e72f4f0d70a3c02af4ee6,2021-09-27_16h08.39.353,forced_choiceRT_color,2021.2.3,Win32,59.80861244,,,,,,,,,,,,,,,,,,,,,,,
,0,f,1,0.5296,8,3,35,1,1,f,blue,5f6e72f4f0d70a3c02af4ee6,2021-09-27_16h08.39.353,forced_choiceRT_color,2021.2.3,Win32,59.80861244,,,,,,,,,,,,,,,,,,,,,,,
,0,k,1,0.636,9,0,36,3,1,k,purple,5f6e72f4f0d70a3c02af4ee6,2021-09-27_16h08.39.353,forced_choiceRT_color,2021.2.3,Win32,59.80861244,,,,,,,,,,,,,,,,,,,,,,,
,0,j,1,0.651,9,1,37,2,1,j,red,5f6e72f4f0d70a3c02af4ee6,2021-09-27_16h08.39.353,forced_choiceRT_color,2021.2.3,Win32,59.80861244,,,,,,,,,,,,,,,,,,,,,,,
,0,f,1,0.6485,9,2,38,1,1,f,blue,5f6e72f4f0d70a3c02af4ee6,2021-09-27_16h08.39.353,forced_choiceRT_color,2021.2.3,Win32,59.80861244,,,,,,,,,,,,,,,,,,,,,,,
,0,f,1,0.52,9,3,39,1,1,f,blue,5f6e72f4f0d70a3c02af4ee6,2021-09-27_16h08.39.353,forced_choiceRT_color,2021.2.3,Win32,59.80861244,,,,,,,,,,,,,,,,,,,,,,,
,0,f,1,0.4677,10,0,40,1,1,f,blue,5f6e72f4f0d70a3c02af4ee6,2021-09-27_16h08.39.353,forced_choiceRT_color,2021.2.3,Win32,59.80861244,,,,,,,,,,,,,,,,,,,,,,,
,0,d,1,0.5832,10,1,41,0,1,d,orange,5f6e72f4f0d70a3c02af4ee6,2021-09-27_16h08.39.353,forced_choiceRT_color,2021.2.3,Win32,59.80861244,,,,,,,,,,,,,,,,,,,,,,,
,0,k,1,0.5463,10,2,42,3,1,k,purple,5f6e72f4f0d70a3c02af4ee6,2021-09-27_16h08.39.353,forced_choiceRT_color,2021.2.3,Win32,59.80861244,,,,,,,,,,,,,,,,,,,,,,,
,0,j,1,0.6772,10,3,43,2,1,j,red,5f6e72f4f0d70a3c02af4ee6,2021-09-27_16h08.39.353,forced_choiceRT_color,2021.2.3,Win32,59.80861244,,,,,,,,,,,,,,,,,,,,,,,
,0,d,1,0.5341,11,0,44,0,1,d,orange,5f6e72f4f0d70a3c02af4ee6,2021-09-27_16h08.39.353,forced_choiceRT_color,2021.2.3,Win32,59.80861244,,,,,,,,,,,,,,,,,,,,,,,
,0,f,1,0.5931,11,1,45,1,1,f,blue,5f6e72f4f0d70a3c02af4ee6,2021-09-27_16h08.39.353,forced_choiceRT_color,2021.2.3,Win32,59.80861244,,,,,,,,,,,,,,,,,,,,,,,
,0,j,1,0.6598,11,2,46,2,1,j,red,5f6e72f4f0d70a3c02af4ee6,2021-09-27_16h08.39.353,forced_choiceRT_color,2021.2.3,Win32,59.80861244,,,,,,,,,,,,,,,,,,,,,,,
,0,d,1,0.6822,11,3,47,0,1,d,orange,5f6e72f4f0d70a3c02af4ee6,2021-09-27_16h08.39.353,forced_choiceRT_color,2021.2.3,Win32,59.80861244,,,,,,,,,,,,,,,,,,,,,,,
,0,k,1,0.5376,12,0,48,3,1,k,purple,5f6e72f4f0d70a3c02af4ee6,2021-09-27_16h08.39.353,forced_choiceRT_color,2021.2.3,Win32,59.80861244,,,,,,,,,,,,,,,,,,,,,,,
,0,d,1,0.6934,12,1,49,0,1,d,orange,5f6e72f4f0d70a3c02af4ee6,2021-09-27_16h08.39.353,forced_choiceRT_color,2021.2.3,Win32,59.80861244,,,,,,,,,,,,,,,,,,,,,,,
,0,d,1,0.5275,12,2,50,0,1,d,orange,5f6e72f4f0d70a3c02af4ee6,2021-09-27_16h08.39.353,forced_choiceRT_color,2021.2.3,Win32,59.80861244,,,,,,,,,,,,,,,,,,,,,,,
,0,f,1,0.5778,12,3,51,1,1,f,blue,5f6e72f4f0d70a3c02af4ee6,2021-09-27_16h08.39.353,forced_choiceRT_color,2021.2.3,Win32,59.80861244,,,,,,,,,,,,,,,,,,,,,,,
,0,j,1,0.5438,13,0,52,2,1,j,red,5f6e72f4f0d70a3c02af4ee6,2021-09-27_16h08.39.353,forced_choiceRT_color,2021.2.3,Win32,59.80861244,,,,,,,,,,,,,,,,,,,,,,,
,0,j,1,0.5853,13,1,53,2,1,j,red,5f6e72f4f0d70a3c02af4ee6,2021-09-27_16h08.39.353,forced_choiceRT_color,2021.2.3,Win32,59.80861244,,,,,,,,,,,,,,,,,,,,,,,
,0,f,1,0.5317,13,2,54,1,1,f,blue,5f6e72f4f0d70a3c02af4ee6,2021-09-27_16h08.39.353,forced_choiceRT_color,2021.2.3,Win32,59.80861244,,,,,,,,,,,,,,,,,,,,,,,
,0,d,1,0.5529,13,3,55,0,1,d,orange,5f6e72f4f0d70a3c02af4ee6,2021-09-27_16h08.39.353,forced_choiceRT_color,2021.2.3,Win32,59.80861244,,,,,,,,,,,,,,,,,,,,,,,
,0,f,1,0.5343,14,0,56,1,1,f,blue,5f6e72f4f0d70a3c02af4ee6,2021-09-27_16h08.39.353,forced_choiceRT_color,2021.2.3,Win32,59.80861244,,,,,,,,,,,,,,,,,,,,,,,
,0,j,1,0.5399,14,1,57,2,1,j,red,5f6e72f4f0d70a3c02af4ee6,2021-09-27_16h08.39.353,forced_choiceRT_color,2021.2.3,Win32,59.80861244,,,,,,,,,,,,,,,,,,,,,,,
,0,k,1,0.5192,14,2,58,3,1,k,purple,5f6e72f4f0d70a3c02af4ee6,2021-09-27_16h08.39.353,forced_choiceRT_color,2021.2.3,Win32,59.80861244,,,,,,,,,,,,,,,,,,,,,,,
,0,k,1,0.4535,14,3,59,3,1,k,purple,5f6e72f4f0d70a3c02af4ee6,2021-09-27_16h08.39.353,forced_choiceRT_color,2021.2.3,Win32,59.80861244,,,,,,,,,,,,,,,,,,,,,,,
,,,,,,,,,,,,5f6e72f4f0d70a3c02af4ee6,2021-09-27_16h08.39.353,forced_choiceRT_color,2021.2.3,Win32,59.80861244,j,2.2436,0,0,0,0,1,,,,,,,,,,,,,,,,
,,,,,,,,,,,,5f6e72f4f0d70a3c02af4ee6,2021-09-27_16h08.39.353,forced_choiceRT_color,2021.2.3,Win32,59.80861244,j,1.8531,1,0,1,0,1,,,,,,,,,,,,,,,,
,,,,,,,,,,,,5f6e72f4f0d70a3c02af4ee6,2021-09-27_16h08.39.353,forced_choiceRT_color,2021.2.3,Win32,59.80861244,j,2.1065,2,0,2,0,1,,,,,,,,,,,,,,,,
,,,,,,,,,,,,5f6e72f4f0d70a3c02af4ee6,2021-09-27_16h08.39.353,forced_choiceRT_color,2021.2.3,Win32,59.80861244,k,2.1693,3,0,3,0,1,,,,,,,,,,,,,,,,
,,,,,,,,,,,,5f6e72f4f0d70a3c02af4ee6,2021-09-27_16h08.39.353,forced_choiceRT_color,2021.2.3,Win32,59.80861244,k,2.0912,4,0,4,0,1,,,,,,,,,,,,,,,,
,,,,,,,,,,,,5f6e72f4f0d70a3c02af4ee6,2021-09-27_16h08.39.353,forced_choiceRT_color,2021.2.3,Win32,59.80861244,d,2.1692,5,0,5,0,1,,,,,,,,,,,,,,,,
,,,,,,,,,,,,5f6e72f4f0d70a3c02af4ee6,2021-09-27_16h08.39.353,forced_choiceRT_color,2021.2.3,Win32,59.80861244,f,1.9837,6,0,6,0,1,,,,,,,,,,,,,,,,
,,,,,,,,,,,,5f6e72f4f0d70a3c02af4ee6,2021-09-27_16h08.39.353,forced_choiceRT_color,2021.2.3,Win32,59.80861244,f,1.8885,7,0,7,0,1,,,,,,,,,,,,,,,,
,,,,,,,,,,,,5f6e72f4f0d70a3c02af4ee6,2021-09-27_16h08.39.353,forced_choiceRT_color,2021.2.3,Win32,59.80861244,j,1.9037,8,0,8,0,1,,,,,,,,,,,,,,,,
,,,,,,,,,,,,5f6e72f4f0d70a3c02af4ee6,2021-09-27_16h08.39.353,forced_choiceRT_color,2021.2.3,Win32,59.80861244,d,2.0046,9,0,9,0,1,,,,,,,,,,,,,,,,
,,,,,,,,,,,,5f6e72f4f0d70a3c02af4ee6,2021-09-27_16h08.39.353,forced_choiceRT_color,2021.2.3,Win32,59.80861244,j,1.9188,10,0,10,0,1,,,,,,,,,,,,,,,,
,,,,,,,,,,,,5f6e72f4f0d70a3c02af4ee6,2021-09-27_16h08.39.353,forced_choiceRT_color,2021.2.3,Win32,59.80861244,d,1.9346,11,0,11,0,1,,,,,,,,,,,,,,,,
,,,,,,,,,,,,5f6e72f4f0d70a3c02af4ee6,2021-09-27_16h08.39.353,forced_choiceRT_color,2021.2.3,Win32,59.80861244,k,1.7404,12,0,12,0,1,,,,,,,,,,,,,,,,
,,,,,,,,,,,,5f6e72f4f0d70a3c02af4ee6,2021-09-27_16h08.39.353,forced_choiceRT_color,2021.2.3,Win32,59.80861244,k,1.7532,13,0,13,0,1,,,,,,,,,,,,,,,,
,,,,,,,,,,,,5f6e72f4f0d70a3c02af4ee6,2021-09-27_16h08.39.353,forced_choiceRT_color,2021.2.3,Win32,59.80861244,j,1.9404,14,0,14,0,1,,,,,,,,,,,,,,,,
,,,,,,,,,,,,5f6e72f4f0d70a3c02af4ee6,2021-09-27_16h08.39.353,forced_choiceRT_color,2021.2.3,Win32,59.80861244,j,2.015,15,0,15,0,1,,,,,,,,,,,,,,,,
,,,,,,,,,,,,5f6e72f4f0d70a3c02af4ee6,2021-09-27_16h08.39.353,forced_choiceRT_color,2021.2.3,Win32,59.80861244,j,1.9827,16,0,16,0,1,,,,,,,,,,,,,,,,
,,,,,,,,,,,,5f6e72f4f0d70a3c02af4ee6,2021-09-27_16h08.39.353,forced_choiceRT_color,2021.2.3,Win32,59.80861244,f,1.9626,17,0,17,0,1,,,,,,,,,,,,,,,,
,,,,,,,,,,,,5f6e72f4f0d70a3c02af4ee6,2021-09-27_16h08.39.353,forced_choiceRT_color,2021.2.3,Win32,59.80861244,d,1.8895,18,0,18,0,1,,,,,,,,,,,,,,,,
,,,,,,,,,,,,5f6e72f4f0d70a3c02af4ee6,2021-09-27_16h08.39.353,forced_choiceRT_color,2021.2.3,Win32,59.80861244,d,1.8354,19,0,19,0,1,,,,,,,,,,,,,,,,
,1.5,,,,,,,,,k,purple,5f6e72f4f0d70a3c02af4ee6,2021-09-27_16h08.39.353,forced_choiceRT_color,2021.2.3,Win32,59.80861244,,,,,,,,1,Fast,long,j,0,1.7722,0,0,0,3,1,,,,,
,1.82,,,,,,,,,d,orange,5f6e72f4f0d70a3c02af4ee6,2021-09-27_16h08.39.353,forced_choiceRT_color,2021.2.3,Win32,59.80861244,,,,,,,,1,Slow,long,j,0,2.2422,0,1,1,0,1,,,,,
,0.77,,,,,,,,,d,orange,5f6e72f4f0d70a3c02af4ee6,2021-09-27_16h08.39.353,forced_choiceRT_color,2021.2.3,Win32,59.80861244,,,,,,,,1,Fast,long,d,1,1.5762,0,2,2,0,1,,,,,
,1.06,,,,,,,,,k,purple,5f6e72f4f0d70a3c02af4ee6,2021-09-27_16h08.39.353,forced_choiceRT_color,2021.2.3,Win32,59.80861244,,,,,,,,1,Fast,long,k,1,1.7547,0,3,3,3,1,,,,,
,1.63,,,,,,,,,j,red,5f6e72f4f0d70a3c02af4ee6,2021-09-27_16h08.39.353,forced_choiceRT_color,2021.2.3,Win32,59.80861244,,,,,,,,1,Ontime,long,j,1,2.0509,1,0,4,2,1,,,,,
,1.22,,,,,,,,,d,orange,5f6e72f4f0d70a3c02af4ee6,2021-09-27_16h08.39.353,forced_choiceRT_color,2021.2.3,Win32,59.80861244,,,,,,,,1,Ontime,long,d,1,1.9574,1,1,5,0,1,,,,,
,0.42,,,,,,,,,f,blue,5f6e72f4f0d70a3c02af4ee6,2021-09-27_16h08.39.353,forced_choiceRT_color,2021.2.3,Win32,59.80861244,,,,,,,,1,Fast,long,f,1,1.6556,1,2,6,1,1,,,,,
,1.56,,,,,,,,,d,orange,5f6e72f4f0d70a3c02af4ee6,2021-09-27_16h08.39.353,forced_choiceRT_color,2021.2.3,Win32,59.80861244,,,,,,,,1,Slow,long,d,1,2.1031,1,3,7,0,1,,,,,
,1.2,,,,,,,,,f,blue,5f6e72f4f0d70a3c02af4ee6,2021-09-27_16h08.39.353,forced_choiceRT_color,2021.2.3,Win32,59.80861244,,,,,,,,1,Slow,long,f,1,2.1094,2,0,8,1,1,,,,,
,0.15,,,,,,,,,f,blue,5f6e72f4f0d70a3c02af4ee6,2021-09-27_16h08.39.353,forced_choiceRT_color,2021.2.3,Win32,59.80861244,,,,,,,,1,Ontime,long,f,1,2.032,2,1,9,1,1,,,,,
,0.53,,,,,,,,,j,red,5f6e72f4f0d70a3c02af4ee6,2021-09-27_16h08.39.353,forced_choiceRT_color,2021.2.3,Win32,59.80861244,,,,,,,,1,Ontime,long,j,1,2.0182,2,2,10,2,1,,,,,
,1.68,,,,,,,,,k,purple,5f6e72f4f0d70a3c02af4ee6,2021-09-27_16h08.39.353,forced_choiceRT_color,2021.2.3,Win32,59.80861244,,,,,,,,1,Slow,long,k,1,2.1828,2,3,11,3,1,,,,,
,0.76,,,,,,,,,d,orange,5f6e72f4f0d70a3c02af4ee6,2021-09-27_16h08.39.353,forced_choiceRT_color,2021.2.3,Win32,59.80861244,,,,,,,,1,Ontime,long,d,1,1.9637,3,0,12,0,1,,,,,
,1.85,,,,,,,,,f,blue,5f6e72f4f0d70a3c02af4ee6,2021-09-27_16h08.39.353,forced_choiceRT_color,2021.2.3,Win32,59.80861244,,,,,,,,1,Slow,long,k,0,2.2022,3,1,13,1,1,,,,,
,1.66,,,,,,,,,d,orange,5f6e72f4f0d70a3c02af4ee6,2021-09-27_16h08.39.353,forced_choiceRT_color,2021.2.3,Win32,59.80861244,,,,,,,,1,Slow,long,d,1,2.2418,3,2,14,0,1,,,,,
,0.1,,,,,,,,,j,red,5f6e72f4f0d70a3c02af4ee6,2021-09-27_16h08.39.353,forced_choiceRT_color,2021.2.3,Win32,59.80861244,,,,,,,,1,Ontime,long,j,1,1.9508,3,3,15,2,1,,,,,
,1.19,,,,,,,,,k,purple,5f6e72f4f0d70a3c02af4ee6,2021-09-27_16h08.39.353,forced_choiceRT_color,2021.2.3,Win32,59.80861244,,,,,,,,1,Ontime,long,k,1,2.0184,4,0,16,3,1,,,,,
,0.66,,,,,,,,,j,red,5f6e72f4f0d70a3c02af4ee6,2021-09-27_16h08.39.353,forced_choiceRT_color,2021.2.3,Win32,59.80861244,,,,,,,,1,Ontime,long,j,1,1.9662,4,1,17,2,1,,,,,
,1.4,,,,,,,,,f,blue,5f6e72f4f0d70a3c02af4ee6,2021-09-27_16h08.39.353,forced_choiceRT_color,2021.2.3,Win32,59.80861244,,,,,,,,1,Slow,long,f,1,2.1791,4,2,18,1,1,,,,,
,0.86,,,,,,,,,j,red,5f6e72f4f0d70a3c02af4ee6,2021-09-27_16h08.39.353,forced_choiceRT_color,2021.2.3,Win32,59.80861244,,,,,,,,1,Ontime,long,j,1,2.0343,4,3,19,2,1,,,,,
,0.65,,,,,,,,,f,blue,5f6e72f4f0d70a3c02af4ee6,2021-09-27_16h08.39.353,forced_choiceRT_color,2021.2.3,Win32,59.80861244,,,,,,,,1,Ontime,long,f,1,2.0592,5,0,20,1,1,,,,,
,1.93,,,,,,,,,j,red,5f6e72f4f0d70a3c02af4ee6,2021-09-27_16h08.39.353,forced_choiceRT_color,2021.2.3,Win32,59.80861244,,,,,,,,1,Slow,long,j,1,2.4097,5,1,21,2,1,,,,,
,1.38,,,,,,,,,k,purple,5f6e72f4f0d70a3c02af4ee6,2021-09-27_16h08.39.353,forced_choiceRT_color,2021.2.3,Win32,59.80861244,,,,,,,,1,Slow,long,k,1,2.1224,5,2,22,3,1,,,,,
,1.27,,,,,,,,,j,red,5f6e72f4f0d70a3c02af4ee6,2021-09-27_16h08.39.353,forced_choiceRT_color,2021.2.3,Win32,59.80861244,,,,,,,,1,Slow,long,j,1,2.1263,5,3,23,2,1,,,,,
,1.54,,,,,,,,,j,red,5f6e72f4f0d70a3c02af4ee6,2021-09-27_16h08.39.353,forced_choiceRT_color,2021.2.3,Win32,59.80861244,,,,,,,,1,Ontime,long,j,1,2.0433,6,0,24,2,1,,,,,
,1.21,,,,,,,,,f,blue,5f6e72f4f0d70a3c02af4ee6,2021-09-27_16h08.39.353,forced_choiceRT_color,2021.2.3,Win32,59.80861244,,,,,,,,1,Ontime,long,f,1,1.9895,6,1,25,1,1,,,,,
,1.15,,,,,,,,,f,blue,5f6e72f4f0d70a3c02af4ee6,2021-09-27_16h08.39.353,forced_choiceRT_color,2021.2.3,Win32,59.80861244,,,,,,,,1,Ontime,long,f,1,2.0813,6,2,26,1,1,,,,,
,1.29,,,,,,,,,k,purple,5f6e72f4f0d70a3c02af4ee6,2021-09-27_16h08.39.353,forced_choiceRT_color,2021.2.3,Win32,59.80861244,,,,,,,,1,Slow,long,k,1,2.1087,6,3,27,3,1,,,,,
,1.15,,,,,,,,,d,orange,5f6e72f4f0d70a3c02af4ee6,2021-09-27_16h08.39.353,forced_choiceRT_color,2021.2.3,Win32,59.80861244,,,,,,,,1,Ontime,long,d,1,1.9721,7,0,28,0,1,,,,,
,0.9,,,,,,,,,j,red,5f6e72f4f0d70a3c02af4ee6,2021-09-27_16h08.39.353,forced_choiceRT_color,2021.2.3,Win32,59.80861244,,,,,,,,1,Ontime,long,j,1,1.9852,7,1,29,2,1,,,,,
,0.46,,,,,,,,,f,blue,5f6e72f4f0d70a3c02af4ee6,2021-09-27_16h08.39.353,forced_choiceRT_color,2021.2.3,Win32,59.80861244,,,,,,,,1,Ontime,long,f,1,2.0043,7,2,30,1,1,,,,,
,1,,,,,,,,,k,purple,5f6e72f4f0d70a3c02af4ee6,2021-09-27_16h08.39.353,forced_choiceRT_color,2021.2.3,Win32,59.80861244,,,,,,,,1,Slow,long,k,1,2.1403,7,3,31,3,1,,,,,
,1.41,,,,,,,,,k,purple,5f6e72f4f0d70a3c02af4ee6,2021-09-27_16h08.39.353,forced_choiceRT_color,2021.2.3,Win32,59.80861244,,,,,,,,1,Ontime,long,k,1,2.0453,8,0,32,3,1,,,,,
,0.29,,,,,,,,,d,orange,5f6e72f4f0d70a3c02af4ee6,2021-09-27_16h08.39.353,forced_choiceRT_color,2021.2.3,Win32,59.80861244,,,,,,,,1,Ontime,long,d,1,2.0682,8,1,33,0,1,,,,,
,1.23,,,,,,,,,k,purple,5f6e72f4f0d70a3c02af4ee6,2021-09-27_16h08.39.353,forced_choiceRT_color,2021.2.3,Win32,59.80861244,,,,,,,,1,Ontime,long,k,1,1.9967,8,2,34,3,1,,,,,
,1.5,,,,,,,,,d,orange,5f6e72f4f0d70a3c02af4ee6,2021-09-27_16h08.39.353,forced_choiceRT_color,2021.2.3,Win32,59.80861244,,,,,,,,1,Ontime,long,d,1,2.0853,8,3,35,0,1,,,,,
,0.88,,,,,,,,,k,purple,5f6e72f4f0d70a3c02af4ee6,2021-09-27_16h08.39.353,forced_choiceRT_color,2021.2.3,Win32,59.80861244,,,,,,,,1,Slow,long,k,1,2.1246,9,0,36,3,1,,,,,
,1.36,,,,,,,,,d,orange,5f6e72f4f0d70a3c02af4ee6,2021-09-27_16h08.39.353,forced_choiceRT_color,2021.2.3,Win32,59.80861244,,,,,,,,1,Ontime,long,d,1,2.0487,9,1,37,0,1,,,,,
,1.77,,,,,,,,,j,red,5f6e72f4f0d70a3c02af4ee6,2021-09-27_16h08.39.353,forced_choiceRT_color,2021.2.3,Win32,59.80861244,,,,,,,,1,Slow,long,j,1,2.2654,9,2,38,2,1,,,,,
,0.3,,,,,,,,,f,blue,5f6e72f4f0d70a3c02af4ee6,2021-09-27_16h08.39.353,forced_choiceRT_color,2021.2.3,Win32,59.80861244,,,,,,,,1,Ontime,long,f,1,2.0255,9,3,39,1,1,,,,,
,,,,,,,,,,,,5f6e72f4f0d70a3c02af4ee6,2021-09-27_16h08.39.353,forced_choiceRT_color,2021.2.3,Win32,59.80861244,,,,,,,,,,,,,,,,,,,0,0,0,0,1
,0.36,,,,,,,,,d,orange,5f6e72f4f0d70a3c02af4ee6,2021-09-27_16h08.39.353,forced_choiceRT_color,2021.2.3,Win32,59.80861244,,,,,,,,2,Fast,long,d,1,1.8571,0,0,0,0,1,,,,,
,0.75,,,,,,,,,j,red,5f6e72f4f0d70a3c02af4ee6,2021-09-27_16h08.39.353,forced_choiceRT_color,2021.2.3,Win32,59.80861244,,,,,,,,2,Fast,long,j,1,1.8039,0,1,1,2,1,,,,,
,0.3,,,,,,,,,d,orange,5f6e72f4f0d70a3c02af4ee6,2021-09-27_16h08.39.353,forced_choiceRT_color,2021.2.3,Win32,59.80861244,,,,,,,,2,Ontime,long,d,1,2.093,0,2,2,0,1,,,,,
,0.19,,,,,,,,,j,red,5f6e72f4f0d70a3c02af4ee6,2021-09-27_16h08.39.353,forced_choiceRT_color,2021.2.3,Win32,59.80861244,,,,,,,,2,Ontime,long,j,1,2.0765,0,3,3,2,1,,,,,
,1.34,,,,,,,,,j,red,5f6e72f4f0d70a3c02af4ee6,2021-09-27_16h08.39.353,forced_choiceRT_color,2021.2.3,Win32,59.80861244,,,,,,,,2,Ontime,long,j,1,2.0165,1,0,4,2,1,,,,,
,1.87,,,,,,,,,j,red,5f6e72f4f0d70a3c02af4ee6,2021-09-27_16h08.39.353,forced_choiceRT_color,2021.2.3,Win32,59.80861244,,,,,,,,2,Slow,long,j,1,2.3057,1,1,5,2,1,,,,,
,0.49,,,,,,,,,k,purple,5f6e72f4f0d70a3c02af4ee6,2021-09-27_16h08.39.353,forced_choiceRT_color,2021.2.3,Win32,59.80861244,,,,,,,,2,Slow,long,k,1,2.1017,1,2,6,3,1,,,,,
,1.31,,,,,,,,,f,blue,5f6e72f4f0d70a3c02af4ee6,2021-09-27_16h08.39.353,forced_choiceRT_color,2021.2.3,Win32,59.80861244,,,,,,,,2,Ontime,long,d,0,2.0745,1,3,7,1,1,,,,,
,0.65,,,,,,,,,d,orange,5f6e72f4f0d70a3c02af4ee6,2021-09-27_16h08.39.353,forced_choiceRT_color,2021.2.3,Win32,59.80861244,,,,,,,,2,Slow,long,d,1,2.1281,2,0,8,0,1,,,,,
,1.66,,,,,,,,,d,orange,5f6e72f4f0d70a3c02af4ee6,2021-09-27_16h08.39.353,forced_choiceRT_color,2021.2.3,Win32,59.80861244,,,,,,,,2,Slow,long,d,1,2.1652,2,1,9,0,1,,,,,
,1.87,,,,,,,,,f,blue,5f6e72f4f0d70a3c02af4ee6,2021-09-27_16h08.39.353,forced_choiceRT_color,2021.2.3,Win32,59.80861244,,,,,,,,2,Slow,long,f,1,2.1917,2,2,10,1,1,,,,,
,1.03,,,,,,,,,f,blue,5f6e72f4f0d70a3c02af4ee6,2021-09-27_16h08.39.353,forced_choiceRT_color,2021.2.3,Win32,59.80861244,,,,,,,,2,Ontime,long,f,1,2.0436,2,3,11,1,1,,,,,
,1.66,,,,,,,,,d,orange,5f6e72f4f0d70a3c02af4ee6,2021-09-27_16h08.39.353,forced_choiceRT_color,2021.2.3,Win32,59.80861244,,,,,,,,2,Ontime,long,j,0,2.0804,3,0,12,0,1,,,,,
,1.9,,,,,,,,,f,blue,5f6e72f4f0d70a3c02af4ee6,2021-09-27_16h08.39.353,forced_choiceRT_color,2021.2.3,Win32,59.80861244,,,,,,,,2,Slow,long,d,0,2.1569,3,1,13,1,1,,,,,
,0.06,,,,,,,,,d,orange,5f6e72f4f0d70a3c02af4ee6,2021-09-27_16h08.39.353,forced_choiceRT_color,2021.2.3,Win32,59.80861244,,,,,,,,2,Ontime,long,d,1,2.0278,3,2,14,0,1,,,,,
,0.81,,,,,,,,,k,purple,5f6e72f4f0d70a3c02af4ee6,2021-09-27_16h08.39.353,forced_choiceRT_color,2021.2.3,Win32,59.80861244,,,,,,,,2,Ontime,long,k,1,2.0834,3,3,15,3,1,,,,,
,0.06,,,,,,,,,k,purple,5f6e72f4f0d70a3c02af4ee6,2021-09-27_16h08.39.353,forced_choiceRT_color,2021.2.3,Win32,59.80861244,,,,,,,,2,Slow,long,k,1,2.1565,4,0,16,3,1,,,,,
,1.67,,,,,,,,,k,purple,5f6e72f4f0d70a3c02af4ee6,2021-09-27_16h08.39.353,forced_choiceRT_color,2021.2.3,Win32,59.80861244,,,,,,,,2,Slow,long,k,1,2.215,4,1,17,3,1,,,,,
,1.99,,,,,,,,,j,red,5f6e72f4f0d70a3c02af4ee6,2021-09-27_16h08.39.353,forced_choiceRT_color,2021.2.3,Win32,59.80861244,,,,,,,,2,Slow,long,j,1,2.2319,4,2,18,2,1,,,,,
,1.15,,,,,,,,,d,orange,5f6e72f4f0d70a3c02af4ee6,2021-09-27_16h08.39.353,forced_choiceRT_color,2021.2.3,Win32,59.80861244,,,,,,,,2,Ontime,long,d,1,1.9518,4,3,19,0,1,,,,,
,1.65,,,,,,,,,d,orange,5f6e72f4f0d70a3c02af4ee6,2021-09-27_16h08.39.353,forced_choiceRT_color,2021.2.3,Win32,59.80861244,,,,,,,,2,Slow,long,d,1,2.1829,5,0,20,0,1,,,,,
,0.85,,,,,,,,,f,blue,5f6e72f4f0d70a3c02af4ee6,2021-09-27_16h08.39.353,forced_choiceRT_color,2021.2.3,Win32,59.80861244,,,,,,,,2,Slow,long,f,1,2.102,5,1,21,1,1,,,,,
,0.52,,,,,,,,,f,blue,5f6e72f4f0d70a3c02af4ee6,2021-09-27_16h08.39.353,forced_choiceRT_color,2021.2.3,Win32,59.80861244,,,,,,,,2,Ontime,long,f,1,2.0141,5,2,22,1,1,,,,,
,1.6,,,,,,,,,k,purple,5f6e72f4f0d70a3c02af4ee6,2021-09-27_16h08.39.353,forced_choiceRT_color,2021.2.3,Win32,59.80861244,,,,,,,,2,Slow,long,d,0,2.1028,5,3,23,3,1,,,,,
,0.01,,,,,,,,,k,purple,5f6e72f4f0d70a3c02af4ee6,2021-09-27_16h08.39.353,forced_choiceRT_color,2021.2.3,Win32,59.80861244,,,,,,,,2,Ontime,long,k,1,2.0826,6,0,24,3,1,,,,,
,1.36,,,,,,,,,k,purple,5f6e72f4f0d70a3c02af4ee6,2021-09-27_16h08.39.353,forced_choiceRT_color,2021.2.3,Win32,59.80861244,,,,,,,,2,Ontime,long,k,1,2.0076,6,1,25,3,1,,,,,
,0.49,,,,,,,,,j,red,5f6e72f4f0d70a3c02af4ee6,2021-09-27_16h08.39.353,forced_choiceRT_color,2021.2.3,Win32,59.80861244,,,,,,,,2,Slow,long,j,1,2.1034,6,2,26,2,1,,,,,
,1.1,,,,,,,,,j,red,5f6e72f4f0d70a3c02af4ee6,2021-09-27_16h08.39.353,forced_choiceRT_color,2021.2.3,Win32,59.80861244,,,,,,,,2,Slow,long,j,1,2.1033,6,3,27,2,1,,,,,
,1.18,,,,,,,,,d,orange,5f6e72f4f0d70a3c02af4ee6,2021-09-27_16h08.39.353,forced_choiceRT_color,2021.2.3,Win32,59.80861244,,,,,,,,2,Ontime,long,d,1,2.0097,7,0,28,0,1,,,,,
,0.72,,,,,,,,,j,red,5f6e72f4f0d70a3c02af4ee6,2021-09-27_16h08.39.353,forced_choiceRT_color,2021.2.3,Win32,59.80861244,,,,,,,,2,Ontime,long,j,1,1.9992,7,1,29,2,1,,,,,
,0.08,,,,,,,,,f,blue,5f6e72f4f0d70a3c02af4ee6,2021-09-27_16h08.39.353,forced_choiceRT_color,2021.2.3,Win32,59.80861244,,,,,,,,2,Ontime,long,f,1,2.0574,7,2,30,1,1,,,,,
,1.7,,,,,,,,,f,blue,5f6e72f4f0d70a3c02af4ee6,2021-09-27_16h08.39.353,forced_choiceRT_color,2021.2.3,Win32,59.80861244,,,,,,,,2,Slow,long,j,0,2.1669,7,3,31,1,1,,,,,
,1.45,,,,,,,,,f,blue,5f6e72f4f0d70a3c02af4ee6,2021-09-27_16h08.39.353,forced_choiceRT_color,2021.2.3,Win32,59.80861244,,,,,,,,2,Ontime,long,f,1,2.0679,8,0,32,1,1,,,,,
,1.19,,,,,,,,,d,orange,5f6e72f4f0d70a3c02af4ee6,2021-09-27_16h08.39.353,forced_choiceRT_color,2021.2.3,Win32,59.80861244,,,,,,,,2,Ontime,long,d,1,2.0294,8,1,33,0,1,,,,,
,1.51,,,,,,,,,f,blue,5f6e72f4f0d70a3c02af4ee6,2021-09-27_16h08.39.353,forced_choiceRT_color,2021.2.3,Win32,59.80861244,,,,,,,,2,Slow,long,f,1,2.176,8,2,34,1,1,,,,,
,0.57,,,,,,,,,k,purple,5f6e72f4f0d70a3c02af4ee6,2021-09-27_16h08.39.353,forced_choiceRT_color,2021.2.3,Win32,59.80861244,,,,,,,,2,Ontime,long,k,1,2.0732,8,3,35,3,1,,,,,
,0.38,,,,,,,,,k,purple,5f6e72f4f0d70a3c02af4ee6,2021-09-27_16h08.39.353,forced_choiceRT_color,2021.2.3,Win32,59.80861244,,,,,,,,2,Ontime,long,k,1,2.0631,9,0,36,3,1,,,,,
,0.39,,,,,,,,,k,purple,5f6e72f4f0d70a3c02af4ee6,2021-09-27_16h08.39.353,forced_choiceRT_color,2021.2.3,Win32,59.80861244,,,,,,,,2,Slow,long,k,1,2.1472,9,1,37,3,1,,,,,
,0.55,,,,,,,,,j,red,5f6e72f4f0d70a3c02af4ee6,2021-09-27_16h08.39.353,forced_choiceRT_color,2021.2.3,Win32,59.80861244,,,,,,,,2,Slow,long,j,1,2.1035,9,2,38,2,1,,,,,
,1.38,,,,,,,,,j,red,5f6e72f4f0d70a3c02af4ee6,2021-09-27_16h08.39.353,forced_choiceRT_color,2021.2.3,Win32,59.80861244,,,,,,,,2,Ontime,long,j,1,2.0238,9,3,39,2,1,,,,,
,,,,,,,,,,,,5f6e72f4f0d70a3c02af4ee6,2021-09-27_16h08.39.353,forced_choiceRT_color,2021.2.3,Win32,59.80861244,,,,,,,,,,,,,,,,,,,1,0,1,0,1
,1.96,,,,,,,,,k,purple,5f6e72f4f0d70a3c02af4ee6,2021-09-27_16h08.39.353,forced_choiceRT_color,2021.2.3,Win32,59.80861244,,,,,,,,3,Slow,long,j,0,2.2472,0,0,0,3,1,,,,,
,0.24,,,,,,,,,f,blue,5f6e72f4f0d70a3c02af4ee6,2021-09-27_16h08.39.353,forced_choiceRT_color,2021.2.3,Win32,59.80861244,,,,,,,,3,Ontime,long,f,1,1.9754,0,1,1,1,1,,,,,
,0.06,,,,,,,,,d,orange,5f6e72f4f0d70a3c02af4ee6,2021-09-27_16h08.39.353,forced_choiceRT_color,2021.2.3,Win32,59.80861244,,,,,,,,3,Ontime,long,d,1,2.0449,0,2,2,0,1,,,,,
,1.18,,,,,,,,,f,blue,5f6e72f4f0d70a3c02af4ee6,2021-09-27_16h08.39.353,forced_choiceRT_color,2021.2.3,Win32,59.80861244,,,,,,,,3,Ontime,long,f,1,2.0609,0,3,3,1,1,,,,,
,0.3,,,,,,,,,j,red,5f6e72f4f0d70a3c02af4ee6,2021-09-27_16h08.39.353,forced_choiceRT_color,2021.2.3,Win32,59.80861244,,,,,,,,3,Ontime,long,j,1,2.0023,1,0,4,2,1,,,,,
,0.64,,,,,,,,,f,blue,5f6e72f4f0d70a3c02af4ee6,2021-09-27_16h08.39.353,forced_choiceRT_color,2021.2.3,Win32,59.80861244,,,,,,,,3,Ontime,long,f,1,2.0772,1,1,5,1,1,,,,,
,1.58,,,,,,,,,k,purple,5f6e72f4f0d70a3c02af4ee6,2021-09-27_16h08.39.353,forced_choiceRT_color,2021.2.3,Win32,59.80861244,,,,,,,,3,Ontime,long,k,1,2.0011,1,2,6,3,1,,,,,
,1.01,,,,,,,,,j,red,5f6e72f4f0d70a3c02af4ee6,2021-09-27_16h08.39.353,forced_choiceRT_color,2021.2.3,Win32,59.80861244,,,,,,,,3,Slow,long,j,1,2.1194,1,3,7,2,1,,,,,
,1.1,,,,,,,,,k,purple,5f6e72f4f0d70a3c02af4ee6,2021-09-27_16h08.39.353,forced_choiceRT_color,2021.2.3,Win32,59.80861244,,,,,,,,3,Slow,long,k,1,2.1093,2,0,8,3,1,,,,,
,0.33,,,,,,,,,d,orange,5f6e72f4f0d70a3c02af4ee6,2021-09-27_16h08.39.353,forced_choiceRT_color,2021.2.3,Win32,59.80861244,,,,,,,,3,Ontime,long,d,1,2.0383,2,1,9,0,1,,,,,
,0.52,,,,,,,,,k,purple,5f6e72f4f0d70a3c02af4ee6,2021-09-27_16h08.39.353,forced_choiceRT_color,2021.2.3,Win32,59.80861244,,,,,,,,3,Ontime,long,k,1,2.0946,2,2,10,3,1,,,,,
,1.05,,,,,,,,,d,orange,5f6e72f4f0d70a3c02af4ee6,2021-09-27_16h08.39.353,forced_choiceRT_color,2021.2.3,Win32,59.80861244,,,,,,,,3,Ontime,long,d,1,1.9138,2,3,11,0,1,,,,,
,0.5,,,,,,,,,j,red,5f6e72f4f0d70a3c02af4ee6,2021-09-27_16h08.39.353,forced_choiceRT_color,2021.2.3,Win32,59.80861244,,,,,,,,3,Ontime,long,j,1,2.0095,3,0,12,2,1,,,,,
,0.36,,,,,,,,,k,purple,5f6e72f4f0d70a3c02af4ee6,2021-09-27_16h08.39.353,forced_choiceRT_color,2021.2.3,Win32,59.80861244,,,,,,,,3,Ontime,long,k,1,2.0462,3,1,13,3,1,,,,,
,0.34,,,,,,,,,k,purple,5f6e72f4f0d70a3c02af4ee6,2021-09-27_16h08.39.353,forced_choiceRT_color,2021.2.3,Win32,59.80861244,,,,,,,,3,Ontime,long,k,1,2.0946,3,2,14,3,1,,,,,
,0.35,,,,,,,,,f,blue,5f6e72f4f0d70a3c02af4ee6,2021-09-27_16h08.39.353,forced_choiceRT_color,2021.2.3,Win32,59.80861244,,,,,,,,3,Ontime,long,f,1,2.0693,3,3,15,1,1,,,,,
,0.62,,,,,,,,,d,orange,5f6e72f4f0d70a3c02af4ee6,2021-09-27_16h08.39.353,forced_choiceRT_color,2021.2.3,Win32,59.80861244,,,,,,,,3,Ontime,long,d,1,2.0321,4,0,16,0,1,,,,,
,0.09,,,,,,,,,d,orange,5f6e72f4f0d70a3c02af4ee6,2021-09-27_16h08.39.353,forced_choiceRT_color,2021.2.3,Win32,59.80861244,,,,,,,,3,Ontime,long,d,1,1.997,4,1,17,0,1,,,,,
,1.51,,,,,,,,,f,blue,5f6e72f4f0d70a3c02af4ee6,2021-09-27_16h08.39.353,forced_choiceRT_color,2021.2.3,Win32,59.80861244,,,,,,,,3,Slow,long,j,0,2.1606,4,2,18,1,1,,,,,
,1.78,,,,,,,,,j,red,5f6e72f4f0d70a3c02af4ee6,2021-09-27_16h08.39.353,forced_choiceRT_color,2021.2.3,Win32,59.80861244,,,,,,,,3,Slow,long,j,1,2.115,4,3,19,2,1,,,,,
,1.66,,,,,,,,,d,orange,5f6e72f4f0d70a3c02af4ee6,2021-09-27_16h08.39.353,forced_choiceRT_color,2021.2.3,Win32,59.80861244,,,,,,,,3,Slow,long,d,1,2.1014,5,0,20,0,1,,,,,
,1.59,,,,,,,,,k,purple,5f6e72f4f0d70a3c02af4ee6,2021-09-27_16h08.39.353,forced_choiceRT_color,2021.2.3,Win32,59.80861244,,,,,,,,3,Slow,long,k,1,2.1227,5,1,21,3,1,,,,,
,0.74,,,,,,,,,j,red,5f6e72f4f0d70a3c02af4ee6,2021-09-27_16h08.39.353,forced_choiceRT_color,2021.2.3,Win32,59.80861244,,,,,,,,3,Slow,long,j,1,2.1029,5,2,22,2,1,,,,,
,0.25,,,,,,,,,j,red,5f6e72f4f0d70a3c02af4ee6,2021-09-27_16h08.39.353,forced_choiceRT_color,2021.2.3,Win32,59.80861244,,,,,,,,3,Ontime,long,j,1,1.9732,5,3,23,2,1,,,,,
,1.49,,,,,,,,,k,purple,5f6e72f4f0d70a3c02af4ee6,2021-09-27_16h08.39.353,forced_choiceRT_color,2021.2.3,Win32,59.80861244,,,,,,,,3,Slow,long,k,1,2.1161,6,0,24,3,1,,,,,
,0.1,,,,,,,,,d,orange,5f6e72f4f0d70a3c02af4ee6,2021-09-27_16h08.39.353,forced_choiceRT_color,2021.2.3,Win32,59.80861244,,,,,,,,3,Ontime,long,d,1,2.0188,6,1,25,0,1,,,,,
,0.74,,,,,,,,,f,blue,5f6e72f4f0d70a3c02af4ee6,2021-09-27_16h08.39.353,forced_choiceRT_color,2021.2.3,Win32,59.80861244,,,,,,,,3,Ontime,long,f,1,2.0673,6,2,26,1,1,,,,,
,1.2,,,,,,,,,j,red,5f6e72f4f0d70a3c02af4ee6,2021-09-27_16h08.39.353,forced_choiceRT_color,2021.2.3,Win32,59.80861244,,,,,,,,3,Ontime,long,j,1,1.9831,6,3,27,2,1,,,,,
,1.53,,,,,,,,,k,purple,5f6e72f4f0d70a3c02af4ee6,2021-09-27_16h08.39.353,forced_choiceRT_color,2021.2.3,Win32,59.80861244,,,,,,,,3,Ontime,long,k,1,1.955,7,0,28,3,1,,,,,
,1.51,,,,,,,,,f,blue,5f6e72f4f0d70a3c02af4ee6,2021-09-27_16h08.39.353,forced_choiceRT_color,2021.2.3,Win32,59.80861244,,,,,,,,3,Ontime,long,f,1,2.092,7,1,29,1,1,,,,,
,1.13,,,,,,,,,f,blue,5f6e72f4f0d70a3c02af4ee6,2021-09-27_16h08.39.353,forced_choiceRT_color,2021.2.3,Win32,59.80861244,,,,,,,,3,Fast,long,f,1,1.8152,7,2,30,1,1,,,,,
,1.65,,,,,,,,,j,red,5f6e72f4f0d70a3c02af4ee6,2021-09-27_16h08.39.353,forced_choiceRT_color,2021.2.3,Win32,59.80861244,,,,,,,,3,Ontime,long,k,0,2.0361,7,3,31,2,1,,,,,
,1.33,,,,,,,,,d,orange,5f6e72f4f0d70a3c02af4ee6,2021-09-27_16h08.39.353,forced_choiceRT_color,2021.2.3,Win32,59.80861244,,,,,,,,3,Ontime,long,d,1,1.9783,8,0,32,0,1,,,,,
,1.79,,,,,,,,,d,orange,5f6e72f4f0d70a3c02af4ee6,2021-09-27_16h08.39.353,forced_choiceRT_color,2021.2.3,Win32,59.80861244,,,,,,,,3,Slow,long,f,0,2.1737,8,1,33,0,1,,,,,
,0.12,,,,,,,,,d,orange,5f6e72f4f0d70a3c02af4ee6,2021-09-27_16h08.39.353,forced_choiceRT_color,2021.2.3,Win32,59.80861244,,,,,,,,3,Ontime,long,d,1,2.0361,8,2,34,0,1,,,,,
,0.14,,,,,,,,,f,blue,5f6e72f4f0d70a3c02af4ee6,2021-09-27_16h08.39.353,forced_choiceRT_color,2021.2.3,Win32,59.80861244,,,,,,,,3,Ontime,long,f,1,2.0552,8,3,35,1,1,,,,,
,0.19,,,,,,,,,k,purple,5f6e72f4f0d70a3c02af4ee6,2021-09-27_16h08.39.353,forced_choiceRT_color,2021.2.3,Win32,59.80861244,,,,,,,,3,Slow,long,k,1,2.1286,9,0,36,3,1,,,,,
,0.52,,,,,,,,,j,red,5f6e72f4f0d70a3c02af4ee6,2021-09-27_16h08.39.353,forced_choiceRT_color,2021.2.3,Win32,59.80861244,,,,,,,,3,Ontime,long,j,1,2.0328,9,1,37,2,1,,,,,
,1.33,,,,,,,,,j,red,5f6e72f4f0d70a3c02af4ee6,2021-09-27_16h08.39.353,forced_choiceRT_color,2021.2.3,Win32,59.80861244,,,,,,,,3,Ontime,long,j,1,1.9842,9,2,38,2,1,,,,,
,0.89,,,,,,,,,f,blue,5f6e72f4f0d70a3c02af4ee6,2021-09-27_16h08.39.353,forced_choiceRT_color,2021.2.3,Win32,59.80861244,,,,,,,,3,Ontime,long,f,1,2.0632,9,3,39,1,1,,,,,
,,,,,,,,,,,,5f6e72f4f0d70a3c02af4ee6,2021-09-27_16h08.39.353,forced_choiceRT_color,2021.2.3,Win32,59.80861244,,,,,,,,,,,,,,,,,,,2,0,2,0,1
,1.97,,,,,,,,,j,red,5f6e72f4f0d70a3c02af4ee6,2021-09-27_16h08.39.353,forced_choiceRT_color,2021.2.3,Win32,59.80861244,,,,,,,,4,Slow,long,j,1,2.3929,0,0,0,2,1,,,,,
,0.95,,,,,,,,,d,orange,5f6e72f4f0d70a3c02af4ee6,2021-09-27_16h08.39.353,forced_choiceRT_color,2021.2.3,Win32,59.80861244,,,,,,,,4,Fast,long,d,1,1.825,0,1,1,0,1,,,,,
,0.37,,,,,,,,,d,orange,5f6e72f4f0d70a3c02af4ee6,2021-09-27_16h08.39.353,forced_choiceRT_color,2021.2.3,Win32,59.80861244,,,,,,,,4,Ontime,long,d,1,2.035,0,2,2,0,1,,,,,
,1.17,,,,,,,,,f,blue,5f6e72f4f0d70a3c02af4ee6,2021-09-27_16h08.39.353,forced_choiceRT_color,2021.2.3,Win32,59.80861244,,,,,,,,4,Ontime,long,f,1,2.0269,0,3,3,1,1,,,,,
,0.94,,,,,,,,,d,orange,5f6e72f4f0d70a3c02af4ee6,2021-09-27_16h08.39.353,forced_choiceRT_color,2021.2.3,Win32,59.80861244,,,,,,,,4,Slow,long,d,1,2.154,1,0,4,0,1,,,,,
,0.64,,,,,,,,,f,blue,5f6e72f4f0d70a3c02af4ee6,2021-09-27_16h08.39.353,forced_choiceRT_color,2021.2.3,Win32,59.80861244,,,,,,,,4,Ontime,long,f,1,2.0469,1,1,5,1,1,,,,,
,1.89,,,,,,,,,k,purple,5f6e72f4f0d70a3c02af4ee6,2021-09-27_16h08.39.353,forced_choiceRT_color,2021.2.3,Win32,59.80861244,,,,,,,,4,Slow,long,k,1,2.1459,1,2,6,3,1,,,,,
,0.79,,,,,,,,,d,orange,5f6e72f4f0d70a3c02af4ee6,2021-09-27_16h08.39.353,forced_choiceRT_color,2021.2.3,Win32,59.80861244,,,,,,,,4,Ontime,long,d,1,2.0699,1,3,7,0,1,,,,,
,0.71,,,,,,,,,d,orange,5f6e72f4f0d70a3c02af4ee6,2021-09-27_16h08.39.353,forced_choiceRT_color,2021.2.3,Win32,59.80861244,,,,,,,,4,Ontime,long,d,1,2.0475,2,0,8,0,1,,,,,
,1.6,,,,,,,,,j,red,5f6e72f4f0d70a3c02af4ee6,2021-09-27_16h08.39.353,forced_choiceRT_color,2021.2.3,Win32,59.80861244,,,,,,,,4,Slow,long,j,1,2.1589,2,1,9,2,1,,,,,
,0.01,,,,,,,,,k,purple,5f6e72f4f0d70a3c02af4ee6,2021-09-27_16h08.39.353,forced_choiceRT_color,2021.2.3,Win32,59.80861244,,,,,,,,4,Ontime,long,k,1,2.0658,2,2,10,3,1,,,,,
,0.69,,,,,,,,,d,orange,5f6e72f4f0d70a3c02af4ee6,2021-09-27_16h08.39.353,forced_choiceRT_color,2021.2.3,Win32,59.80861244,,,,,,,,4,Slow,long,d,1,2.1088,2,3,11,0,1,,,,,
,0.61,,,,,,,,,k,purple,5f6e72f4f0d70a3c02af4ee6,2021-09-27_16h08.39.353,forced_choiceRT_color,2021.2.3,Win32,59.80861244,,,,,,,,4,Ontime,long,k,1,2.0428,3,0,12,3,1,,,,,
,1.6,,,,,,,,,k,purple,5f6e72f4f0d70a3c02af4ee6,2021-09-27_16h08.39.353,forced_choiceRT_color,2021.2.3,Win32,59.80861244,,,,,,,,4,Slow,long,k,1,2.1272,3,1,13,3,1,,,,,
,0.3,,,,,,,,,k,purple,5f6e72f4f0d70a3c02af4ee6,2021-09-27_16h08.39.353,forced_choiceRT_color,2021.2.3,Win32,59.80861244,,,,,,,,4,Slow,long,k,1,2.1171,3,2,14,3,1,,,,,
,1.33,,,,,,,,,k,purple,5f6e72f4f0d70a3c02af4ee6,2021-09-27_16h08.39.353,forced_choiceRT_color,2021.2.3,Win32,59.80861244,,,,,,,,4,Ontime,long,k,1,2.0238,3,3,15,3,1,,,,,
,0.88,,,,,,,,,f,blue,5f6e72f4f0d70a3c02af4ee6,2021-09-27_16h08.39.353,forced_choiceRT_color,2021.2.3,Win32,59.80861244,,,,,,,,4,Ontime,long,f,1,2.0337,4,0,16,1,1,,,,,
,0.36,,,,,,,,,f,blue,5f6e72f4f0d70a3c02af4ee6,2021-09-27_16h08.39.353,forced_choiceRT_color,2021.2.3,Win32,59.80861244,,,,,,,,4,Ontime,long,f,1,2.0603,4,1,17,1,1,,,,,
,1.77,,,,,,,,,j,red,5f6e72f4f0d70a3c02af4ee6,2021-09-27_16h08.39.353,forced_choiceRT_color,2021.2.3,Win32,59.80861244,,,,,,,,4,Ontime,long,j,1,2.047,4,2,18,2,1,,,,,
,1.76,,,,,,,,,j,red,5f6e72f4f0d70a3c02af4ee6,2021-09-27_16h08.39.353,forced_choiceRT_color,2021.2.3,Win32,59.80861244,,,,,,,,4,Slow,long,d,0,2.1359,4,3,19,2,1,,,,,
,1.24,,,,,,,,,d,orange,5f6e72f4f0d70a3c02af4ee6,2021-09-27_16h08.39.353,forced_choiceRT_color,2021.2.3,Win32,59.80861244,,,,,,,,4,Ontime,long,d,1,2.0082,5,0,20,0,1,,,,,
,1.12,,,,,,,,,k,purple,5f6e72f4f0d70a3c02af4ee6,2021-09-27_16h08.39.353,forced_choiceRT_color,2021.2.3,Win32,59.80861244,,,,,,,,4,Ontime,long,k,1,2.0529,5,1,21,3,1,,,,,
,0.29,,,,,,,,,d,orange,5f6e72f4f0d70a3c02af4ee6,2021-09-27_16h08.39.353,forced_choiceRT_color,2021.2.3,Win32,59.80861244,,,,,,,,4,Ontime,long,d,1,2.0051,5,2,22,0,1,,,,,
,1.07,,,,,,,,,f,blue,5f6e72f4f0d70a3c02af4ee6,2021-09-27_16h08.39.353,forced_choiceRT_color,2021.2.3,Win32,59.80861244,,,,,,,,4,Slow,long,j,0,2.1255,5,3,23,1,1,,,,,
,1.13,,,,,,,,,k,purple,5f6e72f4f0d70a3c02af4ee6,2021-09-27_16h08.39.353,forced_choiceRT_color,2021.2.3,Win32,59.80861244,,,,,,,,4,Ontime,long,k,1,2.0027,6,0,24,3,1,,,,,
,1.57,,,,,,,,,k,purple,5f6e72f4f0d70a3c02af4ee6,2021-09-27_16h08.39.353,forced_choiceRT_color,2021.2.3,Win32,59.80861244,,,,,,,,4,Ontime,long,k,1,2.0584,6,1,25,3,1,,,,,
,1.22,,,,,,,,,f,blue,5f6e72f4f0d70a3c02af4ee6,2021-09-27_16h08.39.353,forced_choiceRT_color,2021.2.3,Win32,59.80861244,,,,,,,,4,Slow,long,f,1,2.1079,6,2,26,1,1,,,,,
,1.05,,,,,,,,,d,orange,5f6e72f4f0d70a3c02af4ee6,2021-09-27_16h08.39.353,forced_choiceRT_color,2021.2.3,Win32,59.80861244,,,,,,,,4,Fast,long,d,1,1.7852,6,3,27,0,1,,,,,
,0.54,,,,,,,,,f,blue,5f6e72f4f0d70a3c02af4ee6,2021-09-27_16h08.39.353,forced_choiceRT_color,2021.2.3,Win32,59.80861244,,,,,,,,4,Ontime,long,f,1,1.917,7,0,28,1,1,,,,,
,0.6,,,,,,,,,f,blue,5f6e72f4f0d70a3c02af4ee6,2021-09-27_16h08.39.353,forced_choiceRT_color,2021.2.3,Win32,59.80861244,,,,,,,,4,Ontime,long,f,1,1.994,7,1,29,1,1,,,,,
,1.21,,,,,,,,,f,blue,5f6e72f4f0d70a3c02af4ee6,2021-09-27_16h08.39.353,forced_choiceRT_color,2021.2.3,Win32,59.80861244,,,,,,,,4,Ontime,long,f,1,1.9131,7,2,30,1,1,,,,,
,0.88,,,,,,,,,j,red,5f6e72f4f0d70a3c02af4ee6,2021-09-27_16h08.39.353,forced_choiceRT_color,2021.2.3,Win32,59.80861244,,,,,,,,4,Ontime,long,j,1,1.982,7,3,31,2,1,,,,,
,1.71,,,,,,,,,j,red,5f6e72f4f0d70a3c02af4ee6,2021-09-27_16h08.39.353,forced_choiceRT_color,2021.2.3,Win32,59.80861244,,,,,,,,4,Ontime,long,k,0,2.0706,8,0,32,2,1,,,,,
,0.73,,,,,,,,,j,red,5f6e72f4f0d70a3c02af4ee6,2021-09-27_16h08.39.353,forced_choiceRT_color,2021.2.3,Win32,59.80861244,,,,,,,,4,Ontime,long,j,1,2.0306,8,1,33,2,1,,,,,
,1.61,,,,,,,,,j,red,5f6e72f4f0d70a3c02af4ee6,2021-09-27_16h08.39.353,forced_choiceRT_color,2021.2.3,Win32,59.80861244,,,,,,,,4,Ontime,long,j,1,2.0702,8,2,34,2,1,,,,,
,1.51,,,,,,,,,j,red,5f6e72f4f0d70a3c02af4ee6,2021-09-27_16h08.39.353,forced_choiceRT_color,2021.2.3,Win32,59.80861244,,,,,,,,4,Ontime,long,j,1,2.0175,8,3,35,2,1,,,,,
,0.39,,,,,,,,,d,orange,5f6e72f4f0d70a3c02af4ee6,2021-09-27_16h08.39.353,forced_choiceRT_color,2021.2.3,Win32,59.80861244,,,,,,,,4,Ontime,long,d,1,1.9811,9,0,36,0,1,,,,,
,0.13,,,,,,,,,f,blue,5f6e72f4f0d70a3c02af4ee6,2021-09-27_16h08.39.353,forced_choiceRT_color,2021.2.3,Win32,59.80861244,,,,,,,,4,Ontime,long,f,1,2.0471,9,1,37,1,1,,,,,
,0.21,,,,,,,,,k,purple,5f6e72f4f0d70a3c02af4ee6,2021-09-27_16h08.39.353,forced_choiceRT_color,2021.2.3,Win32,59.80861244,,,,,,,,4,Ontime,long,k,1,1.9967,9,2,38,3,1,,,,,
,0.99,,,,,,,,,j,red,5f6e72f4f0d70a3c02af4ee6,2021-09-27_16h08.39.353,forced_choiceRT_color,2021.2.3,Win32,59.80861244,,,,,,,,4,Ontime,long,j,1,2.0004,9,3,39,2,1,,,,,
,,,,,,,,,,,,5f6e72f4f0d70a3c02af4ee6,2021-09-27_16h08.39.353,forced_choiceRT_color,2021.2.3,Win32,59.80861244,,,,,,,,,,,,,,,,,,,3,0,3,0,1
,0,,,,,,,,,f,blue,5f6e72f4f0d70a3c02af4ee6,2021-09-27_16h08.39.353,forced_choiceRT_color,2021.2.3,Win32,59.80861244,,,,,,,,5,Ontime,long,f,1,1.9312,0,0,0,1,1,,,,,
,1.5,,,,,,,,,k,purple,5f6e72f4f0d70a3c02af4ee6,2021-09-27_16h08.39.353,forced_choiceRT_color,2021.2.3,Win32,59.80861244,,,,,,,,5,Slow,long,k,1,2.1376,0,1,1,3,1,,,,,
,1.05,,,,,,,,,j,red,5f6e72f4f0d70a3c02af4ee6,2021-09-27_16h08.39.353,forced_choiceRT_color,2021.2.3,Win32,59.80861244,,,,,,,,5,Ontime,long,j,1,1.9206,0,2,2,2,1,,,,,
,0.5,,,,,,,,,d,orange,5f6e72f4f0d70a3c02af4ee6,2021-09-27_16h08.39.353,forced_choiceRT_color,2021.2.3,Win32,59.80861244,,,,,,,,5,Ontime,long,d,1,2.0623,0,3,3,0,1,,,,,
,1.54,,,,,,,,,d,orange,5f6e72f4f0d70a3c02af4ee6,2021-09-27_16h08.39.353,forced_choiceRT_color,2021.2.3,Win32,59.80861244,,,,,,,,5,Ontime,long,d,1,2.0667,1,0,4,0,1,,,,,
,1.28,,,,,,,,,f,blue,5f6e72f4f0d70a3c02af4ee6,2021-09-27_16h08.39.353,forced_choiceRT_color,2021.2.3,Win32,59.80861244,,,,,,,,5,Ontime,long,f,1,2.0535,1,1,5,1,1,,,,,
,1.58,,,,,,,,,f,blue,5f6e72f4f0d70a3c02af4ee6,2021-09-27_16h08.39.353,forced_choiceRT_color,2021.2.3,Win32,59.80861244,,,,,,,,5,Ontime,long,j,0,2.014,1,2,6,1,1,,,,,
,0.44,,,,,,,,,j,red,5f6e72f4f0d70a3c02af4ee6,2021-09-27_16h08.39.353,forced_choiceRT_color,2021.2.3,Win32,59.80861244,,,,,,,,5,Ontime,long,j,1,2.0531,1,3,7,2,1,,,,,
,1.46,,,,,,,,,j,red,5f6e72f4f0d70a3c02af4ee6,2021-09-27_16h08.39.353,forced_choiceRT_color,2021.2.3,Win32,59.80861244,,,,,,,,5,Ontime,long,k,0,2.0272,2,0,8,2,1,,,,,
,1.04,,,,,,,,,d,orange,5f6e72f4f0d70a3c02af4ee6,2021-09-27_16h08.39.353,forced_choiceRT_color,2021.2.3,Win32,59.80861244,,,,,,,,5,Ontime,long,d,1,2.071,2,1,9,0,1,,,,,
,0.52,,,,,,,,,j,red,5f6e72f4f0d70a3c02af4ee6,2021-09-27_16h08.39.353,forced_choiceRT_color,2021.2.3,Win32,59.80861244,,,,,,,,5,Ontime,long,j,1,2.0897,2,2,10,2,1,,,,,
,1.11,,,,,,,,,j,red,5f6e72f4f0d70a3c02af4ee6,2021-09-27_16h08.39.353,forced_choiceRT_color,2021.2.3,Win32,59.80861244,,,,,,,,5,Ontime,long,j,1,2.0037,2,3,11,2,1,,,,,
,1,,,,,,,,,f,blue,5f6e72f4f0d70a3c02af4ee6,2021-09-27_16h08.39.353,forced_choiceRT_color,2021.2.3,Win32,59.80861244,,,,,,,,5,Ontime,long,f,1,1.9802,3,0,12,1,1,,,,,
,1.34,,,,,,,,,d,orange,5f6e72f4f0d70a3c02af4ee6,2021-09-27_16h08.39.353,forced_choiceRT_color,2021.2.3,Win32,59.80861244,,,,,,,,5,Ontime,long,d,1,2.0217,3,1,13,0,1,,,,,
,0.94,,,,,,,,,j,red,5f6e72f4f0d70a3c02af4ee6,2021-09-27_16h08.39.353,forced_choiceRT_color,2021.2.3,Win32,59.80861244,,,,,,,,5,Ontime,long,j,1,2.0882,3,2,14,2,1,,,,,
,0.56,,,,,,,,,d,orange,5f6e72f4f0d70a3c02af4ee6,2021-09-27_16h08.39.353,forced_choiceRT_color,2021.2.3,Win32,59.80861244,,,,,,,,5,Ontime,long,d,1,1.9972,3,3,15,0,1,,,,,
,1.39,,,,,,,,,d,orange,5f6e72f4f0d70a3c02af4ee6,2021-09-27_16h08.39.353,forced_choiceRT_color,2021.2.3,Win32,59.80861244,,,,,,,,5,Ontime,long,d,1,2.0699,4,0,16,0,1,,,,,
,0.26,,,,,,,,,k,purple,5f6e72f4f0d70a3c02af4ee6,2021-09-27_16h08.39.353,forced_choiceRT_color,2021.2.3,Win32,59.80861244,,,,,,,,5,Ontime,long,k,1,2.0253,4,1,17,3,1,,,,,
,0.1,,,,,,,,,j,red,5f6e72f4f0d70a3c02af4ee6,2021-09-27_16h08.39.353,forced_choiceRT_color,2021.2.3,Win32,59.80861244,,,,,,,,5,Ontime,long,j,1,2.0157,4,2,18,2,1,,,,,
,0.47,,,,,,,,,k,purple,5f6e72f4f0d70a3c02af4ee6,2021-09-27_16h08.39.353,forced_choiceRT_color,2021.2.3,Win32,59.80861244,,,,,,,,5,Ontime,long,k,1,2.0696,4,3,19,3,1,,,,,
,0.8,,,,,,,,,f,blue,5f6e72f4f0d70a3c02af4ee6,2021-09-27_16h08.39.353,forced_choiceRT_color,2021.2.3,Win32,59.80861244,,,,,,,,5,Ontime,long,f,1,2.0938,5,0,20,1,1,,,,,
,0.67,,,,,,,,,f,blue,5f6e72f4f0d70a3c02af4ee6,2021-09-27_16h08.39.353,forced_choiceRT_color,2021.2.3,Win32,59.80861244,,,,,,,,5,Ontime,long,f,1,2.0494,5,1,21,1,1,,,,,
,0.25,,,,,,,,,d,orange,5f6e72f4f0d70a3c02af4ee6,2021-09-27_16h08.39.353,forced_choiceRT_color,2021.2.3,Win32,59.80861244,,,,,,,,5,Ontime,long,d,1,2.0246,5,2,22,0,1,,,,,
,1.96,,,,,,,,,d,orange,5f6e72f4f0d70a3c02af4ee6,2021-09-27_16h08.39.353,forced_choiceRT_color,2021.2.3,Win32,59.80861244,,,,,,,,5,Ontime,long,j,0,2.0847,5,3,23,0,1,,,,,
,0.14,,,,,,,,,k,purple,5f6e72f4f0d70a3c02af4ee6,2021-09-27_16h08.39.353,forced_choiceRT_color,2021.2.3,Win32,59.80861244,,,,,,,,5,Ontime,long,k,1,2.0097,6,0,24,3,1,,,,,
,1.9,,,,,,,,,j,red,5f6e72f4f0d70a3c02af4ee6,2021-09-27_16h08.39.353,forced_choiceRT_color,2021.2.3,Win32,59.80861244,,,,,,,,5,Slow,long,d,0,2.102,6,1,25,2,1,,,,,
,0.6,,,,,,,,,f,blue,5f6e72f4f0d70a3c02af4ee6,2021-09-27_16h08.39.353,forced_choiceRT_color,2021.2.3,Win32,59.80861244,,,,,,,,5,Ontime,long,f,1,2.0534,6,2,26,1,1,,,,,
,1.53,,,,,,,,,f,blue,5f6e72f4f0d70a3c02af4ee6,2021-09-27_16h08.39.353,forced_choiceRT_color,2021.2.3,Win32,59.80861244,,,,,,,,5,Slow,long,f,1,2.163,6,3,27,1,1,,,,,
,1.1,,,,,,,,,k,purple,5f6e72f4f0d70a3c02af4ee6,2021-09-27_16h08.39.353,forced_choiceRT_color,2021.2.3,Win32,59.80861244,,,,,,,,5,Ontime,long,k,1,2.0654,7,0,28,3,1,,,,,
,1.8,,,,,,,,,d,orange,5f6e72f4f0d70a3c02af4ee6,2021-09-27_16h08.39.353,forced_choiceRT_color,2021.2.3,Win32,59.80861244,,,,,,,,5,Slow,long,d,1,2.1063,7,1,29,0,1,,,,,
,1.9,,,,,,,,,f,blue,5f6e72f4f0d70a3c02af4ee6,2021-09-27_16h08.39.353,forced_choiceRT_color,2021.2.3,Win32,59.80861244,,,,,,,,5,Ontime,long,j,0,2.0379,7,2,30,1,1,,,,,
,0.88,,,,,,,,,f,blue,5f6e72f4f0d70a3c02af4ee6,2021-09-27_16h08.39.353,forced_choiceRT_color,2021.2.3,Win32,59.80861244,,,,,,,,5,Slow,long,f,1,2.1219,7,3,31,1,1,,,,,
,1.24,,,,,,,,,j,red,5f6e72f4f0d70a3c02af4ee6,2021-09-27_16h08.39.353,forced_choiceRT_color,2021.2.3,Win32,59.80861244,,,,,,,,5,Ontime,long,j,1,1.9866,8,0,32,2,1,,,,,
,1.19,,,,,,,,,k,purple,5f6e72f4f0d70a3c02af4ee6,2021-09-27_16h08.39.353,forced_choiceRT_color,2021.2.3,Win32,59.80861244,,,,,,,,5,Ontime,long,k,1,1.9838,8,1,33,3,1,,,,,
,1.87,,,,,,,,,j,red,5f6e72f4f0d70a3c02af4ee6,2021-09-27_16h08.39.353,forced_choiceRT_color,2021.2.3,Win32,59.80861244,,,,,,,,5,Ontime,long,d,0,2.0535,8,2,34,2,1,,,,,
,1.21,,,,,,,,,k,purple,5f6e72f4f0d70a3c02af4ee6,2021-09-27_16h08.39.353,forced_choiceRT_color,2021.2.3,Win32,59.80861244,,,,,,,,5,Ontime,long,k,1,2.0498,8,3,35,3,1,,,,,
,0.4,,,,,,,,,k,purple,5f6e72f4f0d70a3c02af4ee6,2021-09-27_16h08.39.353,forced_choiceRT_color,2021.2.3,Win32,59.80861244,,,,,,,,5,Ontime,long,k,1,2.0365,9,0,36,3,1,,,,,
,1.1,,,,,,,,,k,purple,5f6e72f4f0d70a3c02af4ee6,2021-09-27_16h08.39.353,forced_choiceRT_color,2021.2.3,Win32,59.80861244,,,,,,,,5,Ontime,long,k,1,2.0622,9,1,37,3,1,,,,,
,0.24,,,,,,,,,k,purple,5f6e72f4f0d70a3c02af4ee6,2021-09-27_16h08.39.353,forced_choiceRT_color,2021.2.3,Win32,59.80861244,,,,,,,,5,Ontime,long,k,1,2.0811,9,2,38,3,1,,,,,
,0,,,,,,,,,d,orange,5f6e72f4f0d70a3c02af4ee6,2021-09-27_16h08.39.353,forced_choiceRT_color,2021.2.3,Win32,59.80861244,,,,,,,,5,Ontime,long,d,1,2.0469,9,3,39,0,1,,,,,
,,,,,,,,,,,,5f6e72f4f0d70a3c02af4ee6,2021-09-27_16h08.39.353,forced_choiceRT_color,2021.2.3,Win32,59.80861244,,,,,,,,,,,,,,,,,,,4,0,4,0,1
,1.42,,,,,,,,,f,blue,5f6e72f4f0d70a3c02af4ee6,2021-09-27_16h08.39.353,forced_choiceRT_color,2021.2.3,Win32,59.80861244,,,,,,,,6,Slow,long,f,1,2.1029,0,0,0,1,1,,,,,
,1.51,,,,,,,,,d,orange,5f6e72f4f0d70a3c02af4ee6,2021-09-27_16h08.39.353,forced_choiceRT_color,2021.2.3,Win32,59.80861244,,,,,,,,6,Ontime,long,d,1,2.0802,0,1,1,0,1,,,,,
,0.18,,,,,,,,,f,blue,5f6e72f4f0d70a3c02af4ee6,2021-09-27_16h08.39.353,forced_choiceRT_color,2021.2.3,Win32,59.80861244,,,,,,,,6,Ontime,long,f,1,1.9383,0,2,2,1,1,,,,,
,0.05,,,,,,,,,d,orange,5f6e72f4f0d70a3c02af4ee6,2021-09-27_16h08.39.353,forced_choiceRT_color,2021.2.3,Win32,59.80861244,,,,,,,,6,Ontime,long,d,1,2.0512,0,3,3,0,1,,,,,
,1.18,,,,,,,,,d,orange,5f6e72f4f0d70a3c02af4ee6,2021-09-27_16h08.39.353,forced_choiceRT_color,2021.2.3,Win32,59.80861244,,,,,,,,6,Ontime,long,d,1,2.0423,1,0,4,0,1,,,,,
,1.12,,,,,,,,,f,blue,5f6e72f4f0d70a3c02af4ee6,2021-09-27_16h08.39.353,forced_choiceRT_color,2021.2.3,Win32,59.80861244,,,,,,,,6,Ontime,long,f,1,2.0423,1,1,5,1,1,,,,,
,1.77,,,,,,,,,d,orange,5f6e72f4f0d70a3c02af4ee6,2021-09-27_16h08.39.353,forced_choiceRT_color,2021.2.3,Win32,59.80861244,,,,,,,,6,Slow,long,f,0,2.2131,1,2,6,0,1,,,,,
,0.02,,,,,,,,,f,blue,5f6e72f4f0d70a3c02af4ee6,2021-09-27_16h08.39.353,forced_choiceRT_color,2021.2.3,Win32,59.80861244,,,,,,,,6,Ontime,long,f,1,2.0846,1,3,7,1,1,,,,,
,1.27,,,,,,,,,f,blue,5f6e72f4f0d70a3c02af4ee6,2021-09-27_16h08.39.353,forced_choiceRT_color,2021.2.3,Win32,59.80861244,,,,,,,,6,Slow,long,f,1,2.1047,2,0,8,1,1,,,,,
,1.01,,,,,,,,,f,blue,5f6e72f4f0d70a3c02af4ee6,2021-09-27_16h08.39.353,forced_choiceRT_color,2021.2.3,Win32,59.80861244,,,,,,,,6,Ontime,long,f,1,2.0341,2,1,9,1,1,,,,,
,1.68,,,,,,,,,k,purple,5f6e72f4f0d70a3c02af4ee6,2021-09-27_16h08.39.353,forced_choiceRT_color,2021.2.3,Win32,59.80861244,,,,,,,,6,Slow,long,j,0,2.1633,2,2,10,3,1,,,,,
,1.86,,,,,,,,,d,orange,5f6e72f4f0d70a3c02af4ee6,2021-09-27_16h08.39.353,forced_choiceRT_color,2021.2.3,Win32,59.80861244,,,,,,,,6,Ontime,long,k,0,2.0756,2,3,11,0,1,,,,,
,0.99,,,,,,,,,j,red,5f6e72f4f0d70a3c02af4ee6,2021-09-27_16h08.39.353,forced_choiceRT_color,2021.2.3,Win32,59.80861244,,,,,,,,6,Ontime,long,j,1,2.0192,3,0,12,2,1,,,,,
,1.3,,,,,,,,,j,red,5f6e72f4f0d70a3c02af4ee6,2021-09-27_16h08.39.353,forced_choiceRT_color,2021.2.3,Win32,59.80861244,,,,,,,,6,Ontime,long,j,1,2.0773,3,1,13,2,1,,,,,
,0.88,,,,,,,,,k,purple,5f6e72f4f0d70a3c02af4ee6,2021-09-27_16h08.39.353,forced_choiceRT_color,2021.2.3,Win32,59.80861244,,,,,,,,6,Ontime,long,k,1,2.0875,3,2,14,3,1,,,,,
,0.77,,,,,,,,,j,red,5f6e72f4f0d70a3c02af4ee6,2021-09-27_16h08.39.353,forced_choiceRT_color,2021.2.3,Win32,59.80861244,,,,,,,,6,Ontime,long,j,1,1.9948,3,3,15,2,1,,,,,
,0.5,,,,,,,,,d,orange,5f6e72f4f0d70a3c02af4ee6,2021-09-27_16h08.39.353,forced_choiceRT_color,2021.2.3,Win32,59.80861244,,,,,,,,6,Ontime,long,d,1,2.0494,4,0,16,0,1,,,,,
,1.77,,,,,,,,,k,purple,5f6e72f4f0d70a3c02af4ee6,2021-09-27_16h08.39.353,forced_choiceRT_color,2021.2.3,Win32,59.80861244,,,,,,,,6,Ontime,long,j,0,2.0382,4,1,17,3,1,,,,,
,1.43,,,,,,,,,f,blue,5f6e72f4f0d70a3c02af4ee6,2021-09-27_16h08.39.353,forced_choiceRT_color,2021.2.3,Win32,59.80861244,,,,,,,,6,Ontime,long,f,1,2.0297,4,2,18,1,1,,,,,
,0.21,,,,,,,,,k,purple,5f6e72f4f0d70a3c02af4ee6,2021-09-27_16h08.39.353,forced_choiceRT_color,2021.2.3,Win32,59.80861244,,,,,,,,6,Ontime,long,k,1,1.9824,4,3,19,3,1,,,,,
,1.97,,,,,,,,,j,red,5f6e72f4f0d70a3c02af4ee6,2021-09-27_16h08.39.353,forced_choiceRT_color,2021.2.3,Win32,59.80861244,,,,,,,,6,Ontime,long,j,1,2.0652,5,0,20,2,1,,,,,
,0.2,,,,,,,,,j,red,5f6e72f4f0d70a3c02af4ee6,2021-09-27_16h08.39.353,forced_choiceRT_color,2021.2.3,Win32,59.80861244,,,,,,,,6,Ontime,long,j,1,2.0761,5,1,21,2,1,,,,,
,0.54,,,,,,,,,k,purple,5f6e72f4f0d70a3c02af4ee6,2021-09-27_16h08.39.353,forced_choiceRT_color,2021.2.3,Win32,59.80861244,,,,,,,,6,Ontime,long,k,1,2.0083,5,2,22,3,1,,,,,
,0.27,,,,,,,,,f,blue,5f6e72f4f0d70a3c02af4ee6,2021-09-27_16h08.39.353,forced_choiceRT_color,2021.2.3,Win32,59.80861244,,,,,,,,6,Ontime,long,f,1,1.993,5,3,23,1,1,,,,,
,0.12,,,,,,,,,j,red,5f6e72f4f0d70a3c02af4ee6,2021-09-27_16h08.39.353,forced_choiceRT_color,2021.2.3,Win32,59.80861244,,,,,,,,6,Ontime,long,j,1,2.0516,6,0,24,2,1,,,,,
,1.97,,,,,,,,,d,orange,5f6e72f4f0d70a3c02af4ee6,2021-09-27_16h08.39.353,forced_choiceRT_color,2021.2.3,Win32,59.80861244,,,,,,,,6,Ontime,long,k,0,2.0697,6,1,25,0,1,,,,,
,0.43,,,,,,,,,j,red,5f6e72f4f0d70a3c02af4ee6,2021-09-27_16h08.39.353,forced_choiceRT_color,2021.2.3,Win32,59.80861244,,,,,,,,6,Ontime,long,j,1,2.0728,6,2,26,2,1,,,,,
,1.77,,,,,,,,,k,purple,5f6e72f4f0d70a3c02af4ee6,2021-09-27_16h08.39.353,forced_choiceRT_color,2021.2.3,Win32,59.80861244,,,,,,,,6,Ontime,long,f,0,2.0395,6,3,27,3,1,,,,,
,1.61,,,,,,,,,f,blue,5f6e72f4f0d70a3c02af4ee6,2021-09-27_16h08.39.353,forced_choiceRT_color,2021.2.3,Win32,59.80861244,,,,,,,,6,Slow,long,f,1,2.1776,7,0,28,1,1,,,,,
,0.08,,,,,,,,,d,orange,5f6e72f4f0d70a3c02af4ee6,2021-09-27_16h08.39.353,forced_choiceRT_color,2021.2.3,Win32,59.80861244,,,,,,,,6,Slow,long,d,1,2.1146,7,1,29,0,1,,,,,
,0.79,,,,,,,,,k,purple,5f6e72f4f0d70a3c02af4ee6,2021-09-27_16h08.39.353,forced_choiceRT_color,2021.2.3,Win32,59.80861244,,,,,,,,6,Ontime,long,k,1,2.0066,7,2,30,3,1,,,,,
,1.86,,,,,,,,,k,purple,5f6e72f4f0d70a3c02af4ee6,2021-09-27_16h08.39.353,forced_choiceRT_color,2021.2.3,Win32,59.80861244,,,,,,,,6,Ontime,long,j,0,2.0301,7,3,31,3,1,,,,,
,0.62,,,,,,,,,d,orange,5f6e72f4f0d70a3c02af4ee6,2021-09-27_16h08.39.353,forced_choiceRT_color,2021.2.3,Win32,59.80861244,,,,,,,,6,Ontime,long,d,1,2.0323,8,0,32,0,1,,,,,
,0.47,,,,,,,,,k,purple,5f6e72f4f0d70a3c02af4ee6,2021-09-27_16h08.39.353,forced_choiceRT_color,2021.2.3,Win32,59.80861244,,,,,,,,6,Ontime,long,k,1,2.042,8,1,33,3,1,,,,,
,1.51,,,,,,,,,j,red,5f6e72f4f0d70a3c02af4ee6,2021-09-27_16h08.39.353,forced_choiceRT_color,2021.2.3,Win32,59.80861244,,,,,,,,6,Ontime,long,j,1,2.0526,8,2,34,2,1,,,,,
,0.05,,,,,,,,,j,red,5f6e72f4f0d70a3c02af4ee6,2021-09-27_16h08.39.353,forced_choiceRT_color,2021.2.3,Win32,59.80861244,,,,,,,,6,Ontime,long,j,1,2.0207,8,3,35,2,1,,,,,
,1.3,,,,,,,,,j,red,5f6e72f4f0d70a3c02af4ee6,2021-09-27_16h08.39.353,forced_choiceRT_color,2021.2.3,Win32,59.80861244,,,,,,,,6,Ontime,long,j,1,2.0327,9,0,36,2,1,,,,,
,1.15,,,,,,,,,k,purple,5f6e72f4f0d70a3c02af4ee6,2021-09-27_16h08.39.353,forced_choiceRT_color,2021.2.3,Win32,59.80861244,,,,,,,,6,Ontime,long,k,1,2.059,9,1,37,3,1,,,,,
,1.5,,,,,,,,,f,blue,5f6e72f4f0d70a3c02af4ee6,2021-09-27_16h08.39.353,forced_choiceRT_color,2021.2.3,Win32,59.80861244,,,,,,,,6,Slow,long,f,1,2.1031,9,2,38,1,1,,,,,
,0.31,,,,,,,,,d,orange,5f6e72f4f0d70a3c02af4ee6,2021-09-27_16h08.39.353,forced_choiceRT_color,2021.2.3,Win32,59.80861244,,,,,,,,6,Ontime,long,d,1,2.0276,9,3,39,0,1,,,,,
,,,,,,,,,,,,5f6e72f4f0d70a3c02af4ee6,2021-09-27_16h08.39.353,forced_choiceRT_color,2021.2.3,Win32,59.80861244,,,,,,,,,,,,,,,,,,,5,0,5,0,1
,0.25,,,,,,,,,d,orange,5f6e72f4f0d70a3c02af4ee6,2021-09-27_16h08.39.353,forced_choiceRT_color,2021.2.3,Win32,59.80861244,,,,,,,,7,Ontime,long,d,1,2.0593,0,0,0,0,1,,,,,
,1.95,,,,,,,,,f,blue,5f6e72f4f0d70a3c02af4ee6,2021-09-27_16h08.39.353,forced_choiceRT_color,2021.2.3,Win32,59.80861244,,,,,,,,7,Slow,long,k,0,2.1319,0,1,1,1,1,,,,,
,0.87,,,,,,,,,f,blue,5f6e72f4f0d70a3c02af4ee6,2021-09-27_16h08.39.353,forced_choiceRT_color,2021.2.3,Win32,59.80861244,,,,,,,,7,Ontime,long,f,1,2.0045,0,2,2,1,1,,,,,
,1.84,,,,,,,,,f,blue,5f6e72f4f0d70a3c02af4ee6,2021-09-27_16h08.39.353,forced_choiceRT_color,2021.2.3,Win32,59.80861244,,,,,,,,7,Ontime,long,j,0,2.0872,0,3,3,1,1,,,,,
,0.53,,,,,,,,,f,blue,5f6e72f4f0d70a3c02af4ee6,2021-09-27_16h08.39.353,forced_choiceRT_color,2021.2.3,Win32,59.80861244,,,,,,,,7,Ontime,long,f,1,2.068,1,0,4,1,1,,,,,
,0.46,,,,,,,,,j,red,5f6e72f4f0d70a3c02af4ee6,2021-09-27_16h08.39.353,forced_choiceRT_color,2021.2.3,Win32,59.80861244,,,,,,,,7,Slow,long,j,1,2.1084,1,1,5,2,1,,,,,
,1.45,,,,,,,,,d,orange,5f6e72f4f0d70a3c02af4ee6,2021-09-27_16h08.39.353,forced_choiceRT_color,2021.2.3,Win32,59.80861244,,,,,,,,7,Ontime,long,d,1,2.0931,1,2,6,0,1,,,,,
,0.96,,,,,,,,,j,red,5f6e72f4f0d70a3c02af4ee6,2021-09-27_16h08.39.353,forced_choiceRT_color,2021.2.3,Win32,59.80861244,,,,,,,,7,Ontime,long,j,1,2.0249,1,3,7,2,1,,,,,
,0.46,,,,,,,,,j,red,5f6e72f4f0d70a3c02af4ee6,2021-09-27_16h08.39.353,forced_choiceRT_color,2021.2.3,Win32,59.80861244,,,,,,,,7,Ontime,long,j,1,2.0289,2,0,8,2,1,,,,,
,0.84,,,,,,,,,d,orange,5f6e72f4f0d70a3c02af4ee6,2021-09-27_16h08.39.353,forced_choiceRT_color,2021.2.3,Win32,59.80861244,,,,,,,,7,Ontime,long,d,1,2.0021,2,1,9,0,1,,,,,
,0.02,,,,,,,,,j,red,5f6e72f4f0d70a3c02af4ee6,2021-09-27_16h08.39.353,forced_choiceRT_color,2021.2.3,Win32,59.80861244,,,,,,,,7,Ontime,long,j,1,2.0537,2,2,10,2,1,,,,,
,0.83,,,,,,,,,k,purple,5f6e72f4f0d70a3c02af4ee6,2021-09-27_16h08.39.353,forced_choiceRT_color,2021.2.3,Win32,59.80861244,,,,,,,,7,Ontime,long,k,1,2.0837,2,3,11,3,1,,,,,
,0.08,,,,,,,,,d,orange,5f6e72f4f0d70a3c02af4ee6,2021-09-27_16h08.39.353,forced_choiceRT_color,2021.2.3,Win32,59.80861244,,,,,,,,7,Ontime,long,d,1,2.0057,3,0,12,0,1,,,,,
,0.98,,,,,,,,,j,red,5f6e72f4f0d70a3c02af4ee6,2021-09-27_16h08.39.353,forced_choiceRT_color,2021.2.3,Win32,59.80861244,,,,,,,,7,Slow,long,j,1,2.125,3,1,13,2,1,,,,,
,0.94,,,,,,,,,k,purple,5f6e72f4f0d70a3c02af4ee6,2021-09-27_16h08.39.353,forced_choiceRT_color,2021.2.3,Win32,59.80861244,,,,,,,,7,Ontime,long,k,1,2.0344,3,2,14,3,1,,,,,
,0.95,,,,,,,,,f,blue,5f6e72f4f0d70a3c02af4ee6,2021-09-27_16h08.39.353,forced_choiceRT_color,2021.2.3,Win32,59.80861244,,,,,,,,7,Ontime,long,f,1,1.945,3,3,15,1,1,,,,,
,0.91,,,,,,,,,d,orange,5f6e72f4f0d70a3c02af4ee6,2021-09-27_16h08.39.353,forced_choiceRT_color,2021.2.3,Win32,59.80861244,,,,,,,,7,Ontime,long,d,1,2.0171,4,0,16,0,1,,,,,
,0.63,,,,,,,,,k,purple,5f6e72f4f0d70a3c02af4ee6,2021-09-27_16h08.39.353,forced_choiceRT_color,2021.2.3,Win32,59.80861244,,,,,,,,7,Ontime,long,k,1,1.9868,4,1,17,3,1,,,,,
,0.8,,,,,,,,,k,purple,5f6e72f4f0d70a3c02af4ee6,2021-09-27_16h08.39.353,forced_choiceRT_color,2021.2.3,Win32,59.80861244,,,,,,,,7,Ontime,long,k,1,2.0254,4,2,18,3,1,,,,,
,0.31,,,,,,,,,d,orange,5f6e72f4f0d70a3c02af4ee6,2021-09-27_16h08.39.353,forced_choiceRT_color,2021.2.3,Win32,59.80861244,,,,,,,,7,Ontime,long,d,1,2.0029,4,3,19,0,1,,,,,
,0.01,,,,,,,,,f,blue,5f6e72f4f0d70a3c02af4ee6,2021-09-27_16h08.39.353,forced_choiceRT_color,2021.2.3,Win32,59.80861244,,,,,,,,7,Ontime,long,f,1,1.9767,5,0,20,1,1,,,,,
,1.5,,,,,,,,,j,red,5f6e72f4f0d70a3c02af4ee6,2021-09-27_16h08.39.353,forced_choiceRT_color,2021.2.3,Win32,59.80861244,,,,,,,,7,Ontime,long,j,1,2.021,5,1,21,2,1,,,,,
,1.44,,,,,,,,,d,orange,5f6e72f4f0d70a3c02af4ee6,2021-09-27_16h08.39.353,forced_choiceRT_color,2021.2.3,Win32,59.80861244,,,,,,,,7,Ontime,long,d,1,2.0657,5,2,22,0,1,,,,,
,1.11,,,,,,,,,k,purple,5f6e72f4f0d70a3c02af4ee6,2021-09-27_16h08.39.353,forced_choiceRT_color,2021.2.3,Win32,59.80861244,,,,,,,,7,Ontime,long,k,1,1.9622,5,3,23,3,1,,,,,
,1.44,,,,,,,,,k,purple,5f6e72f4f0d70a3c02af4ee6,2021-09-27_16h08.39.353,forced_choiceRT_color,2021.2.3,Win32,59.80861244,,,,,,,,7,Ontime,long,k,1,2.0307,6,0,24,3,1,,,,,
,1.18,,,,,,,,,d,orange,5f6e72f4f0d70a3c02af4ee6,2021-09-27_16h08.39.353,forced_choiceRT_color,2021.2.3,Win32,59.80861244,,,,,,,,7,Ontime,long,d,1,2.0017,6,1,25,0,1,,,,,
,0.48,,,,,,,,,f,blue,5f6e72f4f0d70a3c02af4ee6,2021-09-27_16h08.39.353,forced_choiceRT_color,2021.2.3,Win32,59.80861244,,,,,,,,7,Ontime,long,f,1,2.0684,6,2,26,1,1,,,,,
,0.8,,,,,,,,,k,purple,5f6e72f4f0d70a3c02af4ee6,2021-09-27_16h08.39.353,forced_choiceRT_color,2021.2.3,Win32,59.80861244,,,,,,,,7,Ontime,long,k,1,2.0427,6,3,27,3,1,,,,,
,1.82,,,,,,,,,j,red,5f6e72f4f0d70a3c02af4ee6,2021-09-27_16h08.39.353,forced_choiceRT_color,2021.2.3,Win32,59.80861244,,,,,,,,7,Slow,long,k,0,2.1026,7,0,28,2,1,,,,,
,0.71,,,,,,,,,f,blue,5f6e72f4f0d70a3c02af4ee6,2021-09-27_16h08.39.353,forced_choiceRT_color,2021.2.3,Win32,59.80861244,,,,,,,,7,Ontime,long,f,1,2.0075,7,1,29,1,1,,,,,
,0.07,,,,,,,,,j,red,5f6e72f4f0d70a3c02af4ee6,2021-09-27_16h08.39.353,forced_choiceRT_color,2021.2.3,Win32,59.80861244,,,,,,,,7,Ontime,long,j,1,2.0854,7,2,30,2,1,,,,,
,0.75,,,,,,,,,d,orange,5f6e72f4f0d70a3c02af4ee6,2021-09-27_16h08.39.353,forced_choiceRT_color,2021.2.3,Win32,59.80861244,,,,,,,,7,Ontime,long,d,1,2.0842,7,3,31,0,1,,,,,
,1.9,,,,,,,,,j,red,5f6e72f4f0d70a3c02af4ee6,2021-09-27_16h08.39.353,forced_choiceRT_color,2021.2.3,Win32,59.80861244,,,,,,,,7,Slow,long,k,0,2.1232,8,0,32,2,1,,,,,
,0.92,,,,,,,,,k,purple,5f6e72f4f0d70a3c02af4ee6,2021-09-27_16h08.39.353,forced_choiceRT_color,2021.2.3,Win32,59.80861244,,,,,,,,7,Ontime,long,k,1,2.0654,8,1,33,3,1,,,,,
,0.9,,,,,,,,,k,purple,5f6e72f4f0d70a3c02af4ee6,2021-09-27_16h08.39.353,forced_choiceRT_color,2021.2.3,Win32,59.80861244,,,,,,,,7,Slow,long,k,1,2.1428,8,2,34,3,1,,,,,
,0.96,,,,,,,,,f,blue,5f6e72f4f0d70a3c02af4ee6,2021-09-27_16h08.39.353,forced_choiceRT_color,2021.2.3,Win32,59.80861244,,,,,,,,7,Ontime,long,f,1,2.0379,8,3,35,1,1,,,,,
,1.29,,,,,,,,,j,red,5f6e72f4f0d70a3c02af4ee6,2021-09-27_16h08.39.353,forced_choiceRT_color,2021.2.3,Win32,59.80861244,,,,,,,,7,Slow,long,j,1,2.1042,9,0,36,2,1,,,,,
,0.71,,,,,,,,,f,blue,5f6e72f4f0d70a3c02af4ee6,2021-09-27_16h08.39.353,forced_choiceRT_color,2021.2.3,Win32,59.80861244,,,,,,,,7,Ontime,long,f,1,1.9371,9,1,37,1,1,,,,,
,0.18,,,,,,,,,d,orange,5f6e72f4f0d70a3c02af4ee6,2021-09-27_16h08.39.353,forced_choiceRT_color,2021.2.3,Win32,59.80861244,,,,,,,,7,Ontime,long,d,1,1.9001,9,2,38,0,1,,,,,
,1.96,,,,,,,,,k,purple,5f6e72f4f0d70a3c02af4ee6,2021-09-27_16h08.39.353,forced_choiceRT_color,2021.2.3,Win32,59.80861244,,,,,,,,7,Ontime,long,k,1,1.9802,9,3,39,3,1,,,,,
,,,,,,,,,,,,5f6e72f4f0d70a3c02af4ee6,2021-09-27_16h08.39.353,forced_choiceRT_color,2021.2.3,Win32,59.80861244,,,,,,,,,,,,,,,,,,,6,0,6,0,1
,0.74,,,,,,,,,j,red,5f6e72f4f0d70a3c02af4ee6,2021-09-27_16h08.39.353,forced_choiceRT_color,2021.2.3,Win32,59.80861244,,,,,,,,8,Ontime,long,j,1,2.0176,0,0,0,2,1,,,,,
,0.08,,,,,,,,,j,red,5f6e72f4f0d70a3c02af4ee6,2021-09-27_16h08.39.353,forced_choiceRT_color,2021.2.3,Win32,59.80861244,,,,,,,,8,Ontime,long,j,1,1.9253,0,1,1,2,1,,,,,
,1.15,,,,,,,,,f,blue,5f6e72f4f0d70a3c02af4ee6,2021-09-27_16h08.39.353,forced_choiceRT_color,2021.2.3,Win32,59.80861244,,,,,,,,8,Ontime,long,f,1,2.0688,0,2,2,1,1,,,,,
,0.32,,,,,,,,,j,red,5f6e72f4f0d70a3c02af4ee6,2021-09-27_16h08.39.353,forced_choiceRT_color,2021.2.3,Win32,59.80861244,,,,,,,,8,Ontime,long,j,1,1.9502,0,3,3,2,1,,,,,
,0.06,,,,,,,,,d,orange,5f6e72f4f0d70a3c02af4ee6,2021-09-27_16h08.39.353,forced_choiceRT_color,2021.2.3,Win32,59.80861244,,,,,,,,8,Ontime,long,d,1,1.9891,1,0,4,0,1,,,,,
,1.9,,,,,,,,,f,blue,5f6e72f4f0d70a3c02af4ee6,2021-09-27_16h08.39.353,forced_choiceRT_color,2021.2.3,Win32,59.80861244,,,,,,,,8,Ontime,long,k,0,2.0356,1,1,5,1,1,,,,,
,1.72,,,,,,,,,j,red,5f6e72f4f0d70a3c02af4ee6,2021-09-27_16h08.39.353,forced_choiceRT_color,2021.2.3,Win32,59.80861244,,,,,,,,8,Ontime,long,j,1,2.0501,1,2,6,2,1,,,,,
,0.16,,,,,,,,,d,orange,5f6e72f4f0d70a3c02af4ee6,2021-09-27_16h08.39.353,forced_choiceRT_color,2021.2.3,Win32,59.80861244,,,,,,,,8,Slow,long,d,1,2.1136,1,3,7,0,1,,,,,
,1.68,,,,,,,,,j,red,5f6e72f4f0d70a3c02af4ee6,2021-09-27_16h08.39.353,forced_choiceRT_color,2021.2.3,Win32,59.80861244,,,,,,,,8,Ontime,long,f,0,1.9524,2,0,8,2,1,,,,,
,0.73,,,,,,,,,k,purple,5f6e72f4f0d70a3c02af4ee6,2021-09-27_16h08.39.353,forced_choiceRT_color,2021.2.3,Win32,59.80861244,,,,,,,,8,Ontime,long,k,1,2.0416,2,1,9,3,1,,,,,
,0.99,,,,,,,,,k,purple,5f6e72f4f0d70a3c02af4ee6,2021-09-27_16h08.39.353,forced_choiceRT_color,2021.2.3,Win32,59.80861244,,,,,,,,8,Fast,long,k,1,1.8951,2,2,10,3,1,,,,,
,0.59,,,,,,,,,d,orange,5f6e72f4f0d70a3c02af4ee6,2021-09-27_16h08.39.353,forced_choiceRT_color,2021.2.3,Win32,59.80861244,,,,,,,,8,Ontime,long,d,1,2.0523,2,3,11,0,1,,,,,
,0.59,,,,,,,,,d,orange,5f6e72f4f0d70a3c02af4ee6,2021-09-27_16h08.39.353,forced_choiceRT_color,2021.2.3,Win32,59.80861244,,,,,,,,8,Ontime,long,d,1,1.96,3,0,12,0,1,,,,,
,0.79,,,,,,,,,f,blue,5f6e72f4f0d70a3c02af4ee6,2021-09-27_16h08.39.353,forced_choiceRT_color,2021.2.3,Win32,59.80861244,,,,,,,,8,Ontime,long,f,1,1.9745,3,1,13,1,1,,,,,
,0.85,,,,,,,,,k,purple,5f6e72f4f0d70a3c02af4ee6,2021-09-27_16h08.39.353,forced_choiceRT_color,2021.2.3,Win32,59.80861244,,,,,,,,8,Ontime,long,k,1,2.0566,3,2,14,3,1,,,,,
,1.23,,,,,,,,,j,red,5f6e72f4f0d70a3c02af4ee6,2021-09-27_16h08.39.353,forced_choiceRT_color,2021.2.3,Win32,59.80861244,,,,,,,,8,Ontime,long,j,1,2.0282,3,3,15,2,1,,,,,
,1.61,,,,,,,,,d,orange,5f6e72f4f0d70a3c02af4ee6,2021-09-27_16h08.39.353,forced_choiceRT_color,2021.2.3,Win32,59.80861244,,,,,,,,8,Ontime,long,k,0,2.0812,4,0,16,0,1,,,,,
,0.68,,,,,,,,,d,orange,5f6e72f4f0d70a3c02af4ee6,2021-09-27_16h08.39.353,forced_choiceRT_color,2021.2.3,Win32,59.80861244,,,,,,,,8,Ontime,long,d,1,2.0496,4,1,17,0,1,,,,,
,1.07,,,,,,,,,k,purple,5f6e72f4f0d70a3c02af4ee6,2021-09-27_16h08.39.353,forced_choiceRT_color,2021.2.3,Win32,59.80861244,,,,,,,,8,Ontime,long,k,1,1.9864,4,2,18,3,1,,,,,
,1.56,,,,,,,,,k,purple,5f6e72f4f0d70a3c02af4ee6,2021-09-27_16h08.39.353,forced_choiceRT_color,2021.2.3,Win32,59.80861244,,,,,,,,8,Slow,long,k,1,2.1017,4,3,19,3,1,,,,,
,0.82,,,,,,,,,j,red,5f6e72f4f0d70a3c02af4ee6,2021-09-27_16h08.39.353,forced_choiceRT_color,2021.2.3,Win32,59.80861244,,,,,,,,8,Ontime,long,j,1,2.0084,5,0,20,2,1,,,,,
,0.59,,,,,,,,,k,purple,5f6e72f4f0d70a3c02af4ee6,2021-09-27_16h08.39.353,forced_choiceRT_color,2021.2.3,Win32,59.80861244,,,,,,,,8,Ontime,long,k,1,2.0531,5,1,21,3,1,,,,,
,1.94,,,,,,,,,f,blue,5f6e72f4f0d70a3c02af4ee6,2021-09-27_16h08.39.353,forced_choiceRT_color,2021.2.3,Win32,59.80861244,,,,,,,,8,Slow,long,j,0,2.1381,5,2,22,1,1,,,,,
,1.16,,,,,,,,,f,blue,5f6e72f4f0d70a3c02af4ee6,2021-09-27_16h08.39.353,forced_choiceRT_color,2021.2.3,Win32,59.80861244,,,,,,,,8,Ontime,long,f,1,1.9012,5,3,23,1,1,,,,,
,1.78,,,,,,,,,f,blue,5f6e72f4f0d70a3c02af4ee6,2021-09-27_16h08.39.353,forced_choiceRT_color,2021.2.3,Win32,59.80861244,,,,,,,,8,Ontime,long,d,0,2.0908,6,0,24,1,1,,,,,
,1.34,,,,,,,,,k,purple,5f6e72f4f0d70a3c02af4ee6,2021-09-27_16h08.39.353,forced_choiceRT_color,2021.2.3,Win32,59.80861244,,,,,,,,8,Ontime,long,k,1,2.0091,6,1,25,3,1,,,,,
,1.35,,,,,,,,,k,purple,5f6e72f4f0d70a3c02af4ee6,2021-09-27_16h08.39.353,forced_choiceRT_color,2021.2.3,Win32,59.80861244,,,,,,,,8,Ontime,long,k,1,1.9601,6,2,26,3,1,,,,,
,1.2,,,,,,,,,f,blue,5f6e72f4f0d70a3c02af4ee6,2021-09-27_16h08.39.353,forced_choiceRT_color,2021.2.3,Win32,59.80861244,,,,,,,,8,Ontime,long,f,1,1.9737,6,3,27,1,1,,,,,
,0.59,,,,,,,,,d,orange,5f6e72f4f0d70a3c02af4ee6,2021-09-27_16h08.39.353,forced_choiceRT_color,2021.2.3,Win32,59.80861244,,,,,,,,8,Ontime,long,d,1,2.0423,7,0,28,0,1,,,,,
,0.36,,,,,,,,,k,purple,5f6e72f4f0d70a3c02af4ee6,2021-09-27_16h08.39.353,forced_choiceRT_color,2021.2.3,Win32,59.80861244,,,,,,,,8,Ontime,long,k,1,1.9386,7,1,29,3,1,,,,,
,0.4,,,,,,,,,d,orange,5f6e72f4f0d70a3c02af4ee6,2021-09-27_16h08.39.353,forced_choiceRT_color,2021.2.3,Win32,59.80861244,,,,,,,,8,Ontime,long,d,1,2.0563,7,2,30,0,1,,,,,
,1.46,,,,,,,,,f,blue,5f6e72f4f0d70a3c02af4ee6,2021-09-27_16h08.39.353,forced_choiceRT_color,2021.2.3,Win32,59.80861244,,,,,,,,8,Slow,long,f,1,2.1168,7,3,31,1,1,,,,,
,0.99,,,,,,,,,f,blue,5f6e72f4f0d70a3c02af4ee6,2021-09-27_16h08.39.353,forced_choiceRT_color,2021.2.3,Win32,59.80861244,,,,,,,,8,Ontime,long,f,1,2.0528,8,0,32,1,1,,,,,
,0.37,,,,,,,,,d,orange,5f6e72f4f0d70a3c02af4ee6,2021-09-27_16h08.39.353,forced_choiceRT_color,2021.2.3,Win32,59.80861244,,,,,,,,8,Ontime,long,d,1,2.0798,8,1,33,0,1,,,,,
,0.56,,,,,,,,,j,red,5f6e72f4f0d70a3c02af4ee6,2021-09-27_16h08.39.353,forced_choiceRT_color,2021.2.3,Win32,59.80861244,,,,,,,,8,Ontime,long,j,1,2.077,8,2,34,2,1,,,,,
,0.55,,,,,,,,,d,orange,5f6e72f4f0d70a3c02af4ee6,2021-09-27_16h08.39.353,forced_choiceRT_color,2021.2.3,Win32,59.80861244,,,,,,,,8,Ontime,long,d,1,2.0266,8,3,35,0,1,,,,,
,0.1,,,,,,,,,j,red,5f6e72f4f0d70a3c02af4ee6,2021-09-27_16h08.39.353,forced_choiceRT_color,2021.2.3,Win32,59.80861244,,,,,,,,8,Ontime,long,j,1,2.033,9,0,36,2,1,,,,,
,0.64,,,,,,,,,f,blue,5f6e72f4f0d70a3c02af4ee6,2021-09-27_16h08.39.353,forced_choiceRT_color,2021.2.3,Win32,59.80861244,,,,,,,,8,Ontime,long,f,1,2.0834,9,1,37,1,1,,,,,
,1.71,,,,,,,,,j,red,5f6e72f4f0d70a3c02af4ee6,2021-09-27_16h08.39.353,forced_choiceRT_color,2021.2.3,Win32,59.80861244,,,,,,,,8,Ontime,long,k,0,2.0086,9,2,38,2,1,,,,,
,1.35,,,,,,,,,k,purple,5f6e72f4f0d70a3c02af4ee6,2021-09-27_16h08.39.353,forced_choiceRT_color,2021.2.3,Win32,59.80861244,,,,,,,,8,Ontime,long,k,1,2.0377,9,3,39,3,1,,,,,
,,,,,,,,,,,,5f6e72f4f0d70a3c02af4ee6,2021-09-27_16h08.39.353,forced_choiceRT_color,2021.2.3,Win32,59.80861244,,,,,,,,,,,,,,,,,,,7,0,7,0,1
,1.94,,,,,,,,,d,orange,5f6e72f4f0d70a3c02af4ee6,2021-09-27_16h08.39.353,forced_choiceRT_color,2021.2.3,Win32,59.80861244,,,,,,,,9,Ontime,long,j,0,2.069,0,0,0,0,1,,,,,
,1.36,,,,,,,,,j,red,5f6e72f4f0d70a3c02af4ee6,2021-09-27_16h08.39.353,forced_choiceRT_color,2021.2.3,Win32,59.80861244,,,,,,,,9,Slow,long,j,1,2.1415,0,1,1,2,1,,,,,
,1.6,,,,,,,,,k,purple,5f6e72f4f0d70a3c02af4ee6,2021-09-27_16h08.39.353,forced_choiceRT_color,2021.2.3,Win32,59.80861244,,,,,,,,9,Ontime,long,k,1,1.9987,0,2,2,3,1,,,,,
,1.66,,,,,,,,,f,blue,5f6e72f4f0d70a3c02af4ee6,2021-09-27_16h08.39.353,forced_choiceRT_color,2021.2.3,Win32,59.80861244,,,,,,,,9,Ontime,long,f,1,2.026,0,3,3,1,1,,,,,
,1.53,,,,,,,,,f,blue,5f6e72f4f0d70a3c02af4ee6,2021-09-27_16h08.39.353,forced_choiceRT_color,2021.2.3,Win32,59.80861244,,,,,,,,9,Ontime,long,j,0,1.9359,1,0,4,1,1,,,,,
,0.36,,,,,,,,,f,blue,5f6e72f4f0d70a3c02af4ee6,2021-09-27_16h08.39.353,forced_choiceRT_color,2021.2.3,Win32,59.80861244,,,,,,,,9,Ontime,long,f,1,2.042,1,1,5,1,1,,,,,
,1.08,,,,,,,,,d,orange,5f6e72f4f0d70a3c02af4ee6,2021-09-27_16h08.39.353,forced_choiceRT_color,2021.2.3,Win32,59.80861244,,,,,,,,9,Fast,long,d,1,1.896,1,2,6,0,1,,,,,
,0.07,,,,,,,,,d,orange,5f6e72f4f0d70a3c02af4ee6,2021-09-27_16h08.39.353,forced_choiceRT_color,2021.2.3,Win32,59.80861244,,,,,,,,9,Ontime,long,d,1,2.0113,1,3,7,0,1,,,,,
,0.32,,,,,,,,,j,red,5f6e72f4f0d70a3c02af4ee6,2021-09-27_16h08.39.353,forced_choiceRT_color,2021.2.3,Win32,59.80861244,,,,,,,,9,Ontime,long,j,1,2.0458,2,0,8,2,1,,,,,
,0.02,,,,,,,,,d,orange,5f6e72f4f0d70a3c02af4ee6,2021-09-27_16h08.39.353,forced_choiceRT_color,2021.2.3,Win32,59.80861244,,,,,,,,9,Ontime,long,d,1,2.0003,2,1,9,0,1,,,,,
,0.43,,,,,,,,,f,blue,5f6e72f4f0d70a3c02af4ee6,2021-09-27_16h08.39.353,forced_choiceRT_color,2021.2.3,Win32,59.80861244,,,,,,,,9,Slow,long,f,1,2.1289,2,2,10,1,1,,,,,
,0.02,,,,,,,,,d,orange,5f6e72f4f0d70a3c02af4ee6,2021-09-27_16h08.39.353,forced_choiceRT_color,2021.2.3,Win32,59.80861244,,,,,,,,9,Ontime,long,d,1,1.9334,2,3,11,0,1,,,,,
,1.63,,,,,,,,,k,purple,5f6e72f4f0d70a3c02af4ee6,2021-09-27_16h08.39.353,forced_choiceRT_color,2021.2.3,Win32,59.80861244,,,,,,,,9,Slow,long,k,1,2.1708,3,0,12,3,1,,,,,
,1.51,,,,,,,,,k,purple,5f6e72f4f0d70a3c02af4ee6,2021-09-27_16h08.39.353,forced_choiceRT_color,2021.2.3,Win32,59.80861244,,,,,,,,9,Ontime,long,k,1,2.098,3,1,13,3,1,,,,,
,1.11,,,,,,,,,f,blue,5f6e72f4f0d70a3c02af4ee6,2021-09-27_16h08.39.353,forced_choiceRT_color,2021.2.3,Win32,59.80861244,,,,,,,,9,Ontime,long,f,1,2.0077,3,2,14,1,1,,,,,
,0.16,,,,,,,,,f,blue,5f6e72f4f0d70a3c02af4ee6,2021-09-27_16h08.39.353,forced_choiceRT_color,2021.2.3,Win32,59.80861244,,,,,,,,9,Ontime,long,f,1,2.0104,3,3,15,1,1,,,,,
,0.87,,,,,,,,,j,red,5f6e72f4f0d70a3c02af4ee6,2021-09-27_16h08.39.353,forced_choiceRT_color,2021.2.3,Win32,59.80861244,,,,,,,,9,Ontime,long,j,1,2.035,4,0,16,2,1,,,,,
,0.9,,,,,,,,,f,blue,5f6e72f4f0d70a3c02af4ee6,2021-09-27_16h08.39.353,forced_choiceRT_color,2021.2.3,Win32,59.80861244,,,,,,,,9,Ontime,long,f,1,2.0723,4,1,17,1,1,,,,,
,0.93,,,,,,,,,j,red,5f6e72f4f0d70a3c02af4ee6,2021-09-27_16h08.39.353,forced_choiceRT_color,2021.2.3,Win32,59.80861244,,,,,,,,9,Ontime,long,j,1,2.0035,4,2,18,2,1,,,,,
,1.47,,,,,,,,,d,orange,5f6e72f4f0d70a3c02af4ee6,2021-09-27_16h08.39.353,forced_choiceRT_color,2021.2.3,Win32,59.80861244,,,,,,,,9,Slow,long,d,1,2.1107,4,3,19,0,1,,,,,
,1.43,,,,,,,,,k,purple,5f6e72f4f0d70a3c02af4ee6,2021-09-27_16h08.39.353,forced_choiceRT_color,2021.2.3,Win32,59.80861244,,,,,,,,9,Ontime,long,k,1,1.999,5,0,20,3,1,,,,,
,0.77,,,,,,,,,k,purple,5f6e72f4f0d70a3c02af4ee6,2021-09-27_16h08.39.353,forced_choiceRT_color,2021.2.3,Win32,59.80861244,,,,,,,,9,Ontime,long,k,1,1.9795,5,1,21,3,1,,,,,
,0.31,,,,,,,,,j,red,5f6e72f4f0d70a3c02af4ee6,2021-09-27_16h08.39.353,forced_choiceRT_color,2021.2.3,Win32,59.80861244,,,,,,,,9,Ontime,long,j,1,1.9811,5,2,22,2,1,,,,,
,0.13,,,,,,,,,d,orange,5f6e72f4f0d70a3c02af4ee6,2021-09-27_16h08.39.353,forced_choiceRT_color,2021.2.3,Win32,59.80861244,,,,,,,,9,Ontime,long,d,1,1.9277,5,3,23,0,1,,,,,
,1.28,,,,,,,,,j,red,5f6e72f4f0d70a3c02af4ee6,2021-09-27_16h08.39.353,forced_choiceRT_color,2021.2.3,Win32,59.80861244,,,,,,,,9,Ontime,long,j,1,2.0132,6,0,24,2,1,,,,,
,1.28,,,,,,,,,d,orange,5f6e72f4f0d70a3c02af4ee6,2021-09-27_16h08.39.353,forced_choiceRT_color,2021.2.3,Win32,59.80861244,,,,,,,,9,Ontime,long,d,1,2.019,6,1,25,0,1,,,,,
,0.58,,,,,,,,,k,purple,5f6e72f4f0d70a3c02af4ee6,2021-09-27_16h08.39.353,forced_choiceRT_color,2021.2.3,Win32,59.80861244,,,,,,,,9,Ontime,long,k,1,2.0132,6,2,26,3,1,,,,,
,1.25,,,,,,,,,k,purple,5f6e72f4f0d70a3c02af4ee6,2021-09-27_16h08.39.353,forced_choiceRT_color,2021.2.3,Win32,59.80861244,,,,,,,,9,Ontime,long,k,1,1.9867,6,3,27,3,1,,,,,
,0.01,,,,,,,,,j,red,5f6e72f4f0d70a3c02af4ee6,2021-09-27_16h08.39.353,forced_choiceRT_color,2021.2.3,Win32,59.80861244,,,,,,,,9,Slow,long,j,1,2.137,7,0,28,2,1,,,,,
,0.78,,,,,,,,,j,red,5f6e72f4f0d70a3c02af4ee6,2021-09-27_16h08.39.353,forced_choiceRT_color,2021.2.3,Win32,59.80861244,,,,,,,,9,Ontime,long,j,1,2.0663,7,1,29,2,1,,,,,
,0.95,,,,,,,,,k,purple,5f6e72f4f0d70a3c02af4ee6,2021-09-27_16h08.39.353,forced_choiceRT_color,2021.2.3,Win32,59.80861244,,,,,,,,9,Ontime,long,k,1,2.0483,7,2,30,3,1,,,,,
,0.2,,,,,,,,,f,blue,5f6e72f4f0d70a3c02af4ee6,2021-09-27_16h08.39.353,forced_choiceRT_color,2021.2.3,Win32,59.80861244,,,,,,,,9,Ontime,long,f,1,2.0033,7,3,31,1,1,,,,,
,0.5,,,,,,,,,f,blue,5f6e72f4f0d70a3c02af4ee6,2021-09-27_16h08.39.353,forced_choiceRT_color,2021.2.3,Win32,59.80861244,,,,,,,,9,Ontime,long,f,1,2.0508,8,0,32,1,1,,,,,
,1.03,,,,,,,,,d,orange,5f6e72f4f0d70a3c02af4ee6,2021-09-27_16h08.39.353,forced_choiceRT_color,2021.2.3,Win32,59.80861244,,,,,,,,9,Ontime,long,d,1,1.9687,8,1,33,0,1,,,,,
,1.44,,,,,,,,,j,red,5f6e72f4f0d70a3c02af4ee6,2021-09-27_16h08.39.353,forced_choiceRT_color,2021.2.3,Win32,59.80861244,,,,,,,,9,Slow,long,j,1,2.1172,8,2,34,2,1,,,,,
,0.93,,,,,,,,,k,purple,5f6e72f4f0d70a3c02af4ee6,2021-09-27_16h08.39.353,forced_choiceRT_color,2021.2.3,Win32,59.80861244,,,,,,,,9,Ontime,long,k,1,2.0695,8,3,35,3,1,,,,,
,0.26,,,,,,,,,j,red,5f6e72f4f0d70a3c02af4ee6,2021-09-27_16h08.39.353,forced_choiceRT_color,2021.2.3,Win32,59.80861244,,,,,,,,9,Ontime,long,j,1,1.9593,9,0,36,2,1,,,,,
,0.11,,,,,,,,,k,purple,5f6e72f4f0d70a3c02af4ee6,2021-09-27_16h08.39.353,forced_choiceRT_color,2021.2.3,Win32,59.80861244,,,,,,,,9,Ontime,long,k,1,2.0175,9,1,37,3,1,,,,,
,1.94,,,,,,,,,d,orange,5f6e72f4f0d70a3c02af4ee6,2021-09-27_16h08.39.353,forced_choiceRT_color,2021.2.3,Win32,59.80861244,,,,,,,,9,Ontime,long,j,0,2.0597,9,2,38,0,1,,,,,
,0.41,,,,,,,,,f,blue,5f6e72f4f0d70a3c02af4ee6,2021-09-27_16h08.39.353,forced_choiceRT_color,2021.2.3,Win32,59.80861244,,,,,,,,9,Ontime,long,f,1,1.9161,9,3,39,1,1,,,,,
,,,,,,,,,,,,5f6e72f4f0d70a3c02af4ee6,2021-09-27_16h08.39.353,forced_choiceRT_color,2021.2.3,Win32,59.80861244,,,,,,,,,,,,,,,,,,,8,0,8,0,1
,0.93,,,,,,,,,k,purple,5f6e72f4f0d70a3c02af4ee6,2021-09-27_16h08.39.353,forced_choiceRT_color,2021.2.3,Win32,59.80861244,,,,,,,,10,Ontime,long,k,1,1.9935,0,0,0,3,1,,,,,
,0.87,,,,,,,,,k,purple,5f6e72f4f0d70a3c02af4ee6,2021-09-27_16h08.39.353,forced_choiceRT_color,2021.2.3,Win32,59.80861244,,,,,,,,10,Ontime,long,k,1,1.9966,0,1,1,3,1,,,,,
,1.33,,,,,,,,,d,orange,5f6e72f4f0d70a3c02af4ee6,2021-09-27_16h08.39.353,forced_choiceRT_color,2021.2.3,Win32,59.80861244,,,,,,,,10,Slow,long,d,1,2.1301,0,2,2,0,1,,,,,
,0.15,,,,,,,,,k,purple,5f6e72f4f0d70a3c02af4ee6,2021-09-27_16h08.39.353,forced_choiceRT_color,2021.2.3,Win32,59.80861244,,,,,,,,10,Ontime,long,k,1,2.0435,0,3,3,3,1,,,,,
,0.02,,,,,,,,,d,orange,5f6e72f4f0d70a3c02af4ee6,2021-09-27_16h08.39.353,forced_choiceRT_color,2021.2.3,Win32,59.80861244,,,,,,,,10,Ontime,long,d,1,2.0013,1,0,4,0,1,,,,,
,1.96,,,,,,,,,d,orange,5f6e72f4f0d70a3c02af4ee6,2021-09-27_16h08.39.353,forced_choiceRT_color,2021.2.3,Win32,59.80861244,,,,,,,,10,Ontime,long,j,0,2.0766,1,1,5,0,1,,,,,
,0.11,,,,,,,,,d,orange,5f6e72f4f0d70a3c02af4ee6,2021-09-27_16h08.39.353,forced_choiceRT_color,2021.2.3,Win32,59.80861244,,,,,,,,10,Ontime,long,d,1,2.0666,1,2,6,0,1,,,,,
,1.87,,,,,,,,,j,red,5f6e72f4f0d70a3c02af4ee6,2021-09-27_16h08.39.353,forced_choiceRT_color,2021.2.3,Win32,59.80861244,,,,,,,,10,Ontime,long,j,1,2.0038,1,3,7,2,1,,,,,
,0.96,,,,,,,,,k,purple,5f6e72f4f0d70a3c02af4ee6,2021-09-27_16h08.39.353,forced_choiceRT_color,2021.2.3,Win32,59.80861244,,,,,,,,10,Ontime,long,k,1,2.0385,2,0,8,3,1,,,,,
,1.19,,,,,,,,,k,purple,5f6e72f4f0d70a3c02af4ee6,2021-09-27_16h08.39.353,forced_choiceRT_color,2021.2.3,Win32,59.80861244,,,,,,,,10,Ontime,long,k,1,2.0095,2,1,9,3,1,,,,,
,0.81,,,,,,,,,f,blue,5f6e72f4f0d70a3c02af4ee6,2021-09-27_16h08.39.353,forced_choiceRT_color,2021.2.3,Win32,59.80861244,,,,,,,,10,Ontime,long,f,1,2.038,2,2,10,1,1,,,,,
,0.46,,,,,,,,,k,purple,5f6e72f4f0d70a3c02af4ee6,2021-09-27_16h08.39.353,forced_choiceRT_color,2021.2.3,Win32,59.80861244,,,,,,,,10,Ontime,long,k,1,2.0751,2,3,11,3,1,,,,,
,1.81,,,,,,,,,f,blue,5f6e72f4f0d70a3c02af4ee6,2021-09-27_16h08.39.353,forced_choiceRT_color,2021.2.3,Win32,59.80861244,,,,,,,,10,Ontime,long,d,0,1.9955,3,0,12,1,1,,,,,
,1.56,,,,,,,,,j,red,5f6e72f4f0d70a3c02af4ee6,2021-09-27_16h08.39.353,forced_choiceRT_color,2021.2.3,Win32,59.80861244,,,,,,,,10,Ontime,long,j,1,2.0341,3,1,13,2,1,,,,,
,0.01,,,,,,,,,f,blue,5f6e72f4f0d70a3c02af4ee6,2021-09-27_16h08.39.353,forced_choiceRT_color,2021.2.3,Win32,59.80861244,,,,,,,,10,Ontime,long,f,1,2.0489,3,2,14,1,1,,,,,
,1.72,,,,,,,,,k,purple,5f6e72f4f0d70a3c02af4ee6,2021-09-27_16h08.39.353,forced_choiceRT_color,2021.2.3,Win32,59.80861244,,,,,,,,10,Ontime,long,k,1,2.0381,3,3,15,3,1,,,,,
,0.09,,,,,,,,,d,orange,5f6e72f4f0d70a3c02af4ee6,2021-09-27_16h08.39.353,forced_choiceRT_color,2021.2.3,Win32,59.80861244,,,,,,,,10,Slow,long,d,1,2.1565,4,0,16,0,1,,,,,
,1.25,,,,,,,,,j,red,5f6e72f4f0d70a3c02af4ee6,2021-09-27_16h08.39.353,forced_choiceRT_color,2021.2.3,Win32,59.80861244,,,,,,,,10,Ontime,long,j,1,1.9977,4,1,17,2,1,,,,,
,0.36,,,,,,,,,j,red,5f6e72f4f0d70a3c02af4ee6,2021-09-27_16h08.39.353,forced_choiceRT_color,2021.2.3,Win32,59.80861244,,,,,,,,10,Ontime,long,j,1,2.0168,4,2,18,2,1,,,,,
,1.02,,,,,,,,,k,purple,5f6e72f4f0d70a3c02af4ee6,2021-09-27_16h08.39.353,forced_choiceRT_color,2021.2.3,Win32,59.80861244,,,,,,,,10,Ontime,long,k,1,2.0285,4,3,19,3,1,,,,,
,0.5,,,,,,,,,d,orange,5f6e72f4f0d70a3c02af4ee6,2021-09-27_16h08.39.353,forced_choiceRT_color,2021.2.3,Win32,59.80861244,,,,,,,,10,Ontime,long,d,1,2.0848,5,0,20,0,1,,,,,
,0.21,,,,,,,,,f,blue,5f6e72f4f0d70a3c02af4ee6,2021-09-27_16h08.39.353,forced_choiceRT_color,2021.2.3,Win32,59.80861244,,,,,,,,10,Ontime,long,f,1,2.0496,5,1,21,1,1,,,,,
,1.57,,,,,,,,,d,orange,5f6e72f4f0d70a3c02af4ee6,2021-09-27_16h08.39.353,forced_choiceRT_color,2021.2.3,Win32,59.80861244,,,,,,,,10,Ontime,long,j,0,2.0438,5,2,22,0,1,,,,,
,0.79,,,,,,,,,j,red,5f6e72f4f0d70a3c02af4ee6,2021-09-27_16h08.39.353,forced_choiceRT_color,2021.2.3,Win32,59.80861244,,,,,,,,10,Ontime,long,j,1,2.0907,5,3,23,2,1,,,,,
,1.37,,,,,,,,,j,red,5f6e72f4f0d70a3c02af4ee6,2021-09-27_16h08.39.353,forced_choiceRT_color,2021.2.3,Win32,59.80861244,,,,,,,,10,Ontime,long,j,1,2.0718,6,0,24,2,1,,,,,
,0.24,,,,,,,,,d,orange,5f6e72f4f0d70a3c02af4ee6,2021-09-27_16h08.39.353,forced_choiceRT_color,2021.2.3,Win32,59.80861244,,,,,,,,10,Ontime,long,d,1,2.0154,6,1,25,0,1,,,,,
,1.44,,,,,,,,,j,red,5f6e72f4f0d70a3c02af4ee6,2021-09-27_16h08.39.353,forced_choiceRT_color,2021.2.3,Win32,59.80861244,,,,,,,,10,Ontime,long,j,1,2.0624,6,2,26,2,1,,,,,
,1.94,,,,,,,,,f,blue,5f6e72f4f0d70a3c02af4ee6,2021-09-27_16h08.39.353,forced_choiceRT_color,2021.2.3,Win32,59.80861244,,,,,,,,10,Slow,long,d,0,2.1393,6,3,27,1,1,,,,,
,0.57,,,,,,,,,d,orange,5f6e72f4f0d70a3c02af4ee6,2021-09-27_16h08.39.353,forced_choiceRT_color,2021.2.3,Win32,59.80861244,,,,,,,,10,Ontime,long,d,1,2.0441,7,0,28,0,1,,,,,
,0.59,,,,,,,,,j,red,5f6e72f4f0d70a3c02af4ee6,2021-09-27_16h08.39.353,forced_choiceRT_color,2021.2.3,Win32,59.80861244,,,,,,,,10,Ontime,long,j,1,2.0865,7,1,29,2,1,,,,,
,0.97,,,,,,,,,k,purple,5f6e72f4f0d70a3c02af4ee6,2021-09-27_16h08.39.353,forced_choiceRT_color,2021.2.3,Win32,59.80861244,,,,,,,,10,Slow,long,k,1,2.1846,7,2,30,3,1,,,,,
,0.35,,,,,,,,,k,purple,5f6e72f4f0d70a3c02af4ee6,2021-09-27_16h08.39.353,forced_choiceRT_color,2021.2.3,Win32,59.80861244,,,,,,,,10,Ontime,long,k,1,2.0692,7,3,31,3,1,,,,,
,1.97,,,,,,,,,f,blue,5f6e72f4f0d70a3c02af4ee6,2021-09-27_16h08.39.353,forced_choiceRT_color,2021.2.3,Win32,59.80861244,,,,,,,,10,Slow,long,f,1,2.1432,8,0,32,1,1,,,,,
,1,,,,,,,,,f,blue,5f6e72f4f0d70a3c02af4ee6,2021-09-27_16h08.39.353,forced_choiceRT_color,2021.2.3,Win32,59.80861244,,,,,,,,10,Ontime,long,f,1,1.9788,8,1,33,1,1,,,,,
,0.64,,,,,,,,,f,blue,5f6e72f4f0d70a3c02af4ee6,2021-09-27_16h08.39.353,forced_choiceRT_color,2021.2.3,Win32,59.80861244,,,,,,,,10,Ontime,long,f,1,2.0537,8,2,34,1,1,,,,,
,0.16,,,,,,,,,d,orange,5f6e72f4f0d70a3c02af4ee6,2021-09-27_16h08.39.353,forced_choiceRT_color,2021.2.3,Win32,59.80861244,,,,,,,,10,Ontime,long,d,1,2.0186,8,3,35,0,1,,,,,
,0.62,,,,,,,,,j,red,5f6e72f4f0d70a3c02af4ee6,2021-09-27_16h08.39.353,forced_choiceRT_color,2021.2.3,Win32,59.80861244,,,,,,,,10,Ontime,long,j,1,2.0682,9,0,36,2,1,,,,,
,1.51,,,,,,,,,j,red,5f6e72f4f0d70a3c02af4ee6,2021-09-27_16h08.39.353,forced_choiceRT_color,2021.2.3,Win32,59.80861244,,,,,,,,10,Ontime,long,j,1,2.0861,9,1,37,2,1,,,,,
,0.37,,,,,,,,,f,blue,5f6e72f4f0d70a3c02af4ee6,2021-09-27_16h08.39.353,forced_choiceRT_color,2021.2.3,Win32,59.80861244,,,,,,,,10,Ontime,long,f,1,2.0008,9,2,38,1,1,,,,,
,0.9,,,,,,,,,f,blue,5f6e72f4f0d70a3c02af4ee6,2021-09-27_16h08.39.353,forced_choiceRT_color,2021.2.3,Win32,59.80861244,,,,,,,,10,Ontime,long,f,1,2.0926,9,3,39,1,1,,,,,
,,,,,,,,,,,,5f6e72f4f0d70a3c02af4ee6,2021-09-27_16h08.39.353,forced_choiceRT_color,2021.2.3,Win32,59.80861244,,,,,,,,,,,,,,,,,,,9,0,9,0,1
