IP_Addresss,target_onset,trial_resp_sp.keys,trial_resp_sp.corr,trial_resp_sp.rt,trials_train_loop.thisRepN,trials_train_loop.thisTrialN,trials_train_loop.thisN,trials_train_loop.thisIndex,trials_train_loop.ran,correct_key,color,participant,date,expName,psychopyVersion,OS,frameRate,trial_resp_timing.keys,trial_resp_timing.rt,trials_train_timing.thisRepN,trials_train_timing.thisTrialN,trials_train_timing.thisN,trials_train_timing.thisIndex,trials_train_timing.ran,block_id,ontime,feedback_cond,forcedRT_resp.keys,forcedRT_resp.corr,forcedRT_resp.rt,trials.thisRepN,trials.thisTrialN,trials.thisN,trials.thisIndex,trials.ran,blocks.thisRepN,blocks.thisTrialN,blocks.thisN,blocks.thisIndex,blocks.ran
172.76.157.31,0,d,1,0.9772,0,0,0,0,1,d,orange,5f6f44e9451a3b0836b5d32c,2021-09-27_16h07.44.799,forced_choiceRT_color,2021.2.3,Win32,74.92320372,,,,,,,,,,,,,,,,,,,,,,,
,0,k,1,0.7801,0,1,1,3,1,k,purple,5f6f44e9451a3b0836b5d32c,2021-09-27_16h07.44.799,forced_choiceRT_color,2021.2.3,Win32,74.92320372,,,,,,,,,,,,,,,,,,,,,,,
,0,d,1,0.7142,0,2,2,0,1,d,orange,5f6f44e9451a3b0836b5d32c,2021-09-27_16h07.44.799,forced_choiceRT_color,2021.2.3,Win32,74.92320372,,,,,,,,,,,,,,,,,,,,,,,
,0,j,1,0.9403,0,3,3,2,1,j,red,5f6f44e9451a3b0836b5d32c,2021-09-27_16h07.44.799,forced_choiceRT_color,2021.2.3,Win32,74.92320372,,,,,,,,,,,,,,,,,,,,,,,
,0,k,1,0.6132,1,0,4,3,1,k,purple,5f6f44e9451a3b0836b5d32c,2021-09-27_16h07.44.799,forced_choiceRT_color,2021.2.3,Win32,74.92320372,,,,,,,,,,,,,,,,,,,,,,,
,0,k,1,0.4876,1,1,5,3,1,k,purple,5f6f44e9451a3b0836b5d32c,2021-09-27_16h07.44.799,forced_choiceRT_color,2021.2.3,Win32,74.92320372,,,,,,,,,,,,,,,,,,,,,,,
,0,d,1,0.6658,1,2,6,0,1,d,orange,5f6f44e9451a3b0836b5d32c,2021-09-27_16h07.44.799,forced_choiceRT_color,2021.2.3,Win32,74.92320372,,,,,,,,,,,,,,,,,,,,,,,
,0,f,1,0.5049,1,3,7,1,1,f,blue,5f6f44e9451a3b0836b5d32c,2021-09-27_16h07.44.799,forced_choiceRT_color,2021.2.3,Win32,74.92320372,,,,,,,,,,,,,,,,,,,,,,,
,0,d,1,0.738,2,0,8,0,1,d,orange,5f6f44e9451a3b0836b5d32c,2021-09-27_16h07.44.799,forced_choiceRT_color,2021.2.3,Win32,74.92320372,,,,,,,,,,,,,,,,,,,,,,,
,0,j,1,0.7286,2,1,9,2,1,j,red,5f6f44e9451a3b0836b5d32c,2021-09-27_16h07.44.799,forced_choiceRT_color,2021.2.3,Win32,74.92320372,,,,,,,,,,,,,,,,,,,,,,,
,0,j,1,0.4393,2,2,10,2,1,j,red,5f6f44e9451a3b0836b5d32c,2021-09-27_16h07.44.799,forced_choiceRT_color,2021.2.3,Win32,74.92320372,,,,,,,,,,,,,,,,,,,,,,,
,0,d,1,0.6198,2,3,11,0,1,d,orange,5f6f44e9451a3b0836b5d32c,2021-09-27_16h07.44.799,forced_choiceRT_color,2021.2.3,Win32,74.92320372,,,,,,,,,,,,,,,,,,,,,,,
,0,j,1,0.7991,3,0,12,2,1,j,red,5f6f44e9451a3b0836b5d32c,2021-09-27_16h07.44.799,forced_choiceRT_color,2021.2.3,Win32,74.92320372,,,,,,,,,,,,,,,,,,,,,,,
,0,f,1,0.7397,3,1,13,1,1,f,blue,5f6f44e9451a3b0836b5d32c,2021-09-27_16h07.44.799,forced_choiceRT_color,2021.2.3,Win32,74.92320372,,,,,,,,,,,,,,,,,,,,,,,
,0,f,1,0.4907,3,2,14,1,1,f,blue,5f6f44e9451a3b0836b5d32c,2021-09-27_16h07.44.799,forced_choiceRT_color,2021.2.3,Win32,74.92320372,,,,,,,,,,,,,,,,,,,,,,,
,0,f,1,0.5346,3,3,15,1,1,f,blue,5f6f44e9451a3b0836b5d32c,2021-09-27_16h07.44.799,forced_choiceRT_color,2021.2.3,Win32,74.92320372,,,,,,,,,,,,,,,,,,,,,,,
,0,d,1,0.5648,4,0,16,0,1,d,orange,5f6f44e9451a3b0836b5d32c,2021-09-27_16h07.44.799,forced_choiceRT_color,2021.2.3,Win32,74.92320372,,,,,,,,,,,,,,,,,,,,,,,
,0,k,1,0.5873,4,1,17,3,1,k,purple,5f6f44e9451a3b0836b5d32c,2021-09-27_16h07.44.799,forced_choiceRT_color,2021.2.3,Win32,74.92320372,,,,,,,,,,,,,,,,,,,,,,,
,0,k,1,0.7434,4,2,18,3,1,k,purple,5f6f44e9451a3b0836b5d32c,2021-09-27_16h07.44.799,forced_choiceRT_color,2021.2.3,Win32,74.92320372,,,,,,,,,,,,,,,,,,,,,,,
,0,d,1,0.6211,4,3,19,0,1,d,orange,5f6f44e9451a3b0836b5d32c,2021-09-27_16h07.44.799,forced_choiceRT_color,2021.2.3,Win32,74.92320372,,,,,,,,,,,,,,,,,,,,,,,
,0,j,1,0.6873,5,0,20,2,1,j,red,5f6f44e9451a3b0836b5d32c,2021-09-27_16h07.44.799,forced_choiceRT_color,2021.2.3,Win32,74.92320372,,,,,,,,,,,,,,,,,,,,,,,
,0,k,1,0.6517,5,1,21,3,1,k,purple,5f6f44e9451a3b0836b5d32c,2021-09-27_16h07.44.799,forced_choiceRT_color,2021.2.3,Win32,74.92320372,,,,,,,,,,,,,,,,,,,,,,,
,0,f,1,0.5811,5,2,22,1,1,f,blue,5f6f44e9451a3b0836b5d32c,2021-09-27_16h07.44.799,forced_choiceRT_color,2021.2.3,Win32,74.92320372,,,,,,,,,,,,,,,,,,,,,,,
,0,j,1,0.7189,5,3,23,2,1,j,red,5f6f44e9451a3b0836b5d32c,2021-09-27_16h07.44.799,forced_choiceRT_color,2021.2.3,Win32,74.92320372,,,,,,,,,,,,,,,,,,,,,,,
,0,f,1,0.5634,6,0,24,1,1,f,blue,5f6f44e9451a3b0836b5d32c,2021-09-27_16h07.44.799,forced_choiceRT_color,2021.2.3,Win32,74.92320372,,,,,,,,,,,,,,,,,,,,,,,
,0,k,1,0.5971,6,1,25,3,1,k,purple,5f6f44e9451a3b0836b5d32c,2021-09-27_16h07.44.799,forced_choiceRT_color,2021.2.3,Win32,74.92320372,,,,,,,,,,,,,,,,,,,,,,,
,0,j,1,0.8565,6,2,26,2,1,j,red,5f6f44e9451a3b0836b5d32c,2021-09-27_16h07.44.799,forced_choiceRT_color,2021.2.3,Win32,74.92320372,,,,,,,,,,,,,,,,,,,,,,,
,0,d,1,0.583,6,3,27,0,1,d,orange,5f6f44e9451a3b0836b5d32c,2021-09-27_16h07.44.799,forced_choiceRT_color,2021.2.3,Win32,74.92320372,,,,,,,,,,,,,,,,,,,,,,,
,0,f,1,0.6262,7,0,28,1,1,f,blue,5f6f44e9451a3b0836b5d32c,2021-09-27_16h07.44.799,forced_choiceRT_color,2021.2.3,Win32,74.92320372,,,,,,,,,,,,,,,,,,,,,,,
,0,f,1,0.5158,7,1,29,1,1,f,blue,5f6f44e9451a3b0836b5d32c,2021-09-27_16h07.44.799,forced_choiceRT_color,2021.2.3,Win32,74.92320372,,,,,,,,,,,,,,,,,,,,,,,
,0,k,1,0.5582,7,2,30,3,1,k,purple,5f6f44e9451a3b0836b5d32c,2021-09-27_16h07.44.799,forced_choiceRT_color,2021.2.3,Win32,74.92320372,,,,,,,,,,,,,,,,,,,,,,,
,0,j,1,0.5462,7,3,31,2,1,j,red,5f6f44e9451a3b0836b5d32c,2021-09-27_16h07.44.799,forced_choiceRT_color,2021.2.3,Win32,74.92320372,,,,,,,,,,,,,,,,,,,,,,,
,0,j,1,0.5003,8,0,32,2,1,j,red,5f6f44e9451a3b0836b5d32c,2021-09-27_16h07.44.799,forced_choiceRT_color,2021.2.3,Win32,74.92320372,,,,,,,,,,,,,,,,,,,,,,,
,0,f,1,0.6879,8,1,33,1,1,f,blue,5f6f44e9451a3b0836b5d32c,2021-09-27_16h07.44.799,forced_choiceRT_color,2021.2.3,Win32,74.92320372,,,,,,,,,,,,,,,,,,,,,,,
,0,f,1,0.5379,8,2,34,1,1,f,blue,5f6f44e9451a3b0836b5d32c,2021-09-27_16h07.44.799,forced_choiceRT_color,2021.2.3,Win32,74.92320372,,,,,,,,,,,,,,,,,,,,,,,
,0,j,0,0.4854,8,3,35,3,1,k,purple,5f6f44e9451a3b0836b5d32c,2021-09-27_16h07.44.799,forced_choiceRT_color,2021.2.3,Win32,74.92320372,,,,,,,,,,,,,,,,,,,,,,,
,0,j,1,1.0057,9,0,36,2,1,j,red,5f6f44e9451a3b0836b5d32c,2021-09-27_16h07.44.799,forced_choiceRT_color,2021.2.3,Win32,74.92320372,,,,,,,,,,,,,,,,,,,,,,,
,0,d,1,0.7342,9,1,37,0,1,d,orange,5f6f44e9451a3b0836b5d32c,2021-09-27_16h07.44.799,forced_choiceRT_color,2021.2.3,Win32,74.92320372,,,,,,,,,,,,,,,,,,,,,,,
,0,k,1,0.5761,9,2,38,3,1,k,purple,5f6f44e9451a3b0836b5d32c,2021-09-27_16h07.44.799,forced_choiceRT_color,2021.2.3,Win32,74.92320372,,,,,,,,,,,,,,,,,,,,,,,
,0,j,1,0.8099,9,3,39,2,1,j,red,5f6f44e9451a3b0836b5d32c,2021-09-27_16h07.44.799,forced_choiceRT_color,2021.2.3,Win32,74.92320372,,,,,,,,,,,,,,,,,,,,,,,
,0,j,1,0.5357,10,0,40,2,1,j,red,5f6f44e9451a3b0836b5d32c,2021-09-27_16h07.44.799,forced_choiceRT_color,2021.2.3,Win32,74.92320372,,,,,,,,,,,,,,,,,,,,,,,
,0,k,1,0.5349,10,1,41,3,1,k,purple,5f6f44e9451a3b0836b5d32c,2021-09-27_16h07.44.799,forced_choiceRT_color,2021.2.3,Win32,74.92320372,,,,,,,,,,,,,,,,,,,,,,,
,0,k,1,0.6297,10,2,42,3,1,k,purple,5f6f44e9451a3b0836b5d32c,2021-09-27_16h07.44.799,forced_choiceRT_color,2021.2.3,Win32,74.92320372,,,,,,,,,,,,,,,,,,,,,,,
,0,k,1,0.443,10,3,43,3,1,k,purple,5f6f44e9451a3b0836b5d32c,2021-09-27_16h07.44.799,forced_choiceRT_color,2021.2.3,Win32,74.92320372,,,,,,,,,,,,,,,,,,,,,,,
,0,d,1,0.6681,11,0,44,0,1,d,orange,5f6f44e9451a3b0836b5d32c,2021-09-27_16h07.44.799,forced_choiceRT_color,2021.2.3,Win32,74.92320372,,,,,,,,,,,,,,,,,,,,,,,
,0,d,1,0.4837,11,1,45,0,1,d,orange,5f6f44e9451a3b0836b5d32c,2021-09-27_16h07.44.799,forced_choiceRT_color,2021.2.3,Win32,74.92320372,,,,,,,,,,,,,,,,,,,,,,,
,0,k,1,0.6026,11,2,46,3,1,k,purple,5f6f44e9451a3b0836b5d32c,2021-09-27_16h07.44.799,forced_choiceRT_color,2021.2.3,Win32,74.92320372,,,,,,,,,,,,,,,,,,,,,,,
,0,f,1,0.6297,11,3,47,1,1,f,blue,5f6f44e9451a3b0836b5d32c,2021-09-27_16h07.44.799,forced_choiceRT_color,2021.2.3,Win32,74.92320372,,,,,,,,,,,,,,,,,,,,,,,
,0,f,1,0.5696,12,0,48,1,1,f,blue,5f6f44e9451a3b0836b5d32c,2021-09-27_16h07.44.799,forced_choiceRT_color,2021.2.3,Win32,74.92320372,,,,,,,,,,,,,,,,,,,,,,,
,0,d,1,0.5204,12,1,49,0,1,d,orange,5f6f44e9451a3b0836b5d32c,2021-09-27_16h07.44.799,forced_choiceRT_color,2021.2.3,Win32,74.92320372,,,,,,,,,,,,,,,,,,,,,,,
,0,d,1,0.4249,12,2,50,0,1,d,orange,5f6f44e9451a3b0836b5d32c,2021-09-27_16h07.44.799,forced_choiceRT_color,2021.2.3,Win32,74.92320372,,,,,,,,,,,,,,,,,,,,,,,
,0,f,1,0.5627,12,3,51,1,1,f,blue,5f6f44e9451a3b0836b5d32c,2021-09-27_16h07.44.799,forced_choiceRT_color,2021.2.3,Win32,74.92320372,,,,,,,,,,,,,,,,,,,,,,,
,0,k,1,0.4801,13,0,52,3,1,k,purple,5f6f44e9451a3b0836b5d32c,2021-09-27_16h07.44.799,forced_choiceRT_color,2021.2.3,Win32,74.92320372,,,,,,,,,,,,,,,,,,,,,,,
,0,j,1,0.5312,13,1,53,2,1,j,red,5f6f44e9451a3b0836b5d32c,2021-09-27_16h07.44.799,forced_choiceRT_color,2021.2.3,Win32,74.92320372,,,,,,,,,,,,,,,,,,,,,,,
,0,f,0,0.5313,13,2,54,0,1,d,orange,5f6f44e9451a3b0836b5d32c,2021-09-27_16h07.44.799,forced_choiceRT_color,2021.2.3,Win32,74.92320372,,,,,,,,,,,,,,,,,,,,,,,
,0,d,1,1.3328,13,3,55,0,1,d,orange,5f6f44e9451a3b0836b5d32c,2021-09-27_16h07.44.799,forced_choiceRT_color,2021.2.3,Win32,74.92320372,,,,,,,,,,,,,,,,,,,,,,,
,0,j,1,0.7078,14,0,56,2,1,j,red,5f6f44e9451a3b0836b5d32c,2021-09-27_16h07.44.799,forced_choiceRT_color,2021.2.3,Win32,74.92320372,,,,,,,,,,,,,,,,,,,,,,,
,0,f,1,0.8081,14,1,57,1,1,f,blue,5f6f44e9451a3b0836b5d32c,2021-09-27_16h07.44.799,forced_choiceRT_color,2021.2.3,Win32,74.92320372,,,,,,,,,,,,,,,,,,,,,,,
,0,j,1,0.635,14,2,58,2,1,j,red,5f6f44e9451a3b0836b5d32c,2021-09-27_16h07.44.799,forced_choiceRT_color,2021.2.3,Win32,74.92320372,,,,,,,,,,,,,,,,,,,,,,,
,0,f,1,0.6084,14,3,59,1,1,f,blue,5f6f44e9451a3b0836b5d32c,2021-09-27_16h07.44.799,forced_choiceRT_color,2021.2.3,Win32,74.92320372,,,,,,,,,,,,,,,,,,,,,,,
,,,,,,,,,,,,5f6f44e9451a3b0836b5d32c,2021-09-27_16h07.44.799,forced_choiceRT_color,2021.2.3,Win32,74.92320372,d,2.338,0,0,0,0,1,,,,,,,,,,,,,,,,
,,,,,,,,,,,,5f6f44e9451a3b0836b5d32c,2021-09-27_16h07.44.799,forced_choiceRT_color,2021.2.3,Win32,74.92320372,d,2.12,1,0,1,0,1,,,,,,,,,,,,,,,,
,,,,,,,,,,,,5f6f44e9451a3b0836b5d32c,2021-09-27_16h07.44.799,forced_choiceRT_color,2021.2.3,Win32,74.92320372,f,2.0705,2,0,2,0,1,,,,,,,,,,,,,,,,
,,,,,,,,,,,,5f6f44e9451a3b0836b5d32c,2021-09-27_16h07.44.799,forced_choiceRT_color,2021.2.3,Win32,74.92320372,f,2.019,3,0,3,0,1,,,,,,,,,,,,,,,,
,,,,,,,,,,,,5f6f44e9451a3b0836b5d32c,2021-09-27_16h07.44.799,forced_choiceRT_color,2021.2.3,Win32,74.92320372,f,1.812,4,0,4,0,1,,,,,,,,,,,,,,,,
,,,,,,,,,,,,5f6f44e9451a3b0836b5d32c,2021-09-27_16h07.44.799,forced_choiceRT_color,2021.2.3,Win32,74.92320372,k,1.9592,5,0,5,0,1,,,,,,,,,,,,,,,,
,,,,,,,,,,,,5f6f44e9451a3b0836b5d32c,2021-09-27_16h07.44.799,forced_choiceRT_color,2021.2.3,Win32,74.92320372,j,2.0203,6,0,6,0,1,,,,,,,,,,,,,,,,
,,,,,,,,,,,,5f6f44e9451a3b0836b5d32c,2021-09-27_16h07.44.799,forced_choiceRT_color,2021.2.3,Win32,74.92320372,j,1.9972,7,0,7,0,1,,,,,,,,,,,,,,,,
,,,,,,,,,,,,5f6f44e9451a3b0836b5d32c,2021-09-27_16h07.44.799,forced_choiceRT_color,2021.2.3,Win32,74.92320372,d,1.8922,8,0,8,0,1,,,,,,,,,,,,,,,,
,,,,,,,,,,,,5f6f44e9451a3b0836b5d32c,2021-09-27_16h07.44.799,forced_choiceRT_color,2021.2.3,Win32,74.92320372,f,1.9709,9,0,9,0,1,,,,,,,,,,,,,,,,
,,,,,,,,,,,,5f6f44e9451a3b0836b5d32c,2021-09-27_16h07.44.799,forced_choiceRT_color,2021.2.3,Win32,74.92320372,f,1.9571,10,0,10,0,1,,,,,,,,,,,,,,,,
,,,,,,,,,,,,5f6f44e9451a3b0836b5d32c,2021-09-27_16h07.44.799,forced_choiceRT_color,2021.2.3,Win32,74.92320372,d,1.9513,11,0,11,0,1,,,,,,,,,,,,,,,,
,,,,,,,,,,,,5f6f44e9451a3b0836b5d32c,2021-09-27_16h07.44.799,forced_choiceRT_color,2021.2.3,Win32,74.92320372,k,1.9418,12,0,12,0,1,,,,,,,,,,,,,,,,
,,,,,,,,,,,,5f6f44e9451a3b0836b5d32c,2021-09-27_16h07.44.799,forced_choiceRT_color,2021.2.3,Win32,74.92320372,j,1.9762,13,0,13,0,1,,,,,,,,,,,,,,,,
,,,,,,,,,,,,5f6f44e9451a3b0836b5d32c,2021-09-27_16h07.44.799,forced_choiceRT_color,2021.2.3,Win32,74.92320372,f,1.9441,14,0,14,0,1,,,,,,,,,,,,,,,,
,,,,,,,,,,,,5f6f44e9451a3b0836b5d32c,2021-09-27_16h07.44.799,forced_choiceRT_color,2021.2.3,Win32,74.92320372,d,1.9533,15,0,15,0,1,,,,,,,,,,,,,,,,
,,,,,,,,,,,,5f6f44e9451a3b0836b5d32c,2021-09-27_16h07.44.799,forced_choiceRT_color,2021.2.3,Win32,74.92320372,j,1.8832,16,0,16,0,1,,,,,,,,,,,,,,,,
,,,,,,,,,,,,5f6f44e9451a3b0836b5d32c,2021-09-27_16h07.44.799,forced_choiceRT_color,2021.2.3,Win32,74.92320372,j,1.9871,17,0,17,0,1,,,,,,,,,,,,,,,,
,,,,,,,,,,,,5f6f44e9451a3b0836b5d32c,2021-09-27_16h07.44.799,forced_choiceRT_color,2021.2.3,Win32,74.92320372,k,1.9332,18,0,18,0,1,,,,,,,,,,,,,,,,
,,,,,,,,,,,,5f6f44e9451a3b0836b5d32c,2021-09-27_16h07.44.799,forced_choiceRT_color,2021.2.3,Win32,74.92320372,d,1.879,19,0,19,0,1,,,,,,,,,,,,,,,,
,1.58,,,,,,,,,k,purple,5f6f44e9451a3b0836b5d32c,2021-09-27_16h07.44.799,forced_choiceRT_color,2021.2.3,Win32,74.92320372,,,,,,,,1,Ontime,short,f,0,1.9741,0,0,0,3,1,,,,,
,1.49,,,,,,,,,d,orange,5f6f44e9451a3b0836b5d32c,2021-09-27_16h07.44.799,forced_choiceRT_color,2021.2.3,Win32,74.92320372,,,,,,,,1,Fast,short,j,0,0.1425,0,1,1,0,1,,,,,
,1.58,,,,,,,,,f,blue,5f6f44e9451a3b0836b5d32c,2021-09-27_16h07.44.799,forced_choiceRT_color,2021.2.3,Win32,74.92320372,,,,,,,,1,Ontime,short,d,0,1.9918,0,2,2,1,1,,,,,
,0.99,,,,,,,,,d,orange,5f6f44e9451a3b0836b5d32c,2021-09-27_16h07.44.799,forced_choiceRT_color,2021.2.3,Win32,74.92320372,,,,,,,,1,Fast,short,f,0,0.0661,0,3,3,0,1,,,,,
,1.74,,,,,,,,,d,orange,5f6f44e9451a3b0836b5d32c,2021-09-27_16h07.44.799,forced_choiceRT_color,2021.2.3,Win32,74.92320372,,,,,,,,1,Slow,short,j,0,2.1196,1,0,4,0,1,,,,,
,0.78,,,,,,,,,j,red,5f6f44e9451a3b0836b5d32c,2021-09-27_16h07.44.799,forced_choiceRT_color,2021.2.3,Win32,74.92320372,,,,,,,,1,Fast,short,j,1,1.7449,1,1,5,2,1,,,,,
,0.39,,,,,,,,,d,orange,5f6f44e9451a3b0836b5d32c,2021-09-27_16h07.44.799,forced_choiceRT_color,2021.2.3,Win32,74.92320372,,,,,,,,1,Fast,short,d,1,1.8557,1,2,6,0,1,,,,,
,1.85,,,,,,,,,k,purple,5f6f44e9451a3b0836b5d32c,2021-09-27_16h07.44.799,forced_choiceRT_color,2021.2.3,Win32,74.92320372,,,,,,,,1,Slow,short,k,1,2.2597,1,3,7,3,1,,,,,
,1.51,,,,,,,,,k,purple,5f6f44e9451a3b0836b5d32c,2021-09-27_16h07.44.799,forced_choiceRT_color,2021.2.3,Win32,74.92320372,,,,,,,,1,Ontime,short,k,1,1.947,2,0,8,3,1,,,,,
,1.97,,,,,,,,,f,blue,5f6f44e9451a3b0836b5d32c,2021-09-27_16h07.44.799,forced_choiceRT_color,2021.2.3,Win32,74.92320372,,,,,,,,1,Slow,short,f,1,3.0137,2,1,9,1,1,,,,,
,0.11,,,,,,,,,j,red,5f6f44e9451a3b0836b5d32c,2021-09-27_16h07.44.799,forced_choiceRT_color,2021.2.3,Win32,74.92320372,,,,,,,,1,Fast,short,k,0,1.7732,2,2,10,2,1,,,,,
,0.08,,,,,,,,,f,blue,5f6f44e9451a3b0836b5d32c,2021-09-27_16h07.44.799,forced_choiceRT_color,2021.2.3,Win32,74.92320372,,,,,,,,1,Fast,short,f,1,1.8134,2,3,11,1,1,,,,,
,0.33,,,,,,,,,d,orange,5f6f44e9451a3b0836b5d32c,2021-09-27_16h07.44.799,forced_choiceRT_color,2021.2.3,Win32,74.92320372,,,,,,,,1,Fast,short,d,1,1.8426,3,0,12,0,1,,,,,
,0.04,,,,,,,,,f,blue,5f6f44e9451a3b0836b5d32c,2021-09-27_16h07.44.799,forced_choiceRT_color,2021.2.3,Win32,74.92320372,,,,,,,,1,Fast,short,f,1,1.8465,3,1,13,1,1,,,,,
,1.71,,,,,,,,,j,red,5f6f44e9451a3b0836b5d32c,2021-09-27_16h07.44.799,forced_choiceRT_color,2021.2.3,Win32,74.92320372,,,,,,,,1,Ontime,short,j,1,2.0947,3,2,14,2,1,,,,,
,1.18,,,,,,,,,d,orange,5f6f44e9451a3b0836b5d32c,2021-09-27_16h07.44.799,forced_choiceRT_color,2021.2.3,Win32,74.92320372,,,,,,,,1,Ontime,short,d,1,2.0537,3,3,15,0,1,,,,,
,1.74,,,,,,,,,f,blue,5f6f44e9451a3b0836b5d32c,2021-09-27_16h07.44.799,forced_choiceRT_color,2021.2.3,Win32,74.92320372,,,,,,,,1,Slow,short,f,1,2.1643,4,0,16,1,1,,,,,
,1.61,,,,,,,,,f,blue,5f6f44e9451a3b0836b5d32c,2021-09-27_16h07.44.799,forced_choiceRT_color,2021.2.3,Win32,74.92320372,,,,,,,,1,Ontime,short,f,1,1.9721,4,1,17,1,1,,,,,
,1.41,,,,,,,,,j,red,5f6f44e9451a3b0836b5d32c,2021-09-27_16h07.44.799,forced_choiceRT_color,2021.2.3,Win32,74.92320372,,,,,,,,1,Ontime,short,d,0,1.932,4,2,18,2,1,,,,,
,1.56,,,,,,,,,d,orange,5f6f44e9451a3b0836b5d32c,2021-09-27_16h07.44.799,forced_choiceRT_color,2021.2.3,Win32,74.92320372,,,,,,,,1,Ontime,short,d,1,2.0803,4,3,19,0,1,,,,,
,0.99,,,,,,,,,k,purple,5f6f44e9451a3b0836b5d32c,2021-09-27_16h07.44.799,forced_choiceRT_color,2021.2.3,Win32,74.92320372,,,,,,,,1,Ontime,short,k,1,1.9208,5,0,20,3,1,,,,,
,0.38,,,,,,,,,f,blue,5f6f44e9451a3b0836b5d32c,2021-09-27_16h07.44.799,forced_choiceRT_color,2021.2.3,Win32,74.92320372,,,,,,,,1,Fast,short,f,1,1.8667,5,1,21,1,1,,,,,
,0.18,,,,,,,,,j,red,5f6f44e9451a3b0836b5d32c,2021-09-27_16h07.44.799,forced_choiceRT_color,2021.2.3,Win32,74.92320372,,,,,,,,1,Ontime,short,j,1,1.9721,5,2,22,2,1,,,,,
,0.91,,,,,,,,,j,red,5f6f44e9451a3b0836b5d32c,2021-09-27_16h07.44.799,forced_choiceRT_color,2021.2.3,Win32,74.92320372,,,,,,,,1,Ontime,short,j,1,2.0915,5,3,23,2,1,,,,,
,0.79,,,,,,,,,d,orange,5f6f44e9451a3b0836b5d32c,2021-09-27_16h07.44.799,forced_choiceRT_color,2021.2.3,Win32,74.92320372,,,,,,,,1,Ontime,short,d,1,2.0818,6,0,24,0,1,,,,,
,0.28,,,,,,,,,f,blue,5f6f44e9451a3b0836b5d32c,2021-09-27_16h07.44.799,forced_choiceRT_color,2021.2.3,Win32,74.92320372,,,,,,,,1,Ontime,short,f,1,1.945,6,1,25,1,1,,,,,
,0.46,,,,,,,,,k,purple,5f6f44e9451a3b0836b5d32c,2021-09-27_16h07.44.799,forced_choiceRT_color,2021.2.3,Win32,74.92320372,,,,,,,,1,Ontime,short,k,1,1.9604,6,2,26,3,1,,,,,
,0.59,,,,,,,,,f,blue,5f6f44e9451a3b0836b5d32c,2021-09-27_16h07.44.799,forced_choiceRT_color,2021.2.3,Win32,74.92320372,,,,,,,,1,Ontime,short,f,1,2.0438,6,3,27,1,1,,,,,
,0.57,,,,,,,,,k,purple,5f6f44e9451a3b0836b5d32c,2021-09-27_16h07.44.799,forced_choiceRT_color,2021.2.3,Win32,74.92320372,,,,,,,,1,Ontime,short,k,1,2.0815,7,0,28,3,1,,,,,
,0.72,,,,,,,,,k,purple,5f6f44e9451a3b0836b5d32c,2021-09-27_16h07.44.799,forced_choiceRT_color,2021.2.3,Win32,74.92320372,,,,,,,,1,Ontime,short,k,1,2.0138,7,1,29,3,1,,,,,
,0.32,,,,,,,,,j,red,5f6f44e9451a3b0836b5d32c,2021-09-27_16h07.44.799,forced_choiceRT_color,2021.2.3,Win32,74.92320372,,,,,,,,1,Ontime,short,j,1,2.012,7,2,30,2,1,,,,,
,1.59,,,,,,,,,j,red,5f6f44e9451a3b0836b5d32c,2021-09-27_16h07.44.799,forced_choiceRT_color,2021.2.3,Win32,74.92320372,,,,,,,,1,Slow,short,j,1,2.2977,7,3,31,2,1,,,,,
,0.37,,,,,,,,,d,orange,5f6f44e9451a3b0836b5d32c,2021-09-27_16h07.44.799,forced_choiceRT_color,2021.2.3,Win32,74.92320372,,,,,,,,1,Ontime,short,d,1,1.9454,8,0,32,0,1,,,,,
,1.51,,,,,,,,,k,purple,5f6f44e9451a3b0836b5d32c,2021-09-27_16h07.44.799,forced_choiceRT_color,2021.2.3,Win32,74.92320372,,,,,,,,1,Slow,short,k,1,2.2813,8,1,33,3,1,,,,,
,0.16,,,,,,,,,k,purple,5f6f44e9451a3b0836b5d32c,2021-09-27_16h07.44.799,forced_choiceRT_color,2021.2.3,Win32,74.92320372,,,,,,,,1,Ontime,short,k,1,1.9504,8,2,34,3,1,,,,,
,1.78,,,,,,,,,j,red,5f6f44e9451a3b0836b5d32c,2021-09-27_16h07.44.799,forced_choiceRT_color,2021.2.3,Win32,74.92320372,,,,,,,,1,Slow,short,f,0,2.2554,8,3,35,2,1,,,,,
,1.19,,,,,,,,,f,blue,5f6f44e9451a3b0836b5d32c,2021-09-27_16h07.44.799,forced_choiceRT_color,2021.2.3,Win32,74.92320372,,,,,,,,1,Ontime,short,f,1,1.9327,9,0,36,1,1,,,,,
,0.8,,,,,,,,,j,red,5f6f44e9451a3b0836b5d32c,2021-09-27_16h07.44.799,forced_choiceRT_color,2021.2.3,Win32,74.92320372,,,,,,,,1,Ontime,short,j,1,2.0818,9,1,37,2,1,,,,,
,1.62,,,,,,,,,k,purple,5f6f44e9451a3b0836b5d32c,2021-09-27_16h07.44.799,forced_choiceRT_color,2021.2.3,Win32,74.92320372,,,,,,,,1,Slow,short,k,1,2.3022,9,2,38,3,1,,,,,
,1.04,,,,,,,,,d,orange,5f6f44e9451a3b0836b5d32c,2021-09-27_16h07.44.799,forced_choiceRT_color,2021.2.3,Win32,74.92320372,,,,,,,,1,Ontime,short,d,1,1.9593,9,3,39,0,1,,,,,
,,,,,,,,,,,,5f6f44e9451a3b0836b5d32c,2021-09-27_16h07.44.799,forced_choiceRT_color,2021.2.3,Win32,74.92320372,,,,,,,,,,,,,,,,,,,0,0,0,0,1
,1.3,,,,,,,,,f,blue,5f6f44e9451a3b0836b5d32c,2021-09-27_16h07.44.799,forced_choiceRT_color,2021.2.3,Win32,74.92320372,,,,,,,,2,Ontime,short,j,0,2.0628,0,0,0,1,1,,,,,
,0.72,,,,,,,,,d,orange,5f6f44e9451a3b0836b5d32c,2021-09-27_16h07.44.799,forced_choiceRT_color,2021.2.3,Win32,74.92320372,,,,,,,,2,Ontime,short,d,1,1.9701,0,1,1,0,1,,,,,
,0.87,,,,,,,,,f,blue,5f6f44e9451a3b0836b5d32c,2021-09-27_16h07.44.799,forced_choiceRT_color,2021.2.3,Win32,74.92320372,,,,,,,,2,Ontime,short,f,1,2.0127,0,2,2,1,1,,,,,
,0.71,,,,,,,,,d,orange,5f6f44e9451a3b0836b5d32c,2021-09-27_16h07.44.799,forced_choiceRT_color,2021.2.3,Win32,74.92320372,,,,,,,,2,Ontime,short,d,1,1.9071,0,3,3,0,1,,,,,
,0.65,,,,,,,,,k,purple,5f6f44e9451a3b0836b5d32c,2021-09-27_16h07.44.799,forced_choiceRT_color,2021.2.3,Win32,74.92320372,,,,,,,,2,Ontime,short,k,1,1.9386,1,0,4,3,1,,,,,
,0.85,,,,,,,,,j,red,5f6f44e9451a3b0836b5d32c,2021-09-27_16h07.44.799,forced_choiceRT_color,2021.2.3,Win32,74.92320372,,,,,,,,2,Fast,short,j,1,1.8328,1,1,5,2,1,,,,,
,0.7,,,,,,,,,j,red,5f6f44e9451a3b0836b5d32c,2021-09-27_16h07.44.799,forced_choiceRT_color,2021.2.3,Win32,74.92320372,,,,,,,,2,Ontime,short,j,1,1.9024,1,2,6,2,1,,,,,
,1.8,,,,,,,,,j,red,5f6f44e9451a3b0836b5d32c,2021-09-27_16h07.44.799,forced_choiceRT_color,2021.2.3,Win32,74.92320372,,,,,,,,2,Slow,short,j,1,2.861,1,3,7,2,1,,,,,
,0.9,,,,,,,,,f,blue,5f6f44e9451a3b0836b5d32c,2021-09-27_16h07.44.799,forced_choiceRT_color,2021.2.3,Win32,74.92320372,,,,,,,,2,Fast,short,f,1,1.809,2,0,8,1,1,,,,,
,1.49,,,,,,,,,f,blue,5f6f44e9451a3b0836b5d32c,2021-09-27_16h07.44.799,forced_choiceRT_color,2021.2.3,Win32,74.92320372,,,,,,,,2,Ontime,short,f,1,1.9913,2,1,9,1,1,,,,,
,0.2,,,,,,,,,j,red,5f6f44e9451a3b0836b5d32c,2021-09-27_16h07.44.799,forced_choiceRT_color,2021.2.3,Win32,74.92320372,,,,,,,,2,Fast,short,j,1,1.8793,2,2,10,2,1,,,,,
,0.15,,,,,,,,,d,orange,5f6f44e9451a3b0836b5d32c,2021-09-27_16h07.44.799,forced_choiceRT_color,2021.2.3,Win32,74.92320372,,,,,,,,2,Ontime,short,d,1,1.984,2,3,11,0,1,,,,,
,1.01,,,,,,,,,k,purple,5f6f44e9451a3b0836b5d32c,2021-09-27_16h07.44.799,forced_choiceRT_color,2021.2.3,Win32,74.92320372,,,,,,,,2,Ontime,short,k,1,2.0554,3,0,12,3,1,,,,,
,1.63,,,,,,,,,j,red,5f6f44e9451a3b0836b5d32c,2021-09-27_16h07.44.799,forced_choiceRT_color,2021.2.3,Win32,74.92320372,,,,,,,,2,Slow,short,j,1,2.136,3,1,13,2,1,,,,,
,0.68,,,,,,,,,f,blue,5f6f44e9451a3b0836b5d32c,2021-09-27_16h07.44.799,forced_choiceRT_color,2021.2.3,Win32,74.92320372,,,,,,,,2,Fast,short,f,1,1.8069,3,2,14,1,1,,,,,
,1.91,,,,,,,,,d,orange,5f6f44e9451a3b0836b5d32c,2021-09-27_16h07.44.799,forced_choiceRT_color,2021.2.3,Win32,74.92320372,,,,,,,,2,Slow,short,d,1,2.2417,3,3,15,0,1,,,,,
,0.96,,,,,,,,,k,purple,5f6f44e9451a3b0836b5d32c,2021-09-27_16h07.44.799,forced_choiceRT_color,2021.2.3,Win32,74.92320372,,,,,,,,2,Slow,short,j,0,2.108,4,0,16,3,1,,,,,
,1.96,,,,,,,,,k,purple,5f6f44e9451a3b0836b5d32c,2021-09-27_16h07.44.799,forced_choiceRT_color,2021.2.3,Win32,74.92320372,,,,,,,,2,Slow,short,k,1,2.6775,4,1,17,3,1,,,,,
,1.73,,,,,,,,,k,purple,5f6f44e9451a3b0836b5d32c,2021-09-27_16h07.44.799,forced_choiceRT_color,2021.2.3,Win32,74.92320372,,,,,,,,2,Slow,short,k,1,2.2133,4,2,18,3,1,,,,,
,0.2,,,,,,,,,f,blue,5f6f44e9451a3b0836b5d32c,2021-09-27_16h07.44.799,forced_choiceRT_color,2021.2.3,Win32,74.92320372,,,,,,,,2,Fast,short,f,1,1.7887,4,3,19,1,1,,,,,
,0.87,,,,,,,,,d,orange,5f6f44e9451a3b0836b5d32c,2021-09-27_16h07.44.799,forced_choiceRT_color,2021.2.3,Win32,74.92320372,,,,,,,,2,Ontime,short,d,1,1.961,5,0,20,0,1,,,,,
,1.54,,,,,,,,,j,red,5f6f44e9451a3b0836b5d32c,2021-09-27_16h07.44.799,forced_choiceRT_color,2021.2.3,Win32,74.92320372,,,,,,,,2,Slow,short,j,1,2.1452,5,1,21,2,1,,,,,
,1.78,,,,,,,,,d,orange,5f6f44e9451a3b0836b5d32c,2021-09-27_16h07.44.799,forced_choiceRT_color,2021.2.3,Win32,74.92320372,,,,,,,,2,Slow,short,f,0,2.1202,5,2,22,0,1,,,,,
,0.87,,,,,,,,,f,blue,5f6f44e9451a3b0836b5d32c,2021-09-27_16h07.44.799,forced_choiceRT_color,2021.2.3,Win32,74.92320372,,,,,,,,2,Ontime,short,f,1,1.951,5,3,23,1,1,,,,,
,0.8,,,,,,,,,j,red,5f6f44e9451a3b0836b5d32c,2021-09-27_16h07.44.799,forced_choiceRT_color,2021.2.3,Win32,74.92320372,,,,,,,,2,Ontime,short,j,1,2.0004,6,0,24,2,1,,,,,
,0.65,,,,,,,,,k,purple,5f6f44e9451a3b0836b5d32c,2021-09-27_16h07.44.799,forced_choiceRT_color,2021.2.3,Win32,74.92320372,,,,,,,,2,Ontime,short,k,1,1.903,6,1,25,3,1,,,,,
,0.94,,,,,,,,,k,purple,5f6f44e9451a3b0836b5d32c,2021-09-27_16h07.44.799,forced_choiceRT_color,2021.2.3,Win32,74.92320372,,,,,,,,2,Ontime,short,k,1,1.9031,6,2,26,3,1,,,,,
,1.17,,,,,,,,,k,purple,5f6f44e9451a3b0836b5d32c,2021-09-27_16h07.44.799,forced_choiceRT_color,2021.2.3,Win32,74.92320372,,,,,,,,2,Ontime,short,k,1,1.9051,6,3,27,3,1,,,,,
,1.72,,,,,,,,,d,orange,5f6f44e9451a3b0836b5d32c,2021-09-27_16h07.44.799,forced_choiceRT_color,2021.2.3,Win32,74.92320372,,,,,,,,2,Slow,short,d,1,2.1942,7,0,28,0,1,,,,,
,0.74,,,,,,,,,d,orange,5f6f44e9451a3b0836b5d32c,2021-09-27_16h07.44.799,forced_choiceRT_color,2021.2.3,Win32,74.92320372,,,,,,,,2,Ontime,short,d,1,1.9214,7,1,29,0,1,,,,,
,0.94,,,,,,,,,k,purple,5f6f44e9451a3b0836b5d32c,2021-09-27_16h07.44.799,forced_choiceRT_color,2021.2.3,Win32,74.92320372,,,,,,,,2,Ontime,short,k,1,1.9246,7,2,30,3,1,,,,,
,1.4,,,,,,,,,k,purple,5f6f44e9451a3b0836b5d32c,2021-09-27_16h07.44.799,forced_choiceRT_color,2021.2.3,Win32,74.92320372,,,,,,,,2,Ontime,short,k,1,2.0382,7,3,31,3,1,,,,,
,0.28,,,,,,,,,f,blue,5f6f44e9451a3b0836b5d32c,2021-09-27_16h07.44.799,forced_choiceRT_color,2021.2.3,Win32,74.92320372,,,,,,,,2,Fast,short,f,1,1.8801,8,0,32,1,1,,,,,
,1.39,,,,,,,,,d,orange,5f6f44e9451a3b0836b5d32c,2021-09-27_16h07.44.799,forced_choiceRT_color,2021.2.3,Win32,74.92320372,,,,,,,,2,Ontime,short,d,1,1.9752,8,1,33,0,1,,,,,
,1.69,,,,,,,,,j,red,5f6f44e9451a3b0836b5d32c,2021-09-27_16h07.44.799,forced_choiceRT_color,2021.2.3,Win32,74.92320372,,,,,,,,2,Slow,short,j,1,2.1466,8,2,34,2,1,,,,,
,1.24,,,,,,,,,j,red,5f6f44e9451a3b0836b5d32c,2021-09-27_16h07.44.799,forced_choiceRT_color,2021.2.3,Win32,74.92320372,,,,,,,,2,Fast,short,j,1,1.8681,8,3,35,2,1,,,,,
,0.4,,,,,,,,,f,blue,5f6f44e9451a3b0836b5d32c,2021-09-27_16h07.44.799,forced_choiceRT_color,2021.2.3,Win32,74.92320372,,,,,,,,2,Ontime,short,f,1,1.9745,9,0,36,1,1,,,,,
,0.76,,,,,,,,,d,orange,5f6f44e9451a3b0836b5d32c,2021-09-27_16h07.44.799,forced_choiceRT_color,2021.2.3,Win32,74.92320372,,,,,,,,2,Ontime,short,d,1,2.0531,9,1,37,0,1,,,,,
,1.45,,,,,,,,,f,blue,5f6f44e9451a3b0836b5d32c,2021-09-27_16h07.44.799,forced_choiceRT_color,2021.2.3,Win32,74.92320372,,,,,,,,2,Ontime,short,j,0,2.0018,9,2,38,1,1,,,,,
,0.8,,,,,,,,,j,red,5f6f44e9451a3b0836b5d32c,2021-09-27_16h07.44.799,forced_choiceRT_color,2021.2.3,Win32,74.92320372,,,,,,,,2,Ontime,short,j,1,1.9718,9,3,39,2,1,,,,,
,,,,,,,,,,,,5f6f44e9451a3b0836b5d32c,2021-09-27_16h07.44.799,forced_choiceRT_color,2021.2.3,Win32,74.92320372,,,,,,,,,,,,,,,,,,,1,0,1,0,1
,1.89,,,,,,,,,f,blue,5f6f44e9451a3b0836b5d32c,2021-09-27_16h07.44.799,forced_choiceRT_color,2021.2.3,Win32,74.92320372,,,,,,,,3,Slow,short,f,1,2.402,0,0,0,1,1,,,,,
,0.82,,,,,,,,,d,orange,5f6f44e9451a3b0836b5d32c,2021-09-27_16h07.44.799,forced_choiceRT_color,2021.2.3,Win32,74.92320372,,,,,,,,3,Fast,short,d,1,1.8988,0,1,1,0,1,,,,,
,0.42,,,,,,,,,k,purple,5f6f44e9451a3b0836b5d32c,2021-09-27_16h07.44.799,forced_choiceRT_color,2021.2.3,Win32,74.92320372,,,,,,,,3,Fast,short,k,1,1.8287,0,2,2,3,1,,,,,
,1.54,,,,,,,,,d,orange,5f6f44e9451a3b0836b5d32c,2021-09-27_16h07.44.799,forced_choiceRT_color,2021.2.3,Win32,74.92320372,,,,,,,,3,Ontime,short,d,1,2.0788,0,3,3,0,1,,,,,
,1.37,,,,,,,,,k,purple,5f6f44e9451a3b0836b5d32c,2021-09-27_16h07.44.799,forced_choiceRT_color,2021.2.3,Win32,74.92320372,,,,,,,,3,Ontime,short,k,1,2.0163,1,0,4,3,1,,,,,
,0.7,,,,,,,,,d,orange,5f6f44e9451a3b0836b5d32c,2021-09-27_16h07.44.799,forced_choiceRT_color,2021.2.3,Win32,74.92320372,,,,,,,,3,Ontime,short,d,1,2.0129,1,1,5,0,1,,,,,
,1.57,,,,,,,,,k,purple,5f6f44e9451a3b0836b5d32c,2021-09-27_16h07.44.799,forced_choiceRT_color,2021.2.3,Win32,74.92320372,,,,,,,,3,Slow,short,k,1,2.144,1,2,6,3,1,,,,,
,0.97,,,,,,,,,f,blue,5f6f44e9451a3b0836b5d32c,2021-09-27_16h07.44.799,forced_choiceRT_color,2021.2.3,Win32,74.92320372,,,,,,,,3,Fast,short,f,1,1.7993,1,3,7,1,1,,,,,
,0.6,,,,,,,,,f,blue,5f6f44e9451a3b0836b5d32c,2021-09-27_16h07.44.799,forced_choiceRT_color,2021.2.3,Win32,74.92320372,,,,,,,,3,Ontime,short,f,1,2.0228,2,0,8,1,1,,,,,
,0.51,,,,,,,,,d,orange,5f6f44e9451a3b0836b5d32c,2021-09-27_16h07.44.799,forced_choiceRT_color,2021.2.3,Win32,74.92320372,,,,,,,,3,Ontime,short,d,1,2.0157,2,1,9,0,1,,,,,
,1.36,,,,,,,,,d,orange,5f6f44e9451a3b0836b5d32c,2021-09-27_16h07.44.799,forced_choiceRT_color,2021.2.3,Win32,74.92320372,,,,,,,,3,Ontime,short,d,1,1.9743,2,2,10,0,1,,,,,
,0.71,,,,,,,,,j,red,5f6f44e9451a3b0836b5d32c,2021-09-27_16h07.44.799,forced_choiceRT_color,2021.2.3,Win32,74.92320372,,,,,,,,3,Ontime,short,j,1,2.0676,2,3,11,2,1,,,,,
,0.69,,,,,,,,,j,red,5f6f44e9451a3b0836b5d32c,2021-09-27_16h07.44.799,forced_choiceRT_color,2021.2.3,Win32,74.92320372,,,,,,,,3,Ontime,short,j,1,1.9191,3,0,12,2,1,,,,,
,1.44,,,,,,,,,d,orange,5f6f44e9451a3b0836b5d32c,2021-09-27_16h07.44.799,forced_choiceRT_color,2021.2.3,Win32,74.92320372,,,,,,,,3,Fast,short,k,0,0.0009,3,1,13,0,1,,,,,
,0.2,,,,,,,,,f,blue,5f6f44e9451a3b0836b5d32c,2021-09-27_16h07.44.799,forced_choiceRT_color,2021.2.3,Win32,74.92320372,,,,,,,,3,Fast,short,f,1,1.7635,3,2,14,1,1,,,,,
,1.01,,,,,,,,,j,red,5f6f44e9451a3b0836b5d32c,2021-09-27_16h07.44.799,forced_choiceRT_color,2021.2.3,Win32,74.92320372,,,,,,,,3,Ontime,short,j,1,1.9594,3,3,15,2,1,,,,,
,1.17,,,,,,,,,j,red,5f6f44e9451a3b0836b5d32c,2021-09-27_16h07.44.799,forced_choiceRT_color,2021.2.3,Win32,74.92320372,,,,,,,,3,Ontime,short,j,1,1.9746,4,0,16,2,1,,,,,
,0.45,,,,,,,,,k,purple,5f6f44e9451a3b0836b5d32c,2021-09-27_16h07.44.799,forced_choiceRT_color,2021.2.3,Win32,74.92320372,,,,,,,,3,Fast,short,k,1,1.882,4,1,17,3,1,,,,,
,0.53,,,,,,,,,f,blue,5f6f44e9451a3b0836b5d32c,2021-09-27_16h07.44.799,forced_choiceRT_color,2021.2.3,Win32,74.92320372,,,,,,,,3,Ontime,short,f,1,1.9195,4,2,18,1,1,,,,,
,1.54,,,,,,,,,f,blue,5f6f44e9451a3b0836b5d32c,2021-09-27_16h07.44.799,forced_choiceRT_color,2021.2.3,Win32,74.92320372,,,,,,,,3,Ontime,short,f,1,2.0259,4,3,19,1,1,,,,,
,0.34,,,,,,,,,j,red,5f6f44e9451a3b0836b5d32c,2021-09-27_16h07.44.799,forced_choiceRT_color,2021.2.3,Win32,74.92320372,,,,,,,,3,Fast,short,j,1,1.8533,5,0,20,2,1,,,,,
,0.92,,,,,,,,,j,red,5f6f44e9451a3b0836b5d32c,2021-09-27_16h07.44.799,forced_choiceRT_color,2021.2.3,Win32,74.92320372,,,,,,,,3,Fast,short,j,1,1.8851,5,1,21,2,1,,,,,
,1.92,,,,,,,,,f,blue,5f6f44e9451a3b0836b5d32c,2021-09-27_16h07.44.799,forced_choiceRT_color,2021.2.3,Win32,74.92320372,,,,,,,,3,Slow,short,f,1,2.5854,5,2,22,1,1,,,,,
,0.01,,,,,,,,,k,purple,5f6f44e9451a3b0836b5d32c,2021-09-27_16h07.44.799,forced_choiceRT_color,2021.2.3,Win32,74.92320372,,,,,,,,3,Ontime,short,k,1,1.9323,5,3,23,3,1,,,,,
,1,,,,,,,,,k,purple,5f6f44e9451a3b0836b5d32c,2021-09-27_16h07.44.799,forced_choiceRT_color,2021.2.3,Win32,74.92320372,,,,,,,,3,Ontime,short,k,1,1.9461,6,0,24,3,1,,,,,
,1.45,,,,,,,,,k,purple,5f6f44e9451a3b0836b5d32c,2021-09-27_16h07.44.799,forced_choiceRT_color,2021.2.3,Win32,74.92320372,,,,,,,,3,Ontime,short,k,1,2.0132,6,1,25,3,1,,,,,
,0.3,,,,,,,,,k,purple,5f6f44e9451a3b0836b5d32c,2021-09-27_16h07.44.799,forced_choiceRT_color,2021.2.3,Win32,74.92320372,,,,,,,,3,Fast,short,k,1,1.864,6,2,26,3,1,,,,,
,1.31,,,,,,,,,d,orange,5f6f44e9451a3b0836b5d32c,2021-09-27_16h07.44.799,forced_choiceRT_color,2021.2.3,Win32,74.92320372,,,,,,,,3,Fast,short,d,1,1.859,6,3,27,0,1,,,,,
,1.17,,,,,,,,,k,purple,5f6f44e9451a3b0836b5d32c,2021-09-27_16h07.44.799,forced_choiceRT_color,2021.2.3,Win32,74.92320372,,,,,,,,3,Fast,short,k,1,1.893,7,0,28,3,1,,,,,
,0.43,,,,,,,,,f,blue,5f6f44e9451a3b0836b5d32c,2021-09-27_16h07.44.799,forced_choiceRT_color,2021.2.3,Win32,74.92320372,,,,,,,,3,Fast,short,f,1,1.8801,7,1,29,1,1,,,,,
,0.86,,,,,,,,,d,orange,5f6f44e9451a3b0836b5d32c,2021-09-27_16h07.44.799,forced_choiceRT_color,2021.2.3,Win32,74.92320372,,,,,,,,3,Ontime,short,d,1,2.0393,7,2,30,0,1,,,,,
,1.58,,,,,,,,,j,red,5f6f44e9451a3b0836b5d32c,2021-09-27_16h07.44.799,forced_choiceRT_color,2021.2.3,Win32,74.92320372,,,,,,,,3,Ontime,short,f,0,2.0821,7,3,31,2,1,,,,,
,1.42,,,,,,,,,d,orange,5f6f44e9451a3b0836b5d32c,2021-09-27_16h07.44.799,forced_choiceRT_color,2021.2.3,Win32,74.92320372,,,,,,,,3,Ontime,short,d,1,2.0843,8,0,32,0,1,,,,,
,1.5,,,,,,,,,j,red,5f6f44e9451a3b0836b5d32c,2021-09-27_16h07.44.799,forced_choiceRT_color,2021.2.3,Win32,74.92320372,,,,,,,,3,Slow,short,j,1,2.1098,8,1,33,2,1,,,,,
,0.09,,,,,,,,,j,red,5f6f44e9451a3b0836b5d32c,2021-09-27_16h07.44.799,forced_choiceRT_color,2021.2.3,Win32,74.92320372,,,,,,,,3,Ontime,short,j,1,1.9282,8,2,34,2,1,,,,,
,0.27,,,,,,,,,d,orange,5f6f44e9451a3b0836b5d32c,2021-09-27_16h07.44.799,forced_choiceRT_color,2021.2.3,Win32,74.92320372,,,,,,,,3,Fast,short,d,1,1.8794,8,3,35,0,1,,,,,
,0.09,,,,,,,,,f,blue,5f6f44e9451a3b0836b5d32c,2021-09-27_16h07.44.799,forced_choiceRT_color,2021.2.3,Win32,74.92320372,,,,,,,,3,Fast,short,f,1,1.8605,9,0,36,1,1,,,,,
,1.44,,,,,,,,,k,purple,5f6f44e9451a3b0836b5d32c,2021-09-27_16h07.44.799,forced_choiceRT_color,2021.2.3,Win32,74.92320372,,,,,,,,3,Slow,short,k,1,2.1221,9,1,37,3,1,,,,,
,0.64,,,,,,,,,j,red,5f6f44e9451a3b0836b5d32c,2021-09-27_16h07.44.799,forced_choiceRT_color,2021.2.3,Win32,74.92320372,,,,,,,,3,Ontime,short,j,1,1.9622,9,2,38,2,1,,,,,
,0.15,,,,,,,,,f,blue,5f6f44e9451a3b0836b5d32c,2021-09-27_16h07.44.799,forced_choiceRT_color,2021.2.3,Win32,74.92320372,,,,,,,,3,Fast,short,f,1,1.8284,9,3,39,1,1,,,,,
,,,,,,,,,,,,5f6f44e9451a3b0836b5d32c,2021-09-27_16h07.44.799,forced_choiceRT_color,2021.2.3,Win32,74.92320372,,,,,,,,,,,,,,,,,,,2,0,2,0,1
,0.5,,,,,,,,,f,blue,5f6f44e9451a3b0836b5d32c,2021-09-27_16h07.44.799,forced_choiceRT_color,2021.2.3,Win32,74.92320372,,,,,,,,4,Slow,short,f,1,2.1347,0,0,0,1,1,,,,,
,1.68,,,,,,,,,d,orange,5f6f44e9451a3b0836b5d32c,2021-09-27_16h07.44.799,forced_choiceRT_color,2021.2.3,Win32,74.92320372,,,,,,,,4,Slow,short,d,1,2.3112,0,1,1,0,1,,,,,
,0.38,,,,,,,,,k,purple,5f6f44e9451a3b0836b5d32c,2021-09-27_16h07.44.799,forced_choiceRT_color,2021.2.3,Win32,74.92320372,,,,,,,,4,Ontime,short,k,1,1.9221,0,2,2,3,1,,,,,
,0.51,,,,,,,,,f,blue,5f6f44e9451a3b0836b5d32c,2021-09-27_16h07.44.799,forced_choiceRT_color,2021.2.3,Win32,74.92320372,,,,,,,,4,Fast,short,f,1,1.8938,0,3,3,1,1,,,,,
,1.12,,,,,,,,,j,red,5f6f44e9451a3b0836b5d32c,2021-09-27_16h07.44.799,forced_choiceRT_color,2021.2.3,Win32,74.92320372,,,,,,,,4,Fast,short,j,1,1.8797,1,0,4,2,1,,,,,
,1.63,,,,,,,,,d,orange,5f6f44e9451a3b0836b5d32c,2021-09-27_16h07.44.799,forced_choiceRT_color,2021.2.3,Win32,74.92320372,,,,,,,,4,Ontime,short,d,1,2.0886,1,1,5,0,1,,,,,
,0.04,,,,,,,,,k,purple,5f6f44e9451a3b0836b5d32c,2021-09-27_16h07.44.799,forced_choiceRT_color,2021.2.3,Win32,74.92320372,,,,,,,,4,Ontime,short,k,1,1.9939,1,2,6,3,1,,,,,
,0.8,,,,,,,,,f,blue,5f6f44e9451a3b0836b5d32c,2021-09-27_16h07.44.799,forced_choiceRT_color,2021.2.3,Win32,74.92320372,,,,,,,,4,Ontime,short,f,1,1.9315,1,3,7,1,1,,,,,
,0.89,,,,,,,,,d,orange,5f6f44e9451a3b0836b5d32c,2021-09-27_16h07.44.799,forced_choiceRT_color,2021.2.3,Win32,74.92320372,,,,,,,,4,Ontime,short,d,1,2.0027,2,0,8,0,1,,,,,
,1.75,,,,,,,,,f,blue,5f6f44e9451a3b0836b5d32c,2021-09-27_16h07.44.799,forced_choiceRT_color,2021.2.3,Win32,74.92320372,,,,,,,,4,Slow,short,d,0,2.2287,2,1,9,1,1,,,,,
,0.43,,,,,,,,,k,purple,5f6f44e9451a3b0836b5d32c,2021-09-27_16h07.44.799,forced_choiceRT_color,2021.2.3,Win32,74.92320372,,,,,,,,4,Ontime,short,k,1,1.9467,2,2,10,3,1,,,,,
,0.74,,,,,,,,,f,blue,5f6f44e9451a3b0836b5d32c,2021-09-27_16h07.44.799,forced_choiceRT_color,2021.2.3,Win32,74.92320372,,,,,,,,4,Ontime,short,f,1,1.956,2,3,11,1,1,,,,,
,1.93,,,,,,,,,j,red,5f6f44e9451a3b0836b5d32c,2021-09-27_16h07.44.799,forced_choiceRT_color,2021.2.3,Win32,74.92320372,,,,,,,,4,Slow,short,j,1,2.5738,3,0,12,2,1,,,,,
,0.84,,,,,,,,,j,red,5f6f44e9451a3b0836b5d32c,2021-09-27_16h07.44.799,forced_choiceRT_color,2021.2.3,Win32,74.92320372,,,,,,,,4,Ontime,short,j,1,1.9309,3,1,13,2,1,,,,,
,0.32,,,,,,,,,j,red,5f6f44e9451a3b0836b5d32c,2021-09-27_16h07.44.799,forced_choiceRT_color,2021.2.3,Win32,74.92320372,,,,,,,,4,Ontime,short,j,1,1.9512,3,2,14,2,1,,,,,
,1.99,,,,,,,,,d,orange,5f6f44e9451a3b0836b5d32c,2021-09-27_16h07.44.799,forced_choiceRT_color,2021.2.3,Win32,74.92320372,,,,,,,,4,Slow,short,d,1,2.5527,3,3,15,0,1,,,,,
,0.08,,,,,,,,,j,red,5f6f44e9451a3b0836b5d32c,2021-09-27_16h07.44.799,forced_choiceRT_color,2021.2.3,Win32,74.92320372,,,,,,,,4,Fast,short,j,1,1.7749,4,0,16,2,1,,,,,
,0.61,,,,,,,,,f,blue,5f6f44e9451a3b0836b5d32c,2021-09-27_16h07.44.799,forced_choiceRT_color,2021.2.3,Win32,74.92320372,,,,,,,,4,Ontime,short,f,1,2.003,4,1,17,1,1,,,,,
,1.39,,,,,,,,,d,orange,5f6f44e9451a3b0836b5d32c,2021-09-27_16h07.44.799,forced_choiceRT_color,2021.2.3,Win32,74.92320372,,,,,,,,4,Ontime,short,d,1,1.9531,4,2,18,0,1,,,,,
,1.99,,,,,,,,,d,orange,5f6f44e9451a3b0836b5d32c,2021-09-27_16h07.44.799,forced_choiceRT_color,2021.2.3,Win32,74.92320372,,,,,,,,4,Slow,short,d,1,2.5053,4,3,19,0,1,,,,,
,1.38,,,,,,,,,k,purple,5f6f44e9451a3b0836b5d32c,2021-09-27_16h07.44.799,forced_choiceRT_color,2021.2.3,Win32,74.92320372,,,,,,,,4,Ontime,short,k,1,1.9596,5,0,20,3,1,,,,,
,1.18,,,,,,,,,j,red,5f6f44e9451a3b0836b5d32c,2021-09-27_16h07.44.799,forced_choiceRT_color,2021.2.3,Win32,74.92320372,,,,,,,,4,Ontime,short,j,1,1.9712,5,1,21,2,1,,,,,
,0.46,,,,,,,,,d,orange,5f6f44e9451a3b0836b5d32c,2021-09-27_16h07.44.799,forced_choiceRT_color,2021.2.3,Win32,74.92320372,,,,,,,,4,Ontime,short,d,1,1.9911,5,2,22,0,1,,,,,
,0.98,,,,,,,,,j,red,5f6f44e9451a3b0836b5d32c,2021-09-27_16h07.44.799,forced_choiceRT_color,2021.2.3,Win32,74.92320372,,,,,,,,4,Ontime,short,j,1,1.9849,5,3,23,2,1,,,,,
,1.81,,,,,,,,,k,purple,5f6f44e9451a3b0836b5d32c,2021-09-27_16h07.44.799,forced_choiceRT_color,2021.2.3,Win32,74.92320372,,,,,,,,4,Slow,short,j,0,2.2745,6,0,24,3,1,,,,,
,1.78,,,,,,,,,j,red,5f6f44e9451a3b0836b5d32c,2021-09-27_16h07.44.799,forced_choiceRT_color,2021.2.3,Win32,74.92320372,,,,,,,,4,Slow,short,j,1,2.5427,6,1,25,2,1,,,,,
,1.85,,,,,,,,,f,blue,5f6f44e9451a3b0836b5d32c,2021-09-27_16h07.44.799,forced_choiceRT_color,2021.2.3,Win32,74.92320372,,,,,,,,4,Slow,short,f,1,2.5619,6,2,26,1,1,,,,,
,0.29,,,,,,,,,j,red,5f6f44e9451a3b0836b5d32c,2021-09-27_16h07.44.799,forced_choiceRT_color,2021.2.3,Win32,74.92320372,,,,,,,,4,Fast,short,j,1,1.7727,6,3,27,2,1,,,,,
,0.39,,,,,,,,,d,orange,5f6f44e9451a3b0836b5d32c,2021-09-27_16h07.44.799,forced_choiceRT_color,2021.2.3,Win32,74.92320372,,,,,,,,4,Ontime,short,d,1,1.9682,7,0,28,0,1,,,,,
,0.95,,,,,,,,,d,orange,5f6f44e9451a3b0836b5d32c,2021-09-27_16h07.44.799,forced_choiceRT_color,2021.2.3,Win32,74.92320372,,,,,,,,4,Ontime,short,d,1,1.9425,7,1,29,0,1,,,,,
,0.19,,,,,,,,,k,purple,5f6f44e9451a3b0836b5d32c,2021-09-27_16h07.44.799,forced_choiceRT_color,2021.2.3,Win32,74.92320372,,,,,,,,4,Fast,short,f,0,1.843,7,2,30,3,1,,,,,
,1.18,,,,,,,,,j,red,5f6f44e9451a3b0836b5d32c,2021-09-27_16h07.44.799,forced_choiceRT_color,2021.2.3,Win32,74.92320372,,,,,,,,4,Ontime,short,j,1,1.9006,7,3,31,2,1,,,,,
,1.8,,,,,,,,,d,orange,5f6f44e9451a3b0836b5d32c,2021-09-27_16h07.44.799,forced_choiceRT_color,2021.2.3,Win32,74.92320372,,,,,,,,4,Slow,short,d,1,2.326,8,0,32,0,1,,,,,
,0.92,,,,,,,,,f,blue,5f6f44e9451a3b0836b5d32c,2021-09-27_16h07.44.799,forced_choiceRT_color,2021.2.3,Win32,74.92320372,,,,,,,,4,Fast,short,f,1,1.8271,8,1,33,1,1,,,,,
,0.92,,,,,,,,,k,purple,5f6f44e9451a3b0836b5d32c,2021-09-27_16h07.44.799,forced_choiceRT_color,2021.2.3,Win32,74.92320372,,,,,,,,4,Fast,short,k,1,1.7512,8,2,34,3,1,,,,,
,1.78,,,,,,,,,f,blue,5f6f44e9451a3b0836b5d32c,2021-09-27_16h07.44.799,forced_choiceRT_color,2021.2.3,Win32,74.92320372,,,,,,,,4,Slow,short,j,0,2.3341,8,3,35,1,1,,,,,
,0.91,,,,,,,,,k,purple,5f6f44e9451a3b0836b5d32c,2021-09-27_16h07.44.799,forced_choiceRT_color,2021.2.3,Win32,74.92320372,,,,,,,,4,Ontime,short,k,1,1.9012,9,0,36,3,1,,,,,
,0.22,,,,,,,,,f,blue,5f6f44e9451a3b0836b5d32c,2021-09-27_16h07.44.799,forced_choiceRT_color,2021.2.3,Win32,74.92320372,,,,,,,,4,Fast,short,f,1,1.8964,9,1,37,1,1,,,,,
,0.34,,,,,,,,,k,purple,5f6f44e9451a3b0836b5d32c,2021-09-27_16h07.44.799,forced_choiceRT_color,2021.2.3,Win32,74.92320372,,,,,,,,4,Ontime,short,k,1,1.9669,9,2,38,3,1,,,,,
,1.86,,,,,,,,,k,purple,5f6f44e9451a3b0836b5d32c,2021-09-27_16h07.44.799,forced_choiceRT_color,2021.2.3,Win32,74.92320372,,,,,,,,4,Slow,short,j,0,2.2937,9,3,39,3,1,,,,,
,,,,,,,,,,,,5f6f44e9451a3b0836b5d32c,2021-09-27_16h07.44.799,forced_choiceRT_color,2021.2.3,Win32,74.92320372,,,,,,,,,,,,,,,,,,,3,0,3,0,1
,0.34,,,,,,,,,j,red,5f6f44e9451a3b0836b5d32c,2021-09-27_16h07.44.799,forced_choiceRT_color,2021.2.3,Win32,74.92320372,,,,,,,,5,Ontime,short,j,1,1.9665,0,0,0,2,1,,,,,
,0.24,,,,,,,,,j,red,5f6f44e9451a3b0836b5d32c,2021-09-27_16h07.44.799,forced_choiceRT_color,2021.2.3,Win32,74.92320372,,,,,,,,5,Ontime,short,j,1,1.9565,0,1,1,2,1,,,,,
,0.83,,,,,,,,,d,orange,5f6f44e9451a3b0836b5d32c,2021-09-27_16h07.44.799,forced_choiceRT_color,2021.2.3,Win32,74.92320372,,,,,,,,5,Ontime,short,d,1,1.9698,0,2,2,0,1,,,,,
,0.79,,,,,,,,,d,orange,5f6f44e9451a3b0836b5d32c,2021-09-27_16h07.44.799,forced_choiceRT_color,2021.2.3,Win32,74.92320372,,,,,,,,5,Ontime,short,d,1,1.9201,0,3,3,0,1,,,,,
,0.74,,,,,,,,,k,purple,5f6f44e9451a3b0836b5d32c,2021-09-27_16h07.44.799,forced_choiceRT_color,2021.2.3,Win32,74.92320372,,,,,,,,5,Ontime,short,k,1,1.9533,1,0,4,3,1,,,,,
,1.26,,,,,,,,,f,blue,5f6f44e9451a3b0836b5d32c,2021-09-27_16h07.44.799,forced_choiceRT_color,2021.2.3,Win32,74.92320372,,,,,,,,5,Ontime,short,f,1,1.9285,1,1,5,1,1,,,,,
,0.57,,,,,,,,,j,red,5f6f44e9451a3b0836b5d32c,2021-09-27_16h07.44.799,forced_choiceRT_color,2021.2.3,Win32,74.92320372,,,,,,,,5,Ontime,short,j,1,1.9174,1,2,6,2,1,,,,,
,1.99,,,,,,,,,k,purple,5f6f44e9451a3b0836b5d32c,2021-09-27_16h07.44.799,forced_choiceRT_color,2021.2.3,Win32,74.92320372,,,,,,,,5,Slow,short,k,1,2.4934,1,3,7,3,1,,,,,
,0.77,,,,,,,,,k,purple,5f6f44e9451a3b0836b5d32c,2021-09-27_16h07.44.799,forced_choiceRT_color,2021.2.3,Win32,74.92320372,,,,,,,,5,Ontime,short,k,1,1.9502,2,0,8,3,1,,,,,
,1.14,,,,,,,,,j,red,5f6f44e9451a3b0836b5d32c,2021-09-27_16h07.44.799,forced_choiceRT_color,2021.2.3,Win32,74.92320372,,,,,,,,5,Ontime,short,j,1,1.9562,2,1,9,2,1,,,,,
,1.15,,,,,,,,,k,purple,5f6f44e9451a3b0836b5d32c,2021-09-27_16h07.44.799,forced_choiceRT_color,2021.2.3,Win32,74.92320372,,,,,,,,5,Ontime,short,k,1,1.9165,2,2,10,3,1,,,,,
,1.97,,,,,,,,,f,blue,5f6f44e9451a3b0836b5d32c,2021-09-27_16h07.44.799,forced_choiceRT_color,2021.2.3,Win32,74.92320372,,,,,,,,5,Slow,short,f,1,2.4276,2,3,11,1,1,,,,,
,1.65,,,,,,,,,j,red,5f6f44e9451a3b0836b5d32c,2021-09-27_16h07.44.799,forced_choiceRT_color,2021.2.3,Win32,74.92320372,,,,,,,,5,Slow,short,d,0,2.1487,3,0,12,2,1,,,,,
,0.8,,,,,,,,,k,purple,5f6f44e9451a3b0836b5d32c,2021-09-27_16h07.44.799,forced_choiceRT_color,2021.2.3,Win32,74.92320372,,,,,,,,5,Fast,short,k,1,1.842,3,1,13,3,1,,,,,
,1.28,,,,,,,,,d,orange,5f6f44e9451a3b0836b5d32c,2021-09-27_16h07.44.799,forced_choiceRT_color,2021.2.3,Win32,74.92320372,,,,,,,,5,Ontime,short,d,1,1.9955,3,2,14,0,1,,,,,
,1.9,,,,,,,,,f,blue,5f6f44e9451a3b0836b5d32c,2021-09-27_16h07.44.799,forced_choiceRT_color,2021.2.3,Win32,74.92320372,,,,,,,,5,Slow,short,f,1,2.3942,3,3,15,1,1,,,,,
,0.05,,,,,,,,,f,blue,5f6f44e9451a3b0836b5d32c,2021-09-27_16h07.44.799,forced_choiceRT_color,2021.2.3,Win32,74.92320372,,,,,,,,5,Fast,short,f,1,1.8862,4,0,16,1,1,,,,,
,0.78,,,,,,,,,d,orange,5f6f44e9451a3b0836b5d32c,2021-09-27_16h07.44.799,forced_choiceRT_color,2021.2.3,Win32,74.92320372,,,,,,,,5,Ontime,short,d,1,1.9751,4,1,17,0,1,,,,,
,1.53,,,,,,,,,k,purple,5f6f44e9451a3b0836b5d32c,2021-09-27_16h07.44.799,forced_choiceRT_color,2021.2.3,Win32,74.92320372,,,,,,,,5,Slow,short,k,1,2.2907,4,2,18,3,1,,,,,
,0.29,,,,,,,,,f,blue,5f6f44e9451a3b0836b5d32c,2021-09-27_16h07.44.799,forced_choiceRT_color,2021.2.3,Win32,74.92320372,,,,,,,,5,Ontime,short,f,1,2.0099,4,3,19,1,1,,,,,
,0.17,,,,,,,,,k,purple,5f6f44e9451a3b0836b5d32c,2021-09-27_16h07.44.799,forced_choiceRT_color,2021.2.3,Win32,74.92320372,,,,,,,,5,Ontime,short,k,1,2.0303,5,0,20,3,1,,,,,
,1.79,,,,,,,,,d,orange,5f6f44e9451a3b0836b5d32c,2021-09-27_16h07.44.799,forced_choiceRT_color,2021.2.3,Win32,74.92320372,,,,,,,,5,Slow,short,d,1,2.2768,5,1,21,0,1,,,,,
,1.72,,,,,,,,,k,purple,5f6f44e9451a3b0836b5d32c,2021-09-27_16h07.44.799,forced_choiceRT_color,2021.2.3,Win32,74.92320372,,,,,,,,5,Slow,short,k,1,2.2682,5,2,22,3,1,,,,,
,0.51,,,,,,,,,d,orange,5f6f44e9451a3b0836b5d32c,2021-09-27_16h07.44.799,forced_choiceRT_color,2021.2.3,Win32,74.92320372,,,,,,,,5,Slow,short,d,1,2.1626,5,3,23,0,1,,,,,
,0.66,,,,,,,,,k,purple,5f6f44e9451a3b0836b5d32c,2021-09-27_16h07.44.799,forced_choiceRT_color,2021.2.3,Win32,74.92320372,,,,,,,,5,Ontime,short,k,1,1.9496,6,0,24,3,1,,,,,
,1.06,,,,,,,,,d,orange,5f6f44e9451a3b0836b5d32c,2021-09-27_16h07.44.799,forced_choiceRT_color,2021.2.3,Win32,74.92320372,,,,,,,,5,Ontime,short,d,1,2.0821,6,1,25,0,1,,,,,
,0.29,,,,,,,,,f,blue,5f6f44e9451a3b0836b5d32c,2021-09-27_16h07.44.799,forced_choiceRT_color,2021.2.3,Win32,74.92320372,,,,,,,,5,Fast,short,f,1,1.881,6,2,26,1,1,,,,,
,0.99,,,,,,,,,j,red,5f6f44e9451a3b0836b5d32c,2021-09-27_16h07.44.799,forced_choiceRT_color,2021.2.3,Win32,74.92320372,,,,,,,,5,Fast,short,j,1,1.8511,6,3,27,2,1,,,,,
,1.94,,,,,,,,,j,red,5f6f44e9451a3b0836b5d32c,2021-09-27_16h07.44.799,forced_choiceRT_color,2021.2.3,Win32,74.92320372,,,,,,,,5,Slow,short,j,1,2.4994,7,0,28,2,1,,,,,
,0.75,,,,,,,,,j,red,5f6f44e9451a3b0836b5d32c,2021-09-27_16h07.44.799,forced_choiceRT_color,2021.2.3,Win32,74.92320372,,,,,,,,5,Ontime,short,j,1,1.9187,7,1,29,2,1,,,,,
,0.71,,,,,,,,,k,purple,5f6f44e9451a3b0836b5d32c,2021-09-27_16h07.44.799,forced_choiceRT_color,2021.2.3,Win32,74.92320372,,,,,,,,5,Fast,short,k,1,1.8882,7,2,30,3,1,,,,,
,0.27,,,,,,,,,d,orange,5f6f44e9451a3b0836b5d32c,2021-09-27_16h07.44.799,forced_choiceRT_color,2021.2.3,Win32,74.92320372,,,,,,,,5,Fast,short,d,1,1.8701,7,3,31,0,1,,,,,
,1.81,,,,,,,,,f,blue,5f6f44e9451a3b0836b5d32c,2021-09-27_16h07.44.799,forced_choiceRT_color,2021.2.3,Win32,74.92320372,,,,,,,,5,Slow,short,f,1,2.3113,8,0,32,1,1,,,,,
,1.26,,,,,,,,,f,blue,5f6f44e9451a3b0836b5d32c,2021-09-27_16h07.44.799,forced_choiceRT_color,2021.2.3,Win32,74.92320372,,,,,,,,5,Ontime,short,f,1,1.9342,8,1,33,1,1,,,,,
,1.49,,,,,,,,,d,orange,5f6f44e9451a3b0836b5d32c,2021-09-27_16h07.44.799,forced_choiceRT_color,2021.2.3,Win32,74.92320372,,,,,,,,5,Ontime,short,d,1,2.032,8,2,34,0,1,,,,,
,1.49,,,,,,,,,f,blue,5f6f44e9451a3b0836b5d32c,2021-09-27_16h07.44.799,forced_choiceRT_color,2021.2.3,Win32,74.92320372,,,,,,,,5,Ontime,short,f,1,1.9787,8,3,35,1,1,,,,,
,0.35,,,,,,,,,j,red,5f6f44e9451a3b0836b5d32c,2021-09-27_16h07.44.799,forced_choiceRT_color,2021.2.3,Win32,74.92320372,,,,,,,,5,Fast,short,j,1,1.8676,9,0,36,2,1,,,,,
,1.71,,,,,,,,,f,blue,5f6f44e9451a3b0836b5d32c,2021-09-27_16h07.44.799,forced_choiceRT_color,2021.2.3,Win32,74.92320372,,,,,,,,5,Slow,short,d,0,2.1206,9,1,37,1,1,,,,,
,0.67,,,,,,,,,d,orange,5f6f44e9451a3b0836b5d32c,2021-09-27_16h07.44.799,forced_choiceRT_color,2021.2.3,Win32,74.92320372,,,,,,,,5,Fast,short,d,1,1.7337,9,2,38,0,1,,,,,
,0.42,,,,,,,,,j,red,5f6f44e9451a3b0836b5d32c,2021-09-27_16h07.44.799,forced_choiceRT_color,2021.2.3,Win32,74.92320372,,,,,,,,5,Fast,short,j,1,1.8715,9,3,39,2,1,,,,,
,,,,,,,,,,,,5f6f44e9451a3b0836b5d32c,2021-09-27_16h07.44.799,forced_choiceRT_color,2021.2.3,Win32,74.92320372,,,,,,,,,,,,,,,,,,,4,0,4,0,1
,0.58,,,,,,,,,f,blue,5f6f44e9451a3b0836b5d32c,2021-09-27_16h07.44.799,forced_choiceRT_color,2021.2.3,Win32,74.92320372,,,,,,,,6,Fast,short,f,1,1.8702,0,0,0,1,1,,,,,
,1.7,,,,,,,,,k,purple,5f6f44e9451a3b0836b5d32c,2021-09-27_16h07.44.799,forced_choiceRT_color,2021.2.3,Win32,74.92320372,,,,,,,,6,Slow,short,k,1,2.212,0,1,1,3,1,,,,,
,1.06,,,,,,,,,j,red,5f6f44e9451a3b0836b5d32c,2021-09-27_16h07.44.799,forced_choiceRT_color,2021.2.3,Win32,74.92320372,,,,,,,,6,Fast,short,j,1,1.8777,0,2,2,2,1,,,,,
,0,,,,,,,,,f,blue,5f6f44e9451a3b0836b5d32c,2021-09-27_16h07.44.799,forced_choiceRT_color,2021.2.3,Win32,74.92320372,,,,,,,,6,Fast,short,f,1,1.8919,0,3,3,1,1,,,,,
,0.99,,,,,,,,,k,purple,5f6f44e9451a3b0836b5d32c,2021-09-27_16h07.44.799,forced_choiceRT_color,2021.2.3,Win32,74.92320372,,,,,,,,6,Ontime,short,k,1,1.9616,1,0,4,3,1,,,,,
,0.98,,,,,,,,,d,orange,5f6f44e9451a3b0836b5d32c,2021-09-27_16h07.44.799,forced_choiceRT_color,2021.2.3,Win32,74.92320372,,,,,,,,6,Ontime,short,d,1,1.9549,1,1,5,0,1,,,,,
,1.71,,,,,,,,,f,blue,5f6f44e9451a3b0836b5d32c,2021-09-27_16h07.44.799,forced_choiceRT_color,2021.2.3,Win32,74.92320372,,,,,,,,6,Slow,short,f,1,2.148,1,2,6,1,1,,,,,
,0.3,,,,,,,,,f,blue,5f6f44e9451a3b0836b5d32c,2021-09-27_16h07.44.799,forced_choiceRT_color,2021.2.3,Win32,74.92320372,,,,,,,,6,Ontime,short,f,1,1.9111,1,3,7,1,1,,,,,
,0.38,,,,,,,,,d,orange,5f6f44e9451a3b0836b5d32c,2021-09-27_16h07.44.799,forced_choiceRT_color,2021.2.3,Win32,74.92320372,,,,,,,,6,Fast,short,d,1,1.8312,2,0,8,0,1,,,,,
,1.59,,,,,,,,,d,orange,5f6f44e9451a3b0836b5d32c,2021-09-27_16h07.44.799,forced_choiceRT_color,2021.2.3,Win32,74.92320372,,,,,,,,6,Slow,short,d,1,2.2857,2,1,9,0,1,,,,,
,0.77,,,,,,,,,k,purple,5f6f44e9451a3b0836b5d32c,2021-09-27_16h07.44.799,forced_choiceRT_color,2021.2.3,Win32,74.92320372,,,,,,,,6,Ontime,short,k,1,2.031,2,2,10,3,1,,,,,
,1.35,,,,,,,,,j,red,5f6f44e9451a3b0836b5d32c,2021-09-27_16h07.44.799,forced_choiceRT_color,2021.2.3,Win32,74.92320372,,,,,,,,6,Ontime,short,f,0,1.9735,2,3,11,2,1,,,,,
,0.09,,,,,,,,,f,blue,5f6f44e9451a3b0836b5d32c,2021-09-27_16h07.44.799,forced_choiceRT_color,2021.2.3,Win32,74.92320372,,,,,,,,6,Ontime,short,f,1,1.9089,3,0,12,1,1,,,,,
,1.75,,,,,,,,,f,blue,5f6f44e9451a3b0836b5d32c,2021-09-27_16h07.44.799,forced_choiceRT_color,2021.2.3,Win32,74.92320372,,,,,,,,6,Slow,short,f,1,2.2678,3,1,13,1,1,,,,,
,0.66,,,,,,,,,k,purple,5f6f44e9451a3b0836b5d32c,2021-09-27_16h07.44.799,forced_choiceRT_color,2021.2.3,Win32,74.92320372,,,,,,,,6,Fast,short,k,1,1.8144,3,2,14,3,1,,,,,
,1.17,,,,,,,,,d,orange,5f6f44e9451a3b0836b5d32c,2021-09-27_16h07.44.799,forced_choiceRT_color,2021.2.3,Win32,74.92320372,,,,,,,,6,Fast,short,d,1,1.8826,3,3,15,0,1,,,,,
,1.77,,,,,,,,,j,red,5f6f44e9451a3b0836b5d32c,2021-09-27_16h07.44.799,forced_choiceRT_color,2021.2.3,Win32,74.92320372,,,,,,,,6,Slow,short,j,1,2.4262,4,0,16,2,1,,,,,
,0.31,,,,,,,,,k,purple,5f6f44e9451a3b0836b5d32c,2021-09-27_16h07.44.799,forced_choiceRT_color,2021.2.3,Win32,74.92320372,,,,,,,,6,Ontime,short,k,1,1.9628,4,1,17,3,1,,,,,
,1.02,,,,,,,,,f,blue,5f6f44e9451a3b0836b5d32c,2021-09-27_16h07.44.799,forced_choiceRT_color,2021.2.3,Win32,74.92320372,,,,,,,,6,Ontime,short,f,1,1.9732,4,2,18,1,1,,,,,
,1.08,,,,,,,,,j,red,5f6f44e9451a3b0836b5d32c,2021-09-27_16h07.44.799,forced_choiceRT_color,2021.2.3,Win32,74.92320372,,,,,,,,6,Fast,short,j,1,1.8821,4,3,19,2,1,,,,,
,1.93,,,,,,,,,j,red,5f6f44e9451a3b0836b5d32c,2021-09-27_16h07.44.799,forced_choiceRT_color,2021.2.3,Win32,74.92320372,,,,,,,,6,Slow,short,j,1,2.3738,5,0,20,2,1,,,,,
,0.65,,,,,,,,,d,orange,5f6f44e9451a3b0836b5d32c,2021-09-27_16h07.44.799,forced_choiceRT_color,2021.2.3,Win32,74.92320372,,,,,,,,6,Ontime,short,k,0,2.0091,5,1,21,0,1,,,,,
,1.09,,,,,,,,,k,purple,5f6f44e9451a3b0836b5d32c,2021-09-27_16h07.44.799,forced_choiceRT_color,2021.2.3,Win32,74.92320372,,,,,,,,6,Ontime,short,k,1,1.9194,5,2,22,3,1,,,,,
,0.84,,,,,,,,,j,red,5f6f44e9451a3b0836b5d32c,2021-09-27_16h07.44.799,forced_choiceRT_color,2021.2.3,Win32,74.92320372,,,,,,,,6,Fast,short,j,1,1.8731,5,3,23,2,1,,,,,
,1.94,,,,,,,,,f,blue,5f6f44e9451a3b0836b5d32c,2021-09-27_16h07.44.799,forced_choiceRT_color,2021.2.3,Win32,74.92320372,,,,,,,,6,Slow,short,d,0,2.272,6,0,24,1,1,,,,,
,0.5,,,,,,,,,d,orange,5f6f44e9451a3b0836b5d32c,2021-09-27_16h07.44.799,forced_choiceRT_color,2021.2.3,Win32,74.92320372,,,,,,,,6,Ontime,short,d,1,1.9204,6,1,25,0,1,,,,,
,1.91,,,,,,,,,f,blue,5f6f44e9451a3b0836b5d32c,2021-09-27_16h07.44.799,forced_choiceRT_color,2021.2.3,Win32,74.92320372,,,,,,,,6,Ontime,short,j,0,2.0822,6,2,26,1,1,,,,,
,1.61,,,,,,,,,j,red,5f6f44e9451a3b0836b5d32c,2021-09-27_16h07.44.799,forced_choiceRT_color,2021.2.3,Win32,74.92320372,,,,,,,,6,Fast,short,j,1,1.8932,6,3,27,2,1,,,,,
,1.86,,,,,,,,,d,orange,5f6f44e9451a3b0836b5d32c,2021-09-27_16h07.44.799,forced_choiceRT_color,2021.2.3,Win32,74.92320372,,,,,,,,6,Fast,short,k,0,1.8966,7,0,28,0,1,,,,,
,1.23,,,,,,,,,k,purple,5f6f44e9451a3b0836b5d32c,2021-09-27_16h07.44.799,forced_choiceRT_color,2021.2.3,Win32,74.92320372,,,,,,,,6,Ontime,short,k,1,1.9204,7,1,29,3,1,,,,,
,0.68,,,,,,,,,k,purple,5f6f44e9451a3b0836b5d32c,2021-09-27_16h07.44.799,forced_choiceRT_color,2021.2.3,Win32,74.92320372,,,,,,,,6,Ontime,short,k,1,1.9673,7,2,30,3,1,,,,,
,0.81,,,,,,,,,d,orange,5f6f44e9451a3b0836b5d32c,2021-09-27_16h07.44.799,forced_choiceRT_color,2021.2.3,Win32,74.92320372,,,,,,,,6,Fast,short,d,1,1.8998,7,3,31,0,1,,,,,
,1.6,,,,,,,,,d,orange,5f6f44e9451a3b0836b5d32c,2021-09-27_16h07.44.799,forced_choiceRT_color,2021.2.3,Win32,74.92320372,,,,,,,,6,Ontime,short,d,1,2.0279,8,0,32,0,1,,,,,
,1.69,,,,,,,,,d,orange,5f6f44e9451a3b0836b5d32c,2021-09-27_16h07.44.799,forced_choiceRT_color,2021.2.3,Win32,74.92320372,,,,,,,,6,Ontime,short,j,0,2.0876,8,1,33,0,1,,,,,
,1.72,,,,,,,,,j,red,5f6f44e9451a3b0836b5d32c,2021-09-27_16h07.44.799,forced_choiceRT_color,2021.2.3,Win32,74.92320372,,,,,,,,6,Slow,short,j,1,2.2018,8,2,34,2,1,,,,,
,0.08,,,,,,,,,f,blue,5f6f44e9451a3b0836b5d32c,2021-09-27_16h07.44.799,forced_choiceRT_color,2021.2.3,Win32,74.92320372,,,,,,,,6,Ontime,short,f,1,1.9734,8,3,35,1,1,,,,,
,0.19,,,,,,,,,j,red,5f6f44e9451a3b0836b5d32c,2021-09-27_16h07.44.799,forced_choiceRT_color,2021.2.3,Win32,74.92320372,,,,,,,,6,Fast,short,j,1,1.8501,9,0,36,2,1,,,,,
,0.68,,,,,,,,,k,purple,5f6f44e9451a3b0836b5d32c,2021-09-27_16h07.44.799,forced_choiceRT_color,2021.2.3,Win32,74.92320372,,,,,,,,6,Ontime,short,k,1,1.9541,9,1,37,3,1,,,,,
,1.96,,,,,,,,,k,purple,5f6f44e9451a3b0836b5d32c,2021-09-27_16h07.44.799,forced_choiceRT_color,2021.2.3,Win32,74.92320372,,,,,,,,6,Slow,short,j,0,2.4428,9,2,38,3,1,,,,,
,0.14,,,,,,,,,j,red,5f6f44e9451a3b0836b5d32c,2021-09-27_16h07.44.799,forced_choiceRT_color,2021.2.3,Win32,74.92320372,,,,,,,,6,Ontime,short,j,1,1.9004,9,3,39,2,1,,,,,
,,,,,,,,,,,,5f6f44e9451a3b0836b5d32c,2021-09-27_16h07.44.799,forced_choiceRT_color,2021.2.3,Win32,74.92320372,,,,,,,,,,,,,,,,,,,5,0,5,0,1
,1.87,,,,,,,,,j,red,5f6f44e9451a3b0836b5d32c,2021-09-27_16h07.44.799,forced_choiceRT_color,2021.2.3,Win32,74.92320372,,,,,,,,7,Slow,short,f,0,2.3154,0,0,0,2,1,,,,,
,1.4,,,,,,,,,f,blue,5f6f44e9451a3b0836b5d32c,2021-09-27_16h07.44.799,forced_choiceRT_color,2021.2.3,Win32,74.92320372,,,,,,,,7,Slow,short,j,0,2.1094,0,1,1,1,1,,,,,
,1.17,,,,,,,,,d,orange,5f6f44e9451a3b0836b5d32c,2021-09-27_16h07.44.799,forced_choiceRT_color,2021.2.3,Win32,74.92320372,,,,,,,,7,Ontime,short,d,1,1.9633,0,2,2,0,1,,,,,
,0.15,,,,,,,,,j,red,5f6f44e9451a3b0836b5d32c,2021-09-27_16h07.44.799,forced_choiceRT_color,2021.2.3,Win32,74.92320372,,,,,,,,7,Ontime,short,j,1,2.0558,0,3,3,2,1,,,,,
,1.7,,,,,,,,,d,orange,5f6f44e9451a3b0836b5d32c,2021-09-27_16h07.44.799,forced_choiceRT_color,2021.2.3,Win32,74.92320372,,,,,,,,7,Slow,short,j,0,2.1821,1,0,4,0,1,,,,,
,0,,,,,,,,,f,blue,5f6f44e9451a3b0836b5d32c,2021-09-27_16h07.44.799,forced_choiceRT_color,2021.2.3,Win32,74.92320372,,,,,,,,7,Ontime,short,f,1,1.9468,1,1,5,1,1,,,,,
,0.44,,,,,,,,,d,orange,5f6f44e9451a3b0836b5d32c,2021-09-27_16h07.44.799,forced_choiceRT_color,2021.2.3,Win32,74.92320372,,,,,,,,7,Ontime,short,d,1,2.0281,1,2,6,0,1,,,,,
,1.83,,,,,,,,,d,orange,5f6f44e9451a3b0836b5d32c,2021-09-27_16h07.44.799,forced_choiceRT_color,2021.2.3,Win32,74.92320372,,,,,,,,7,Ontime,short,d,1,1.9724,1,3,7,0,1,,,,,
,0.1,,,,,,,,,j,red,5f6f44e9451a3b0836b5d32c,2021-09-27_16h07.44.799,forced_choiceRT_color,2021.2.3,Win32,74.92320372,,,,,,,,7,Ontime,short,j,1,2.0157,2,0,8,2,1,,,,,
,1.27,,,,,,,,,j,red,5f6f44e9451a3b0836b5d32c,2021-09-27_16h07.44.799,forced_choiceRT_color,2021.2.3,Win32,74.92320372,,,,,,,,7,Ontime,short,j,1,1.9272,2,1,9,2,1,,,,,
,1.83,,,,,,,,,f,blue,5f6f44e9451a3b0836b5d32c,2021-09-27_16h07.44.799,forced_choiceRT_color,2021.2.3,Win32,74.92320372,,,,,,,,7,Fast,short,k,0,1.898,2,2,10,1,1,,,,,
,0.25,,,,,,,,,f,blue,5f6f44e9451a3b0836b5d32c,2021-09-27_16h07.44.799,forced_choiceRT_color,2021.2.3,Win32,74.92320372,,,,,,,,7,Ontime,short,f,1,2.0283,2,3,11,1,1,,,,,
,1.95,,,,,,,,,k,purple,5f6f44e9451a3b0836b5d32c,2021-09-27_16h07.44.799,forced_choiceRT_color,2021.2.3,Win32,74.92320372,,,,,,,,7,Ontime,short,f,0,2.0407,3,0,12,3,1,,,,,
,0.87,,,,,,,,,k,purple,5f6f44e9451a3b0836b5d32c,2021-09-27_16h07.44.799,forced_choiceRT_color,2021.2.3,Win32,74.92320372,,,,,,,,7,Ontime,short,k,1,2.0965,3,1,13,3,1,,,,,
,0.43,,,,,,,,,d,orange,5f6f44e9451a3b0836b5d32c,2021-09-27_16h07.44.799,forced_choiceRT_color,2021.2.3,Win32,74.92320372,,,,,,,,7,Ontime,short,d,1,2.0549,3,2,14,0,1,,,,,
,1.41,,,,,,,,,f,blue,5f6f44e9451a3b0836b5d32c,2021-09-27_16h07.44.799,forced_choiceRT_color,2021.2.3,Win32,74.92320372,,,,,,,,7,Ontime,short,f,1,1.9406,3,3,15,1,1,,,,,
,1.7,,,,,,,,,d,orange,5f6f44e9451a3b0836b5d32c,2021-09-27_16h07.44.799,forced_choiceRT_color,2021.2.3,Win32,74.92320372,,,,,,,,7,Ontime,short,j,0,1.9785,4,0,16,0,1,,,,,
,0.51,,,,,,,,,d,orange,5f6f44e9451a3b0836b5d32c,2021-09-27_16h07.44.799,forced_choiceRT_color,2021.2.3,Win32,74.92320372,,,,,,,,7,Fast,short,d,1,1.8812,4,1,17,0,1,,,,,
,1.81,,,,,,,,,k,purple,5f6f44e9451a3b0836b5d32c,2021-09-27_16h07.44.799,forced_choiceRT_color,2021.2.3,Win32,74.92320372,,,,,,,,7,Ontime,short,d,0,2.0249,4,2,18,3,1,,,,,
,0.13,,,,,,,,,k,purple,5f6f44e9451a3b0836b5d32c,2021-09-27_16h07.44.799,forced_choiceRT_color,2021.2.3,Win32,74.92320372,,,,,,,,7,Ontime,short,k,1,2.0195,4,3,19,3,1,,,,,
,0.94,,,,,,,,,f,blue,5f6f44e9451a3b0836b5d32c,2021-09-27_16h07.44.799,forced_choiceRT_color,2021.2.3,Win32,74.92320372,,,,,,,,7,Ontime,short,f,1,1.994,5,0,20,1,1,,,,,
,1.27,,,,,,,,,j,red,5f6f44e9451a3b0836b5d32c,2021-09-27_16h07.44.799,forced_choiceRT_color,2021.2.3,Win32,74.92320372,,,,,,,,7,Fast,short,j,1,1.8797,5,1,21,2,1,,,,,
,1.18,,,,,,,,,j,red,5f6f44e9451a3b0836b5d32c,2021-09-27_16h07.44.799,forced_choiceRT_color,2021.2.3,Win32,74.92320372,,,,,,,,7,Ontime,short,j,1,2.0418,5,2,22,2,1,,,,,
,0.75,,,,,,,,,j,red,5f6f44e9451a3b0836b5d32c,2021-09-27_16h07.44.799,forced_choiceRT_color,2021.2.3,Win32,74.92320372,,,,,,,,7,Ontime,short,j,1,2.0999,5,3,23,2,1,,,,,
,1.71,,,,,,,,,f,blue,5f6f44e9451a3b0836b5d32c,2021-09-27_16h07.44.799,forced_choiceRT_color,2021.2.3,Win32,74.92320372,,,,,,,,7,Slow,short,f,1,2.1576,6,0,24,1,1,,,,,
,1.94,,,,,,,,,d,orange,5f6f44e9451a3b0836b5d32c,2021-09-27_16h07.44.799,forced_choiceRT_color,2021.2.3,Win32,74.92320372,,,,,,,,7,Fast,short,d,1,1.8191,6,1,25,0,1,,,,,
,0.29,,,,,,,,,j,red,5f6f44e9451a3b0836b5d32c,2021-09-27_16h07.44.799,forced_choiceRT_color,2021.2.3,Win32,74.92320372,,,,,,,,7,Ontime,short,j,1,2.0083,6,2,26,2,1,,,,,
,0.03,,,,,,,,,f,blue,5f6f44e9451a3b0836b5d32c,2021-09-27_16h07.44.799,forced_choiceRT_color,2021.2.3,Win32,74.92320372,,,,,,,,7,Ontime,short,f,1,2.0587,6,3,27,1,1,,,,,
,0.92,,,,,,,,,j,red,5f6f44e9451a3b0836b5d32c,2021-09-27_16h07.44.799,forced_choiceRT_color,2021.2.3,Win32,74.92320372,,,,,,,,7,Ontime,short,j,1,1.9745,7,0,28,2,1,,,,,
,1.49,,,,,,,,,k,purple,5f6f44e9451a3b0836b5d32c,2021-09-27_16h07.44.799,forced_choiceRT_color,2021.2.3,Win32,74.92320372,,,,,,,,7,Ontime,short,f,0,1.9598,7,1,29,3,1,,,,,
,1.62,,,,,,,,,f,blue,5f6f44e9451a3b0836b5d32c,2021-09-27_16h07.44.799,forced_choiceRT_color,2021.2.3,Win32,74.92320372,,,,,,,,7,Slow,short,f,1,2.1464,7,2,30,1,1,,,,,
,1.17,,,,,,,,,k,purple,5f6f44e9451a3b0836b5d32c,2021-09-27_16h07.44.799,forced_choiceRT_color,2021.2.3,Win32,74.92320372,,,,,,,,7,Ontime,short,k,1,1.9281,7,3,31,3,1,,,,,
,1.84,,,,,,,,,d,orange,5f6f44e9451a3b0836b5d32c,2021-09-27_16h07.44.799,forced_choiceRT_color,2021.2.3,Win32,74.92320372,,,,,,,,7,Ontime,short,d,1,1.9152,8,0,32,0,1,,,,,
,0.74,,,,,,,,,k,purple,5f6f44e9451a3b0836b5d32c,2021-09-27_16h07.44.799,forced_choiceRT_color,2021.2.3,Win32,74.92320372,,,,,,,,7,Ontime,short,k,1,2.0611,8,1,33,3,1,,,,,
,0.45,,,,,,,,,f,blue,5f6f44e9451a3b0836b5d32c,2021-09-27_16h07.44.799,forced_choiceRT_color,2021.2.3,Win32,74.92320372,,,,,,,,7,Ontime,short,f,1,1.9471,8,2,34,1,1,,,,,
,1.16,,,,,,,,,k,purple,5f6f44e9451a3b0836b5d32c,2021-09-27_16h07.44.799,forced_choiceRT_color,2021.2.3,Win32,74.92320372,,,,,,,,7,Ontime,short,k,1,1.939,8,3,35,3,1,,,,,
,0.49,,,,,,,,,k,purple,5f6f44e9451a3b0836b5d32c,2021-09-27_16h07.44.799,forced_choiceRT_color,2021.2.3,Win32,74.92320372,,,,,,,,7,Fast,short,k,1,1.849,9,0,36,3,1,,,,,
,0.7,,,,,,,,,k,purple,5f6f44e9451a3b0836b5d32c,2021-09-27_16h07.44.799,forced_choiceRT_color,2021.2.3,Win32,74.92320372,,,,,,,,7,Ontime,short,k,1,1.9867,9,1,37,3,1,,,,,
,1.65,,,,,,,,,j,red,5f6f44e9451a3b0836b5d32c,2021-09-27_16h07.44.799,forced_choiceRT_color,2021.2.3,Win32,74.92320372,,,,,,,,7,Ontime,short,f,0,2.0896,9,2,38,2,1,,,,,
,1.86,,,,,,,,,d,orange,5f6f44e9451a3b0836b5d32c,2021-09-27_16h07.44.799,forced_choiceRT_color,2021.2.3,Win32,74.92320372,,,,,,,,7,Ontime,short,f,0,2.0594,9,3,39,0,1,,,,,
,,,,,,,,,,,,5f6f44e9451a3b0836b5d32c,2021-09-27_16h07.44.799,forced_choiceRT_color,2021.2.3,Win32,74.92320372,,,,,,,,,,,,,,,,,,,6,0,6,0,1
,1.63,,,,,,,,,j,red,5f6f44e9451a3b0836b5d32c,2021-09-27_16h07.44.799,forced_choiceRT_color,2021.2.3,Win32,74.92320372,,,,,,,,8,Slow,short,d,0,2.1153,0,0,0,2,1,,,,,
,0.88,,,,,,,,,j,red,5f6f44e9451a3b0836b5d32c,2021-09-27_16h07.44.799,forced_choiceRT_color,2021.2.3,Win32,74.92320372,,,,,,,,8,Ontime,short,j,1,2.0006,0,1,1,2,1,,,,,
,0.98,,,,,,,,,k,purple,5f6f44e9451a3b0836b5d32c,2021-09-27_16h07.44.799,forced_choiceRT_color,2021.2.3,Win32,74.92320372,,,,,,,,8,Ontime,short,k,1,1.9995,0,2,2,3,1,,,,,
,0.75,,,,,,,,,f,blue,5f6f44e9451a3b0836b5d32c,2021-09-27_16h07.44.799,forced_choiceRT_color,2021.2.3,Win32,74.92320372,,,,,,,,8,Ontime,short,f,1,2.0532,0,3,3,1,1,,,,,
,1.22,,,,,,,,,k,purple,5f6f44e9451a3b0836b5d32c,2021-09-27_16h07.44.799,forced_choiceRT_color,2021.2.3,Win32,74.92320372,,,,,,,,8,Ontime,short,k,1,1.9186,1,0,4,3,1,,,,,
,1.32,,,,,,,,,j,red,5f6f44e9451a3b0836b5d32c,2021-09-27_16h07.44.799,forced_choiceRT_color,2021.2.3,Win32,74.92320372,,,,,,,,8,Ontime,short,j,1,1.9431,1,1,5,2,1,,,,,
,1.44,,,,,,,,,k,purple,5f6f44e9451a3b0836b5d32c,2021-09-27_16h07.44.799,forced_choiceRT_color,2021.2.3,Win32,74.92320372,,,,,,,,8,Ontime,short,j,0,1.9151,1,2,6,3,1,,,,,
,1.72,,,,,,,,,j,red,5f6f44e9451a3b0836b5d32c,2021-09-27_16h07.44.799,forced_choiceRT_color,2021.2.3,Win32,74.92320372,,,,,,,,8,Ontime,short,d,0,1.9495,1,3,7,2,1,,,,,
,1.12,,,,,,,,,f,blue,5f6f44e9451a3b0836b5d32c,2021-09-27_16h07.44.799,forced_choiceRT_color,2021.2.3,Win32,74.92320372,,,,,,,,8,Fast,short,f,1,1.8936,2,0,8,1,1,,,,,
,0.23,,,,,,,,,k,purple,5f6f44e9451a3b0836b5d32c,2021-09-27_16h07.44.799,forced_choiceRT_color,2021.2.3,Win32,74.92320372,,,,,,,,8,Ontime,short,k,1,1.9883,2,1,9,3,1,,,,,
,1.62,,,,,,,,,f,blue,5f6f44e9451a3b0836b5d32c,2021-09-27_16h07.44.799,forced_choiceRT_color,2021.2.3,Win32,74.92320372,,,,,,,,8,Ontime,short,f,1,2.074,2,2,10,1,1,,,,,
,1.29,,,,,,,,,d,orange,5f6f44e9451a3b0836b5d32c,2021-09-27_16h07.44.799,forced_choiceRT_color,2021.2.3,Win32,74.92320372,,,,,,,,8,Ontime,short,d,1,1.9282,2,3,11,0,1,,,,,
,0.61,,,,,,,,,f,blue,5f6f44e9451a3b0836b5d32c,2021-09-27_16h07.44.799,forced_choiceRT_color,2021.2.3,Win32,74.92320372,,,,,,,,8,Ontime,short,j,0,1.9343,3,0,12,1,1,,,,,
,1.32,,,,,,,,,d,orange,5f6f44e9451a3b0836b5d32c,2021-09-27_16h07.44.799,forced_choiceRT_color,2021.2.3,Win32,74.92320372,,,,,,,,8,Ontime,short,d,1,1.9245,3,1,13,0,1,,,,,
,1.45,,,,,,,,,f,blue,5f6f44e9451a3b0836b5d32c,2021-09-27_16h07.44.799,forced_choiceRT_color,2021.2.3,Win32,74.92320372,,,,,,,,8,Ontime,short,f,1,1.9106,3,2,14,1,1,,,,,
,0.56,,,,,,,,,d,orange,5f6f44e9451a3b0836b5d32c,2021-09-27_16h07.44.799,forced_choiceRT_color,2021.2.3,Win32,74.92320372,,,,,,,,8,Ontime,short,d,1,1.9928,3,3,15,0,1,,,,,
,1.22,,,,,,,,,k,purple,5f6f44e9451a3b0836b5d32c,2021-09-27_16h07.44.799,forced_choiceRT_color,2021.2.3,Win32,74.92320372,,,,,,,,8,Fast,short,k,1,1.8455,4,0,16,3,1,,,,,
,1.26,,,,,,,,,d,orange,5f6f44e9451a3b0836b5d32c,2021-09-27_16h07.44.799,forced_choiceRT_color,2021.2.3,Win32,74.92320372,,,,,,,,8,Ontime,short,d,1,1.9677,4,1,17,0,1,,,,,
,0.13,,,,,,,,,d,orange,5f6f44e9451a3b0836b5d32c,2021-09-27_16h07.44.799,forced_choiceRT_color,2021.2.3,Win32,74.92320372,,,,,,,,8,Ontime,short,d,1,1.9168,4,2,18,0,1,,,,,
,1.38,,,,,,,,,d,orange,5f6f44e9451a3b0836b5d32c,2021-09-27_16h07.44.799,forced_choiceRT_color,2021.2.3,Win32,74.92320372,,,,,,,,8,Fast,short,d,1,1.8958,4,3,19,0,1,,,,,
,1.47,,,,,,,,,f,blue,5f6f44e9451a3b0836b5d32c,2021-09-27_16h07.44.799,forced_choiceRT_color,2021.2.3,Win32,74.92320372,,,,,,,,8,Ontime,short,j,0,1.9825,5,0,20,1,1,,,,,
,0.46,,,,,,,,,d,orange,5f6f44e9451a3b0836b5d32c,2021-09-27_16h07.44.799,forced_choiceRT_color,2021.2.3,Win32,74.92320372,,,,,,,,8,Ontime,short,d,1,1.9657,5,1,21,0,1,,,,,
,0.77,,,,,,,,,f,blue,5f6f44e9451a3b0836b5d32c,2021-09-27_16h07.44.799,forced_choiceRT_color,2021.2.3,Win32,74.92320372,,,,,,,,8,Ontime,short,f,1,2.0722,5,2,22,1,1,,,,,
,1.31,,,,,,,,,f,blue,5f6f44e9451a3b0836b5d32c,2021-09-27_16h07.44.799,forced_choiceRT_color,2021.2.3,Win32,74.92320372,,,,,,,,8,Ontime,short,f,1,2.0925,5,3,23,1,1,,,,,
,0.36,,,,,,,,,k,purple,5f6f44e9451a3b0836b5d32c,2021-09-27_16h07.44.799,forced_choiceRT_color,2021.2.3,Win32,74.92320372,,,,,,,,8,Ontime,short,k,1,2.0332,6,0,24,3,1,,,,,
,0.23,,,,,,,,,j,red,5f6f44e9451a3b0836b5d32c,2021-09-27_16h07.44.799,forced_choiceRT_color,2021.2.3,Win32,74.92320372,,,,,,,,8,Ontime,short,j,1,2.0567,6,1,25,2,1,,,,,
,0.3,,,,,,,,,f,blue,5f6f44e9451a3b0836b5d32c,2021-09-27_16h07.44.799,forced_choiceRT_color,2021.2.3,Win32,74.92320372,,,,,,,,8,Ontime,short,f,1,2.0555,6,2,26,1,1,,,,,
,1.27,,,,,,,,,d,orange,5f6f44e9451a3b0836b5d32c,2021-09-27_16h07.44.799,forced_choiceRT_color,2021.2.3,Win32,74.92320372,,,,,,,,8,Ontime,short,d,1,1.9737,6,3,27,0,1,,,,,
,1.98,,,,,,,,,j,red,5f6f44e9451a3b0836b5d32c,2021-09-27_16h07.44.799,forced_choiceRT_color,2021.2.3,Win32,74.92320372,,,,,,,,8,Slow,short,f,0,2.2135,7,0,28,2,1,,,,,
,1.29,,,,,,,,,j,red,5f6f44e9451a3b0836b5d32c,2021-09-27_16h07.44.799,forced_choiceRT_color,2021.2.3,Win32,74.92320372,,,,,,,,8,Ontime,short,j,1,1.9262,7,1,29,2,1,,,,,
,1.33,,,,,,,,,f,blue,5f6f44e9451a3b0836b5d32c,2021-09-27_16h07.44.799,forced_choiceRT_color,2021.2.3,Win32,74.92320372,,,,,,,,8,Ontime,short,f,1,1.9289,7,2,30,1,1,,,,,
,0.59,,,,,,,,,d,orange,5f6f44e9451a3b0836b5d32c,2021-09-27_16h07.44.799,forced_choiceRT_color,2021.2.3,Win32,74.92320372,,,,,,,,8,Ontime,short,d,1,2.0458,7,3,31,0,1,,,,,
,1.25,,,,,,,,,k,purple,5f6f44e9451a3b0836b5d32c,2021-09-27_16h07.44.799,forced_choiceRT_color,2021.2.3,Win32,74.92320372,,,,,,,,8,Ontime,short,k,1,1.9927,8,0,32,3,1,,,,,
,0.92,,,,,,,,,j,red,5f6f44e9451a3b0836b5d32c,2021-09-27_16h07.44.799,forced_choiceRT_color,2021.2.3,Win32,74.92320372,,,,,,,,8,Fast,short,j,1,1.8963,8,1,33,2,1,,,,,
,0.21,,,,,,,,,j,red,5f6f44e9451a3b0836b5d32c,2021-09-27_16h07.44.799,forced_choiceRT_color,2021.2.3,Win32,74.92320372,,,,,,,,8,Ontime,short,j,1,2.0613,8,2,34,2,1,,,,,
,1.04,,,,,,,,,d,orange,5f6f44e9451a3b0836b5d32c,2021-09-27_16h07.44.799,forced_choiceRT_color,2021.2.3,Win32,74.92320372,,,,,,,,8,Ontime,short,d,1,2.0422,8,3,35,0,1,,,,,
,1.1,,,,,,,,,k,purple,5f6f44e9451a3b0836b5d32c,2021-09-27_16h07.44.799,forced_choiceRT_color,2021.2.3,Win32,74.92320372,,,,,,,,8,Ontime,short,k,1,1.9914,9,0,36,3,1,,,,,
,0.61,,,,,,,,,k,purple,5f6f44e9451a3b0836b5d32c,2021-09-27_16h07.44.799,forced_choiceRT_color,2021.2.3,Win32,74.92320372,,,,,,,,8,Ontime,short,k,1,2.0571,9,1,37,3,1,,,,,
,0.37,,,,,,,,,k,purple,5f6f44e9451a3b0836b5d32c,2021-09-27_16h07.44.799,forced_choiceRT_color,2021.2.3,Win32,74.92320372,,,,,,,,8,Slow,short,k,1,2.1193,9,2,38,3,1,,,,,
,1.12,,,,,,,,,j,red,5f6f44e9451a3b0836b5d32c,2021-09-27_16h07.44.799,forced_choiceRT_color,2021.2.3,Win32,74.92320372,,,,,,,,8,Ontime,short,j,1,1.9719,9,3,39,2,1,,,,,
,,,,,,,,,,,,5f6f44e9451a3b0836b5d32c,2021-09-27_16h07.44.799,forced_choiceRT_color,2021.2.3,Win32,74.92320372,,,,,,,,,,,,,,,,,,,7,0,7,0,1
,1.31,,,,,,,,,k,purple,5f6f44e9451a3b0836b5d32c,2021-09-27_16h07.44.799,forced_choiceRT_color,2021.2.3,Win32,74.92320372,,,,,,,,9,Ontime,short,k,1,1.9725,0,0,0,3,1,,,,,
,0.16,,,,,,,,,f,blue,5f6f44e9451a3b0836b5d32c,2021-09-27_16h07.44.799,forced_choiceRT_color,2021.2.3,Win32,74.92320372,,,,,,,,9,Ontime,short,f,1,2.0225,0,1,1,1,1,,,,,
,0.15,,,,,,,,,j,red,5f6f44e9451a3b0836b5d32c,2021-09-27_16h07.44.799,forced_choiceRT_color,2021.2.3,Win32,74.92320372,,,,,,,,9,Ontime,short,j,1,2.0148,0,2,2,2,1,,,,,
,1.79,,,,,,,,,j,red,5f6f44e9451a3b0836b5d32c,2021-09-27_16h07.44.799,forced_choiceRT_color,2021.2.3,Win32,74.92320372,,,,,,,,9,Ontime,short,d,0,1.956,0,3,3,2,1,,,,,
,1.24,,,,,,,,,k,purple,5f6f44e9451a3b0836b5d32c,2021-09-27_16h07.44.799,forced_choiceRT_color,2021.2.3,Win32,74.92320372,,,,,,,,9,Ontime,short,k,1,1.9475,1,0,4,3,1,,,,,
,1.94,,,,,,,,,j,red,5f6f44e9451a3b0836b5d32c,2021-09-27_16h07.44.799,forced_choiceRT_color,2021.2.3,Win32,74.92320372,,,,,,,,9,Ontime,short,j,1,1.9556,1,1,5,2,1,,,,,
,0.7,,,,,,,,,k,purple,5f6f44e9451a3b0836b5d32c,2021-09-27_16h07.44.799,forced_choiceRT_color,2021.2.3,Win32,74.92320372,,,,,,,,9,Ontime,short,k,1,1.964,1,2,6,3,1,,,,,
,0.6,,,,,,,,,j,red,5f6f44e9451a3b0836b5d32c,2021-09-27_16h07.44.799,forced_choiceRT_color,2021.2.3,Win32,74.92320372,,,,,,,,9,Ontime,short,j,1,2.0733,1,3,7,2,1,,,,,
,1.59,,,,,,,,,d,orange,5f6f44e9451a3b0836b5d32c,2021-09-27_16h07.44.799,forced_choiceRT_color,2021.2.3,Win32,74.92320372,,,,,,,,9,Slow,short,f,0,2.1043,2,0,8,0,1,,,,,
,0.84,,,,,,,,,d,orange,5f6f44e9451a3b0836b5d32c,2021-09-27_16h07.44.799,forced_choiceRT_color,2021.2.3,Win32,74.92320372,,,,,,,,9,Ontime,short,d,1,1.9901,2,1,9,0,1,,,,,
,1.5,,,,,,,,,k,purple,5f6f44e9451a3b0836b5d32c,2021-09-27_16h07.44.799,forced_choiceRT_color,2021.2.3,Win32,74.92320372,,,,,,,,9,Fast,short,d,0,1.8961,2,2,10,3,1,,,,,
,1.06,,,,,,,,,f,blue,5f6f44e9451a3b0836b5d32c,2021-09-27_16h07.44.799,forced_choiceRT_color,2021.2.3,Win32,74.92320372,,,,,,,,9,Ontime,short,f,1,1.9623,2,3,11,1,1,,,,,
,0.86,,,,,,,,,j,red,5f6f44e9451a3b0836b5d32c,2021-09-27_16h07.44.799,forced_choiceRT_color,2021.2.3,Win32,74.92320372,,,,,,,,9,Fast,short,j,1,1.8941,3,0,12,2,1,,,,,
,0.92,,,,,,,,,d,orange,5f6f44e9451a3b0836b5d32c,2021-09-27_16h07.44.799,forced_choiceRT_color,2021.2.3,Win32,74.92320372,,,,,,,,9,Fast,short,d,1,1.8755,3,1,13,0,1,,,,,
,1.32,,,,,,,,,d,orange,5f6f44e9451a3b0836b5d32c,2021-09-27_16h07.44.799,forced_choiceRT_color,2021.2.3,Win32,74.92320372,,,,,,,,9,Ontime,short,d,1,2.0269,3,2,14,0,1,,,,,
,0.2,,,,,,,,,k,purple,5f6f44e9451a3b0836b5d32c,2021-09-27_16h07.44.799,forced_choiceRT_color,2021.2.3,Win32,74.92320372,,,,,,,,9,Ontime,short,k,1,2.0832,3,3,15,3,1,,,,,
,0.88,,,,,,,,,f,blue,5f6f44e9451a3b0836b5d32c,2021-09-27_16h07.44.799,forced_choiceRT_color,2021.2.3,Win32,74.92320372,,,,,,,,9,Ontime,short,f,1,2.0381,4,0,16,1,1,,,,,
,0.81,,,,,,,,,f,blue,5f6f44e9451a3b0836b5d32c,2021-09-27_16h07.44.799,forced_choiceRT_color,2021.2.3,Win32,74.92320372,,,,,,,,9,Ontime,short,f,1,2.0018,4,1,17,1,1,,,,,
,0.64,,,,,,,,,k,purple,5f6f44e9451a3b0836b5d32c,2021-09-27_16h07.44.799,forced_choiceRT_color,2021.2.3,Win32,74.92320372,,,,,,,,9,Ontime,short,k,1,2.0856,4,2,18,3,1,,,,,
,0.95,,,,,,,,,f,blue,5f6f44e9451a3b0836b5d32c,2021-09-27_16h07.44.799,forced_choiceRT_color,2021.2.3,Win32,74.92320372,,,,,,,,9,Ontime,short,f,1,1.9938,4,3,19,1,1,,,,,
,0.65,,,,,,,,,d,orange,5f6f44e9451a3b0836b5d32c,2021-09-27_16h07.44.799,forced_choiceRT_color,2021.2.3,Win32,74.92320372,,,,,,,,9,Ontime,short,d,1,1.9929,5,0,20,0,1,,,,,
,0.67,,,,,,,,,k,purple,5f6f44e9451a3b0836b5d32c,2021-09-27_16h07.44.799,forced_choiceRT_color,2021.2.3,Win32,74.92320372,,,,,,,,9,Fast,short,k,1,1.8044,5,1,21,3,1,,,,,
,0.91,,,,,,,,,f,blue,5f6f44e9451a3b0836b5d32c,2021-09-27_16h07.44.799,forced_choiceRT_color,2021.2.3,Win32,74.92320372,,,,,,,,9,Ontime,short,f,1,1.9137,5,2,22,1,1,,,,,
,0.52,,,,,,,,,f,blue,5f6f44e9451a3b0836b5d32c,2021-09-27_16h07.44.799,forced_choiceRT_color,2021.2.3,Win32,74.92320372,,,,,,,,9,Ontime,short,f,1,2.0284,5,3,23,1,1,,,,,
,1.1,,,,,,,,,d,orange,5f6f44e9451a3b0836b5d32c,2021-09-27_16h07.44.799,forced_choiceRT_color,2021.2.3,Win32,74.92320372,,,,,,,,9,Ontime,short,d,1,2.0207,6,0,24,0,1,,,,,
,1.16,,,,,,,,,d,orange,5f6f44e9451a3b0836b5d32c,2021-09-27_16h07.44.799,forced_choiceRT_color,2021.2.3,Win32,74.92320372,,,,,,,,9,Ontime,short,d,1,1.9609,6,1,25,0,1,,,,,
,0.61,,,,,,,,,j,red,5f6f44e9451a3b0836b5d32c,2021-09-27_16h07.44.799,forced_choiceRT_color,2021.2.3,Win32,74.92320372,,,,,,,,9,Ontime,short,j,1,2.022,6,2,26,2,1,,,,,
,0.15,,,,,,,,,d,orange,5f6f44e9451a3b0836b5d32c,2021-09-27_16h07.44.799,forced_choiceRT_color,2021.2.3,Win32,74.92320372,,,,,,,,9,Fast,short,d,1,1.8836,6,3,27,0,1,,,,,
,0.05,,,,,,,,,d,orange,5f6f44e9451a3b0836b5d32c,2021-09-27_16h07.44.799,forced_choiceRT_color,2021.2.3,Win32,74.92320372,,,,,,,,9,Fast,short,d,1,1.7398,7,0,28,0,1,,,,,
,1.77,,,,,,,,,f,blue,5f6f44e9451a3b0836b5d32c,2021-09-27_16h07.44.799,forced_choiceRT_color,2021.2.3,Win32,74.92320372,,,,,,,,9,Slow,short,d,0,2.1102,7,1,29,1,1,,,,,
,0.33,,,,,,,,,k,purple,5f6f44e9451a3b0836b5d32c,2021-09-27_16h07.44.799,forced_choiceRT_color,2021.2.3,Win32,74.92320372,,,,,,,,9,Slow,short,k,1,2.1193,7,2,30,3,1,,,,,
,0.13,,,,,,,,,j,red,5f6f44e9451a3b0836b5d32c,2021-09-27_16h07.44.799,forced_choiceRT_color,2021.2.3,Win32,74.92320372,,,,,,,,9,Ontime,short,j,1,1.9066,7,3,31,2,1,,,,,
,0.05,,,,,,,,,j,red,5f6f44e9451a3b0836b5d32c,2021-09-27_16h07.44.799,forced_choiceRT_color,2021.2.3,Win32,74.92320372,,,,,,,,9,Ontime,short,j,1,2.0179,8,0,32,2,1,,,,,
,1.63,,,,,,,,,j,red,5f6f44e9451a3b0836b5d32c,2021-09-27_16h07.44.799,forced_choiceRT_color,2021.2.3,Win32,74.92320372,,,,,,,,9,Ontime,short,d,0,1.9298,8,1,33,2,1,,,,,
,0.97,,,,,,,,,d,orange,5f6f44e9451a3b0836b5d32c,2021-09-27_16h07.44.799,forced_choiceRT_color,2021.2.3,Win32,74.92320372,,,,,,,,9,Ontime,short,d,1,1.9933,8,2,34,0,1,,,,,
,1.97,,,,,,,,,k,purple,5f6f44e9451a3b0836b5d32c,2021-09-27_16h07.44.799,forced_choiceRT_color,2021.2.3,Win32,74.92320372,,,,,,,,9,Slow,short,k,1,2.1723,8,3,35,3,1,,,,,
,0.66,,,,,,,,,f,blue,5f6f44e9451a3b0836b5d32c,2021-09-27_16h07.44.799,forced_choiceRT_color,2021.2.3,Win32,74.92320372,,,,,,,,9,Ontime,short,f,1,2.0397,9,0,36,1,1,,,,,
,1.31,,,,,,,,,f,blue,5f6f44e9451a3b0836b5d32c,2021-09-27_16h07.44.799,forced_choiceRT_color,2021.2.3,Win32,74.92320372,,,,,,,,9,Slow,short,f,1,2.147,9,1,37,1,1,,,,,
,0.11,,,,,,,,,k,purple,5f6f44e9451a3b0836b5d32c,2021-09-27_16h07.44.799,forced_choiceRT_color,2021.2.3,Win32,74.92320372,,,,,,,,9,Ontime,short,k,1,2.0103,9,2,38,3,1,,,,,
,0.01,,,,,,,,,j,red,5f6f44e9451a3b0836b5d32c,2021-09-27_16h07.44.799,forced_choiceRT_color,2021.2.3,Win32,74.92320372,,,,,,,,9,Ontime,short,j,1,2.0336,9,3,39,2,1,,,,,
,,,,,,,,,,,,5f6f44e9451a3b0836b5d32c,2021-09-27_16h07.44.799,forced_choiceRT_color,2021.2.3,Win32,74.92320372,,,,,,,,,,,,,,,,,,,8,0,8,0,1
,0.89,,,,,,,,,f,blue,5f6f44e9451a3b0836b5d32c,2021-09-27_16h07.44.799,forced_choiceRT_color,2021.2.3,Win32,74.92320372,,,,,,,,10,Ontime,short,f,1,2.0272,0,0,0,1,1,,,,,
,1.43,,,,,,,,,f,blue,5f6f44e9451a3b0836b5d32c,2021-09-27_16h07.44.799,forced_choiceRT_color,2021.2.3,Win32,74.92320372,,,,,,,,10,Ontime,short,f,1,2.0409,0,1,1,1,1,,,,,
,1.93,,,,,,,,,j,red,5f6f44e9451a3b0836b5d32c,2021-09-27_16h07.44.799,forced_choiceRT_color,2021.2.3,Win32,74.92320372,,,,,,,,10,Ontime,short,d,0,2.0211,0,2,2,2,1,,,,,
,1.04,,,,,,,,,j,red,5f6f44e9451a3b0836b5d32c,2021-09-27_16h07.44.799,forced_choiceRT_color,2021.2.3,Win32,74.92320372,,,,,,,,10,Ontime,short,j,1,1.9934,0,3,3,2,1,,,,,
,0.62,,,,,,,,,j,red,5f6f44e9451a3b0836b5d32c,2021-09-27_16h07.44.799,forced_choiceRT_color,2021.2.3,Win32,74.92320372,,,,,,,,10,Ontime,short,j,1,2.0743,1,0,4,2,1,,,,,
,0.13,,,,,,,,,j,red,5f6f44e9451a3b0836b5d32c,2021-09-27_16h07.44.799,forced_choiceRT_color,2021.2.3,Win32,74.92320372,,,,,,,,10,Ontime,short,j,1,2.0141,1,1,5,2,1,,,,,
,0.62,,,,,,,,,k,purple,5f6f44e9451a3b0836b5d32c,2021-09-27_16h07.44.799,forced_choiceRT_color,2021.2.3,Win32,74.92320372,,,,,,,,10,Ontime,short,k,1,2.0509,1,2,6,3,1,,,,,
,1.39,,,,,,,,,d,orange,5f6f44e9451a3b0836b5d32c,2021-09-27_16h07.44.799,forced_choiceRT_color,2021.2.3,Win32,74.92320372,,,,,,,,10,Ontime,short,d,1,1.9333,1,3,7,0,1,,,,,
,1.46,,,,,,,,,j,red,5f6f44e9451a3b0836b5d32c,2021-09-27_16h07.44.799,forced_choiceRT_color,2021.2.3,Win32,74.92320372,,,,,,,,10,Ontime,short,j,1,2.0195,2,0,8,2,1,,,,,
,0.4,,,,,,,,,k,purple,5f6f44e9451a3b0836b5d32c,2021-09-27_16h07.44.799,forced_choiceRT_color,2021.2.3,Win32,74.92320372,,,,,,,,10,Ontime,short,k,1,1.9772,2,1,9,3,1,,,,,
,1.93,,,,,,,,,f,blue,5f6f44e9451a3b0836b5d32c,2021-09-27_16h07.44.799,forced_choiceRT_color,2021.2.3,Win32,74.92320372,,,,,,,,10,Ontime,short,d,0,2.0879,2,2,10,1,1,,,,,
,0.31,,,,,,,,,j,red,5f6f44e9451a3b0836b5d32c,2021-09-27_16h07.44.799,forced_choiceRT_color,2021.2.3,Win32,74.92320372,,,,,,,,10,Ontime,short,j,1,1.994,2,3,11,2,1,,,,,
,0.79,,,,,,,,,d,orange,5f6f44e9451a3b0836b5d32c,2021-09-27_16h07.44.799,forced_choiceRT_color,2021.2.3,Win32,74.92320372,,,,,,,,10,Ontime,short,d,1,2.0295,3,0,12,0,1,,,,,
,1.87,,,,,,,,,f,blue,5f6f44e9451a3b0836b5d32c,2021-09-27_16h07.44.799,forced_choiceRT_color,2021.2.3,Win32,74.92320372,,,,,,,,10,Ontime,short,k,0,2.0511,3,1,13,1,1,,,,,
,1.81,,,,,,,,,f,blue,5f6f44e9451a3b0836b5d32c,2021-09-27_16h07.44.799,forced_choiceRT_color,2021.2.3,Win32,74.92320372,,,,,,,,10,Ontime,short,f,1,2.0332,3,2,14,1,1,,,,,
,0.04,,,,,,,,,j,red,5f6f44e9451a3b0836b5d32c,2021-09-27_16h07.44.799,forced_choiceRT_color,2021.2.3,Win32,74.92320372,,,,,,,,10,Ontime,short,j,1,2.0424,3,3,15,2,1,,,,,
,1.14,,,,,,,,,k,purple,5f6f44e9451a3b0836b5d32c,2021-09-27_16h07.44.799,forced_choiceRT_color,2021.2.3,Win32,74.92320372,,,,,,,,10,Ontime,short,k,1,1.9086,4,0,16,3,1,,,,,
,0.58,,,,,,,,,d,orange,5f6f44e9451a3b0836b5d32c,2021-09-27_16h07.44.799,forced_choiceRT_color,2021.2.3,Win32,74.92320372,,,,,,,,10,Ontime,short,d,1,1.9907,4,1,17,0,1,,,,,
,0.28,,,,,,,,,d,orange,5f6f44e9451a3b0836b5d32c,2021-09-27_16h07.44.799,forced_choiceRT_color,2021.2.3,Win32,74.92320372,,,,,,,,10,Fast,short,d,1,1.7987,4,2,18,0,1,,,,,
,0.22,,,,,,,,,d,orange,5f6f44e9451a3b0836b5d32c,2021-09-27_16h07.44.799,forced_choiceRT_color,2021.2.3,Win32,74.92320372,,,,,,,,10,Ontime,short,d,1,1.9604,4,3,19,0,1,,,,,
,0.05,,,,,,,,,j,red,5f6f44e9451a3b0836b5d32c,2021-09-27_16h07.44.799,forced_choiceRT_color,2021.2.3,Win32,74.92320372,,,,,,,,10,Ontime,short,j,1,1.9869,5,0,20,2,1,,,,,
,1.5,,,,,,,,,d,orange,5f6f44e9451a3b0836b5d32c,2021-09-27_16h07.44.799,forced_choiceRT_color,2021.2.3,Win32,74.92320372,,,,,,,,10,Fast,short,f,0,1.8272,5,1,21,0,1,,,,,
,1.77,,,,,,,,,k,purple,5f6f44e9451a3b0836b5d32c,2021-09-27_16h07.44.799,forced_choiceRT_color,2021.2.3,Win32,74.92320372,,,,,,,,10,Ontime,short,j,0,1.9937,5,2,22,3,1,,,,,
,0.14,,,,,,,,,f,blue,5f6f44e9451a3b0836b5d32c,2021-09-27_16h07.44.799,forced_choiceRT_color,2021.2.3,Win32,74.92320372,,,,,,,,10,Ontime,short,f,1,2.026,5,3,23,1,1,,,,,
,0.54,,,,,,,,,d,orange,5f6f44e9451a3b0836b5d32c,2021-09-27_16h07.44.799,forced_choiceRT_color,2021.2.3,Win32,74.92320372,,,,,,,,10,Ontime,short,d,1,2.0046,6,0,24,0,1,,,,,
,1.08,,,,,,,,,j,red,5f6f44e9451a3b0836b5d32c,2021-09-27_16h07.44.799,forced_choiceRT_color,2021.2.3,Win32,74.92320372,,,,,,,,10,Ontime,short,j,1,1.9896,6,1,25,2,1,,,,,
,1.66,,,,,,,,,k,purple,5f6f44e9451a3b0836b5d32c,2021-09-27_16h07.44.799,forced_choiceRT_color,2021.2.3,Win32,74.92320372,,,,,,,,10,Slow,short,d,0,2.1051,6,2,26,3,1,,,,,
,0.99,,,,,,,,,d,orange,5f6f44e9451a3b0836b5d32c,2021-09-27_16h07.44.799,forced_choiceRT_color,2021.2.3,Win32,74.92320372,,,,,,,,10,Ontime,short,d,1,1.997,6,3,27,0,1,,,,,
,0.17,,,,,,,,,k,purple,5f6f44e9451a3b0836b5d32c,2021-09-27_16h07.44.799,forced_choiceRT_color,2021.2.3,Win32,74.92320372,,,,,,,,10,Ontime,short,k,1,2.0544,7,0,28,3,1,,,,,
,1.68,,,,,,,,,f,blue,5f6f44e9451a3b0836b5d32c,2021-09-27_16h07.44.799,forced_choiceRT_color,2021.2.3,Win32,74.92320372,,,,,,,,10,Slow,short,f,1,2.2121,7,1,29,1,1,,,,,
,0.32,,,,,,,,,k,purple,5f6f44e9451a3b0836b5d32c,2021-09-27_16h07.44.799,forced_choiceRT_color,2021.2.3,Win32,74.92320372,,,,,,,,10,Ontime,short,k,1,2.0254,7,2,30,3,1,,,,,
,0.44,,,,,,,,,f,blue,5f6f44e9451a3b0836b5d32c,2021-09-27_16h07.44.799,forced_choiceRT_color,2021.2.3,Win32,74.92320372,,,,,,,,10,Ontime,short,f,1,2.0656,7,3,31,1,1,,,,,
,0.27,,,,,,,,,d,orange,5f6f44e9451a3b0836b5d32c,2021-09-27_16h07.44.799,forced_choiceRT_color,2021.2.3,Win32,74.92320372,,,,,,,,10,Ontime,short,d,1,2.0024,8,0,32,0,1,,,,,
,1.33,,,,,,,,,j,red,5f6f44e9451a3b0836b5d32c,2021-09-27_16h07.44.799,forced_choiceRT_color,2021.2.3,Win32,74.92320372,,,,,,,,10,Ontime,short,j,1,1.9858,8,1,33,2,1,,,,,
,0.78,,,,,,,,,k,purple,5f6f44e9451a3b0836b5d32c,2021-09-27_16h07.44.799,forced_choiceRT_color,2021.2.3,Win32,74.92320372,,,,,,,,10,Ontime,short,k,1,1.99,8,2,34,3,1,,,,,
,1.95,,,,,,,,,f,blue,5f6f44e9451a3b0836b5d32c,2021-09-27_16h07.44.799,forced_choiceRT_color,2021.2.3,Win32,74.92320372,,,,,,,,10,Slow,short,f,1,2.2142,8,3,35,1,1,,,,,
,0.89,,,,,,,,,k,purple,5f6f44e9451a3b0836b5d32c,2021-09-27_16h07.44.799,forced_choiceRT_color,2021.2.3,Win32,74.92320372,,,,,,,,10,Ontime,short,k,1,2.0032,9,0,36,3,1,,,,,
,0.86,,,,,,,,,k,purple,5f6f44e9451a3b0836b5d32c,2021-09-27_16h07.44.799,forced_choiceRT_color,2021.2.3,Win32,74.92320372,,,,,,,,10,Ontime,short,k,1,2.0431,9,1,37,3,1,,,,,
,0.66,,,,,,,,,f,blue,5f6f44e9451a3b0836b5d32c,2021-09-27_16h07.44.799,forced_choiceRT_color,2021.2.3,Win32,74.92320372,,,,,,,,10,Ontime,short,f,1,2.0276,9,2,38,1,1,,,,,
,0.14,,,,,,,,,d,orange,5f6f44e9451a3b0836b5d32c,2021-09-27_16h07.44.799,forced_choiceRT_color,2021.2.3,Win32,74.92320372,,,,,,,,10,Ontime,short,d,1,1.9523,9,3,39,0,1,,,,,
,,,,,,,,,,,,5f6f44e9451a3b0836b5d32c,2021-09-27_16h07.44.799,forced_choiceRT_color,2021.2.3,Win32,74.92320372,,,,,,,,,,,,,,,,,,,9,0,9,0,1
