target_onset,trial_resp_sp.keys,trial_resp_sp.corr,trial_resp_sp.rt,trials_train_loop.thisRepN,trials_train_loop.thisTrialN,trials_train_loop.thisN,trials_train_loop.thisIndex,trials_train_loop.ran,correct_key,color,participant,date,expName,psychopyVersion,OS,frameRate,trial_resp_timing.keys,trial_resp_timing.rt,trials_train_timing.thisRepN,trials_train_timing.thisTrialN,trials_train_timing.thisN,trials_train_timing.thisIndex,trials_train_timing.ran,block_id,ontime,feedback_cond,forcedRT_resp.keys,forcedRT_resp.corr,forcedRT_resp.rt,trials.thisRepN,trials.thisTrialN,trials.thisN,trials.thisIndex,trials.ran,blocks.thisRepN,blocks.thisTrialN,blocks.thisN,blocks.thisIndex,blocks.ran
0,j,1,1.2501,0,0,0,2,1,j,red,5f7672195173b4112df5ae1f,2021-09-27_15h10.33.225,forced_choiceRT_color,2021.2.3,Win32,59.98440405,,,,,,,,,,,,,,,,,,,,,,,
0,f,1,1.0844,0,1,1,1,1,f,blue,5f7672195173b4112df5ae1f,2021-09-27_15h10.33.225,forced_choiceRT_color,2021.2.3,Win32,59.98440405,,,,,,,,,,,,,,,,,,,,,,,
0,f,1,0.5374,0,2,2,1,1,f,blue,5f7672195173b4112df5ae1f,2021-09-27_15h10.33.225,forced_choiceRT_color,2021.2.3,Win32,59.98440405,,,,,,,,,,,,,,,,,,,,,,,
0,j,0,0.5864,0,3,3,3,1,k,purple,5f7672195173b4112df5ae1f,2021-09-27_15h10.33.225,forced_choiceRT_color,2021.2.3,Win32,59.98440405,,,,,,,,,,,,,,,,,,,,,,,
0,j,1,0.5909,1,0,4,2,1,j,red,5f7672195173b4112df5ae1f,2021-09-27_15h10.33.225,forced_choiceRT_color,2021.2.3,Win32,59.98440405,,,,,,,,,,,,,,,,,,,,,,,
0,k,1,0.5508,1,1,5,3,1,k,purple,5f7672195173b4112df5ae1f,2021-09-27_15h10.33.225,forced_choiceRT_color,2021.2.3,Win32,59.98440405,,,,,,,,,,,,,,,,,,,,,,,
0,d,1,0.7341,1,2,6,0,1,d,orange,5f7672195173b4112df5ae1f,2021-09-27_15h10.33.225,forced_choiceRT_color,2021.2.3,Win32,59.98440405,,,,,,,,,,,,,,,,,,,,,,,
0,d,1,0.4343,1,3,7,0,1,d,orange,5f7672195173b4112df5ae1f,2021-09-27_15h10.33.225,forced_choiceRT_color,2021.2.3,Win32,59.98440405,,,,,,,,,,,,,,,,,,,,,,,
0,j,1,0.7722,2,0,8,2,1,j,red,5f7672195173b4112df5ae1f,2021-09-27_15h10.33.225,forced_choiceRT_color,2021.2.3,Win32,59.98440405,,,,,,,,,,,,,,,,,,,,,,,
0,j,1,0.4576,2,1,9,2,1,j,red,5f7672195173b4112df5ae1f,2021-09-27_15h10.33.225,forced_choiceRT_color,2021.2.3,Win32,59.98440405,,,,,,,,,,,,,,,,,,,,,,,
0,d,1,0.6074,2,2,10,0,1,d,orange,5f7672195173b4112df5ae1f,2021-09-27_15h10.33.225,forced_choiceRT_color,2021.2.3,Win32,59.98440405,,,,,,,,,,,,,,,,,,,,,,,
0,j,1,0.8006,2,3,11,2,1,j,red,5f7672195173b4112df5ae1f,2021-09-27_15h10.33.225,forced_choiceRT_color,2021.2.3,Win32,59.98440405,,,,,,,,,,,,,,,,,,,,,,,
0,f,1,0.7056,3,0,12,1,1,f,blue,5f7672195173b4112df5ae1f,2021-09-27_15h10.33.225,forced_choiceRT_color,2021.2.3,Win32,59.98440405,,,,,,,,,,,,,,,,,,,,,,,
0,j,1,0.5927,3,1,13,2,1,j,red,5f7672195173b4112df5ae1f,2021-09-27_15h10.33.225,forced_choiceRT_color,2021.2.3,Win32,59.98440405,,,,,,,,,,,,,,,,,,,,,,,
0,k,1,0.4842,3,2,14,3,1,k,purple,5f7672195173b4112df5ae1f,2021-09-27_15h10.33.225,forced_choiceRT_color,2021.2.3,Win32,59.98440405,,,,,,,,,,,,,,,,,,,,,,,
0,j,1,0.6205,3,3,15,2,1,j,red,5f7672195173b4112df5ae1f,2021-09-27_15h10.33.225,forced_choiceRT_color,2021.2.3,Win32,59.98440405,,,,,,,,,,,,,,,,,,,,,,,
0,j,1,0.5341,4,0,16,2,1,j,red,5f7672195173b4112df5ae1f,2021-09-27_15h10.33.225,forced_choiceRT_color,2021.2.3,Win32,59.98440405,,,,,,,,,,,,,,,,,,,,,,,
0,d,1,0.6637,4,1,17,0,1,d,orange,5f7672195173b4112df5ae1f,2021-09-27_15h10.33.225,forced_choiceRT_color,2021.2.3,Win32,59.98440405,,,,,,,,,,,,,,,,,,,,,,,
0,k,1,0.6368,4,2,18,3,1,k,purple,5f7672195173b4112df5ae1f,2021-09-27_15h10.33.225,forced_choiceRT_color,2021.2.3,Win32,59.98440405,,,,,,,,,,,,,,,,,,,,,,,
0,f,1,0.6703,4,3,19,1,1,f,blue,5f7672195173b4112df5ae1f,2021-09-27_15h10.33.225,forced_choiceRT_color,2021.2.3,Win32,59.98440405,,,,,,,,,,,,,,,,,,,,,,,
0,d,1,0.5774,5,0,20,0,1,d,orange,5f7672195173b4112df5ae1f,2021-09-27_15h10.33.225,forced_choiceRT_color,2021.2.3,Win32,59.98440405,,,,,,,,,,,,,,,,,,,,,,,
0,d,1,0.4506,5,1,21,0,1,d,orange,5f7672195173b4112df5ae1f,2021-09-27_15h10.33.225,forced_choiceRT_color,2021.2.3,Win32,59.98440405,,,,,,,,,,,,,,,,,,,,,,,
0,d,1,0.3773,5,2,22,0,1,d,orange,5f7672195173b4112df5ae1f,2021-09-27_15h10.33.225,forced_choiceRT_color,2021.2.3,Win32,59.98440405,,,,,,,,,,,,,,,,,,,,,,,
0,k,1,0.6062,5,3,23,3,1,k,purple,5f7672195173b4112df5ae1f,2021-09-27_15h10.33.225,forced_choiceRT_color,2021.2.3,Win32,59.98440405,,,,,,,,,,,,,,,,,,,,,,,
0,f,1,0.5339,6,0,24,1,1,f,blue,5f7672195173b4112df5ae1f,2021-09-27_15h10.33.225,forced_choiceRT_color,2021.2.3,Win32,59.98440405,,,,,,,,,,,,,,,,,,,,,,,
0,j,0,0.6095,6,1,25,3,1,k,purple,5f7672195173b4112df5ae1f,2021-09-27_15h10.33.225,forced_choiceRT_color,2021.2.3,Win32,59.98440405,,,,,,,,,,,,,,,,,,,,,,,
0,d,1,0.5379,6,2,26,0,1,d,orange,5f7672195173b4112df5ae1f,2021-09-27_15h10.33.225,forced_choiceRT_color,2021.2.3,Win32,59.98440405,,,,,,,,,,,,,,,,,,,,,,,
0,f,1,0.6665,6,3,27,1,1,f,blue,5f7672195173b4112df5ae1f,2021-09-27_15h10.33.225,forced_choiceRT_color,2021.2.3,Win32,59.98440405,,,,,,,,,,,,,,,,,,,,,,,
0,k,1,0.4796,7,0,28,3,1,k,purple,5f7672195173b4112df5ae1f,2021-09-27_15h10.33.225,forced_choiceRT_color,2021.2.3,Win32,59.98440405,,,,,,,,,,,,,,,,,,,,,,,
0,j,1,0.4696,7,1,29,2,1,j,red,5f7672195173b4112df5ae1f,2021-09-27_15h10.33.225,forced_choiceRT_color,2021.2.3,Win32,59.98440405,,,,,,,,,,,,,,,,,,,,,,,
0,k,1,0.4668,7,2,30,3,1,k,purple,5f7672195173b4112df5ae1f,2021-09-27_15h10.33.225,forced_choiceRT_color,2021.2.3,Win32,59.98440405,,,,,,,,,,,,,,,,,,,,,,,
0,j,0,0.4788,7,3,31,3,1,k,purple,5f7672195173b4112df5ae1f,2021-09-27_15h10.33.225,forced_choiceRT_color,2021.2.3,Win32,59.98440405,,,,,,,,,,,,,,,,,,,,,,,
0,d,1,0.6288,8,0,32,0,1,d,orange,5f7672195173b4112df5ae1f,2021-09-27_15h10.33.225,forced_choiceRT_color,2021.2.3,Win32,59.98440405,,,,,,,,,,,,,,,,,,,,,,,
0,f,1,0.6792,8,1,33,1,1,f,blue,5f7672195173b4112df5ae1f,2021-09-27_15h10.33.225,forced_choiceRT_color,2021.2.3,Win32,59.98440405,,,,,,,,,,,,,,,,,,,,,,,
0,k,1,0.5034,8,2,34,3,1,k,purple,5f7672195173b4112df5ae1f,2021-09-27_15h10.33.225,forced_choiceRT_color,2021.2.3,Win32,59.98440405,,,,,,,,,,,,,,,,,,,,,,,
0,d,1,0.5358,8,3,35,0,1,d,orange,5f7672195173b4112df5ae1f,2021-09-27_15h10.33.225,forced_choiceRT_color,2021.2.3,Win32,59.98440405,,,,,,,,,,,,,,,,,,,,,,,
0,d,1,0.5337,9,0,36,0,1,d,orange,5f7672195173b4112df5ae1f,2021-09-27_15h10.33.225,forced_choiceRT_color,2021.2.3,Win32,59.98440405,,,,,,,,,,,,,,,,,,,,,,,
0,k,1,0.5609,9,1,37,3,1,k,purple,5f7672195173b4112df5ae1f,2021-09-27_15h10.33.225,forced_choiceRT_color,2021.2.3,Win32,59.98440405,,,,,,,,,,,,,,,,,,,,,,,
0,f,1,0.5474,9,2,38,1,1,f,blue,5f7672195173b4112df5ae1f,2021-09-27_15h10.33.225,forced_choiceRT_color,2021.2.3,Win32,59.98440405,,,,,,,,,,,,,,,,,,,,,,,
0,f,1,0.5957,9,3,39,1,1,f,blue,5f7672195173b4112df5ae1f,2021-09-27_15h10.33.225,forced_choiceRT_color,2021.2.3,Win32,59.98440405,,,,,,,,,,,,,,,,,,,,,,,
0,k,1,0.4698,10,0,40,3,1,k,purple,5f7672195173b4112df5ae1f,2021-09-27_15h10.33.225,forced_choiceRT_color,2021.2.3,Win32,59.98440405,,,,,,,,,,,,,,,,,,,,,,,
0,f,1,0.617,10,1,41,1,1,f,blue,5f7672195173b4112df5ae1f,2021-09-27_15h10.33.225,forced_choiceRT_color,2021.2.3,Win32,59.98440405,,,,,,,,,,,,,,,,,,,,,,,
0,f,1,0.5005,10,2,42,1,1,f,blue,5f7672195173b4112df5ae1f,2021-09-27_15h10.33.225,forced_choiceRT_color,2021.2.3,Win32,59.98440405,,,,,,,,,,,,,,,,,,,,,,,
0,j,1,0.6623,10,3,43,2,1,j,red,5f7672195173b4112df5ae1f,2021-09-27_15h10.33.225,forced_choiceRT_color,2021.2.3,Win32,59.98440405,,,,,,,,,,,,,,,,,,,,,,,
0,d,1,0.5184,11,0,44,0,1,d,orange,5f7672195173b4112df5ae1f,2021-09-27_15h10.33.225,forced_choiceRT_color,2021.2.3,Win32,59.98440405,,,,,,,,,,,,,,,,,,,,,,,
0,d,1,0.3773,11,1,45,0,1,d,orange,5f7672195173b4112df5ae1f,2021-09-27_15h10.33.225,forced_choiceRT_color,2021.2.3,Win32,59.98440405,,,,,,,,,,,,,,,,,,,,,,,
0,f,1,0.6945,11,2,46,1,1,f,blue,5f7672195173b4112df5ae1f,2021-09-27_15h10.33.225,forced_choiceRT_color,2021.2.3,Win32,59.98440405,,,,,,,,,,,,,,,,,,,,,,,
0,f,1,0.3834,11,3,47,1,1,f,blue,5f7672195173b4112df5ae1f,2021-09-27_15h10.33.225,forced_choiceRT_color,2021.2.3,Win32,59.98440405,,,,,,,,,,,,,,,,,,,,,,,
0,k,1,0.4583,12,0,48,3,1,k,purple,5f7672195173b4112df5ae1f,2021-09-27_15h10.33.225,forced_choiceRT_color,2021.2.3,Win32,59.98440405,,,,,,,,,,,,,,,,,,,,,,,
0,j,1,0.5668,12,1,49,2,1,j,red,5f7672195173b4112df5ae1f,2021-09-27_15h10.33.225,forced_choiceRT_color,2021.2.3,Win32,59.98440405,,,,,,,,,,,,,,,,,,,,,,,
0,k,1,0.5009,12,2,50,3,1,k,purple,5f7672195173b4112df5ae1f,2021-09-27_15h10.33.225,forced_choiceRT_color,2021.2.3,Win32,59.98440405,,,,,,,,,,,,,,,,,,,,,,,
0,d,1,0.484,12,3,51,0,1,d,orange,5f7672195173b4112df5ae1f,2021-09-27_15h10.33.225,forced_choiceRT_color,2021.2.3,Win32,59.98440405,,,,,,,,,,,,,,,,,,,,,,,
0,j,1,0.6141,13,0,52,2,1,j,red,5f7672195173b4112df5ae1f,2021-09-27_15h10.33.225,forced_choiceRT_color,2021.2.3,Win32,59.98440405,,,,,,,,,,,,,,,,,,,,,,,
0,j,1,0.4841,13,1,53,2,1,j,red,5f7672195173b4112df5ae1f,2021-09-27_15h10.33.225,forced_choiceRT_color,2021.2.3,Win32,59.98440405,,,,,,,,,,,,,,,,,,,,,,,
0,k,1,0.5141,13,2,54,3,1,k,purple,5f7672195173b4112df5ae1f,2021-09-27_15h10.33.225,forced_choiceRT_color,2021.2.3,Win32,59.98440405,,,,,,,,,,,,,,,,,,,,,,,
0,f,1,0.5172,13,3,55,1,1,f,blue,5f7672195173b4112df5ae1f,2021-09-27_15h10.33.225,forced_choiceRT_color,2021.2.3,Win32,59.98440405,,,,,,,,,,,,,,,,,,,,,,,
0,j,1,0.6369,14,0,56,2,1,j,red,5f7672195173b4112df5ae1f,2021-09-27_15h10.33.225,forced_choiceRT_color,2021.2.3,Win32,59.98440405,,,,,,,,,,,,,,,,,,,,,,,
0,j,1,0.4977,14,1,57,2,1,j,red,5f7672195173b4112df5ae1f,2021-09-27_15h10.33.225,forced_choiceRT_color,2021.2.3,Win32,59.98440405,,,,,,,,,,,,,,,,,,,,,,,
0,f,1,0.5404,14,2,58,1,1,f,blue,5f7672195173b4112df5ae1f,2021-09-27_15h10.33.225,forced_choiceRT_color,2021.2.3,Win32,59.98440405,,,,,,,,,,,,,,,,,,,,,,,
0,d,1,0.4792,14,3,59,0,1,d,orange,5f7672195173b4112df5ae1f,2021-09-27_15h10.33.225,forced_choiceRT_color,2021.2.3,Win32,59.98440405,,,,,,,,,,,,,,,,,,,,,,,
,,,,,,,,,,,5f7672195173b4112df5ae1f,2021-09-27_15h10.33.225,forced_choiceRT_color,2021.2.3,Win32,59.98440405,d,2.2819,0,0,0,0,1,,,,,,,,,,,,,,,,
,,,,,,,,,,,5f7672195173b4112df5ae1f,2021-09-27_15h10.33.225,forced_choiceRT_color,2021.2.3,Win32,59.98440405,d,2.1339,1,0,1,0,1,,,,,,,,,,,,,,,,
,,,,,,,,,,,5f7672195173b4112df5ae1f,2021-09-27_15h10.33.225,forced_choiceRT_color,2021.2.3,Win32,59.98440405,j,2.1012,2,0,2,0,1,,,,,,,,,,,,,,,,
,,,,,,,,,,,5f7672195173b4112df5ae1f,2021-09-27_15h10.33.225,forced_choiceRT_color,2021.2.3,Win32,59.98440405,j,2.1007,3,0,3,0,1,,,,,,,,,,,,,,,,
,,,,,,,,,,,5f7672195173b4112df5ae1f,2021-09-27_15h10.33.225,forced_choiceRT_color,2021.2.3,Win32,59.98440405,k,2.0361,4,0,4,0,1,,,,,,,,,,,,,,,,
,,,,,,,,,,,5f7672195173b4112df5ae1f,2021-09-27_15h10.33.225,forced_choiceRT_color,2021.2.3,Win32,59.98440405,k,2.0256,5,0,5,0,1,,,,,,,,,,,,,,,,
,,,,,,,,,,,5f7672195173b4112df5ae1f,2021-09-27_15h10.33.225,forced_choiceRT_color,2021.2.3,Win32,59.98440405,j,2.0427,6,0,6,0,1,,,,,,,,,,,,,,,,
,,,,,,,,,,,5f7672195173b4112df5ae1f,2021-09-27_15h10.33.225,forced_choiceRT_color,2021.2.3,Win32,59.98440405,j,2.0644,7,0,7,0,1,,,,,,,,,,,,,,,,
,,,,,,,,,,,5f7672195173b4112df5ae1f,2021-09-27_15h10.33.225,forced_choiceRT_color,2021.2.3,Win32,59.98440405,f,2.0604,8,0,8,0,1,,,,,,,,,,,,,,,,
,,,,,,,,,,,5f7672195173b4112df5ae1f,2021-09-27_15h10.33.225,forced_choiceRT_color,2021.2.3,Win32,59.98440405,f,2.0908,9,0,9,0,1,,,,,,,,,,,,,,,,
,,,,,,,,,,,5f7672195173b4112df5ae1f,2021-09-27_15h10.33.225,forced_choiceRT_color,2021.2.3,Win32,59.98440405,f,2.0414,10,0,10,0,1,,,,,,,,,,,,,,,,
,,,,,,,,,,,5f7672195173b4112df5ae1f,2021-09-27_15h10.33.225,forced_choiceRT_color,2021.2.3,Win32,59.98440405,d,2.0529,11,0,11,0,1,,,,,,,,,,,,,,,,
,,,,,,,,,,,5f7672195173b4112df5ae1f,2021-09-27_15h10.33.225,forced_choiceRT_color,2021.2.3,Win32,59.98440405,d,2.036,12,0,12,0,1,,,,,,,,,,,,,,,,
,,,,,,,,,,,5f7672195173b4112df5ae1f,2021-09-27_15h10.33.225,forced_choiceRT_color,2021.2.3,Win32,59.98440405,d,2.1008,13,0,13,0,1,,,,,,,,,,,,,,,,
,,,,,,,,,,,5f7672195173b4112df5ae1f,2021-09-27_15h10.33.225,forced_choiceRT_color,2021.2.3,Win32,59.98440405,d,2.0694,14,0,14,0,1,,,,,,,,,,,,,,,,
,,,,,,,,,,,5f7672195173b4112df5ae1f,2021-09-27_15h10.33.225,forced_choiceRT_color,2021.2.3,Win32,59.98440405,d,2.0513,15,0,15,0,1,,,,,,,,,,,,,,,,
,,,,,,,,,,,5f7672195173b4112df5ae1f,2021-09-27_15h10.33.225,forced_choiceRT_color,2021.2.3,Win32,59.98440405,k,2.1242,16,0,16,0,1,,,,,,,,,,,,,,,,
,,,,,,,,,,,5f7672195173b4112df5ae1f,2021-09-27_15h10.33.225,forced_choiceRT_color,2021.2.3,Win32,59.98440405,k,2.1719,17,0,17,0,1,,,,,,,,,,,,,,,,
,,,,,,,,,,,5f7672195173b4112df5ae1f,2021-09-27_15h10.33.225,forced_choiceRT_color,2021.2.3,Win32,59.98440405,k,1.9907,18,0,18,0,1,,,,,,,,,,,,,,,,
,,,,,,,,,,,5f7672195173b4112df5ae1f,2021-09-27_15h10.33.225,forced_choiceRT_color,2021.2.3,Win32,59.98440405,k,2.0713,19,0,19,0,1,,,,,,,,,,,,,,,,
1.43,,,,,,,,,f,blue,5f7672195173b4112df5ae1f,2021-09-27_15h10.33.225,forced_choiceRT_color,2021.2.3,Win32,59.98440405,,,,,,,,1,Ontime,short,j,0,1.9615,0,0,0,1,1,,,,,
1.72,,,,,,,,,d,orange,5f7672195173b4112df5ae1f,2021-09-27_15h10.33.225,forced_choiceRT_color,2021.2.3,Win32,59.98440405,,,,,,,,1,Slow,short,d,1,2.2623,0,1,1,0,1,,,,,
1.76,,,,,,,,,j,red,5f7672195173b4112df5ae1f,2021-09-27_15h10.33.225,forced_choiceRT_color,2021.2.3,Win32,59.98440405,,,,,,,,1,Slow,short,j,1,2.1675,0,2,2,2,1,,,,,
1.54,,,,,,,,,f,blue,5f7672195173b4112df5ae1f,2021-09-27_15h10.33.225,forced_choiceRT_color,2021.2.3,Win32,59.98440405,,,,,,,,1,Ontime,short,f,1,2.0289,0,3,3,1,1,,,,,
1.66,,,,,,,,,d,orange,5f7672195173b4112df5ae1f,2021-09-27_15h10.33.225,forced_choiceRT_color,2021.2.3,Win32,59.98440405,,,,,,,,1,Slow,short,d,1,2.1193,1,0,4,0,1,,,,,
1.64,,,,,,,,,k,purple,5f7672195173b4112df5ae1f,2021-09-27_15h10.33.225,forced_choiceRT_color,2021.2.3,Win32,59.98440405,,,,,,,,1,Ontime,short,k,1,2.0867,1,1,5,3,1,,,,,
0.36,,,,,,,,,k,purple,5f7672195173b4112df5ae1f,2021-09-27_15h10.33.225,forced_choiceRT_color,2021.2.3,Win32,59.98440405,,,,,,,,1,Fast,short,k,1,0.8404,1,2,6,3,1,,,,,
0.69,,,,,,,,,d,orange,5f7672195173b4112df5ae1f,2021-09-27_15h10.33.225,forced_choiceRT_color,2021.2.3,Win32,59.98440405,,,,,,,,1,Ontime,short,d,1,2.0879,1,3,7,0,1,,,,,
0.59,,,,,,,,,d,orange,5f7672195173b4112df5ae1f,2021-09-27_15h10.33.225,forced_choiceRT_color,2021.2.3,Win32,59.98440405,,,,,,,,1,Ontime,short,d,1,2.0837,2,0,8,0,1,,,,,
0.2,,,,,,,,,d,orange,5f7672195173b4112df5ae1f,2021-09-27_15h10.33.225,forced_choiceRT_color,2021.2.3,Win32,59.98440405,,,,,,,,1,Slow,short,d,1,2.1093,2,1,9,0,1,,,,,
1.92,,,,,,,,,k,purple,5f7672195173b4112df5ae1f,2021-09-27_15h10.33.225,forced_choiceRT_color,2021.2.3,Win32,59.98440405,,,,,,,,1,Slow,short,j,0,2.3112,2,2,10,3,1,,,,,
0.86,,,,,,,,,d,orange,5f7672195173b4112df5ae1f,2021-09-27_15h10.33.225,forced_choiceRT_color,2021.2.3,Win32,59.98440405,,,,,,,,1,Ontime,short,d,1,2.0393,2,3,11,0,1,,,,,
1.73,,,,,,,,,j,red,5f7672195173b4112df5ae1f,2021-09-27_15h10.33.225,forced_choiceRT_color,2021.2.3,Win32,59.98440405,,,,,,,,1,Slow,short,j,1,2.2304,3,0,12,2,1,,,,,
0.92,,,,,,,,,d,orange,5f7672195173b4112df5ae1f,2021-09-27_15h10.33.225,forced_choiceRT_color,2021.2.3,Win32,59.98440405,,,,,,,,1,Slow,short,d,1,2.141,3,1,13,0,1,,,,,
0.07,,,,,,,,,f,blue,5f7672195173b4112df5ae1f,2021-09-27_15h10.33.225,forced_choiceRT_color,2021.2.3,Win32,59.98440405,,,,,,,,1,Ontime,short,f,1,2.0246,3,2,14,1,1,,,,,
1.88,,,,,,,,,k,purple,5f7672195173b4112df5ae1f,2021-09-27_15h10.33.225,forced_choiceRT_color,2021.2.3,Win32,59.98440405,,,,,,,,1,Slow,short,k,1,2.1808,3,3,15,3,1,,,,,
1.93,,,,,,,,,f,blue,5f7672195173b4112df5ae1f,2021-09-27_15h10.33.225,forced_choiceRT_color,2021.2.3,Win32,59.98440405,,,,,,,,1,Slow,short,j,0,2.1507,4,0,16,1,1,,,,,
0.18,,,,,,,,,f,blue,5f7672195173b4112df5ae1f,2021-09-27_15h10.33.225,forced_choiceRT_color,2021.2.3,Win32,59.98440405,,,,,,,,1,Ontime,short,f,1,2.0173,4,1,17,1,1,,,,,
0.09,,,,,,,,,k,purple,5f7672195173b4112df5ae1f,2021-09-27_15h10.33.225,forced_choiceRT_color,2021.2.3,Win32,59.98440405,,,,,,,,1,Ontime,short,k,1,2.0174,4,2,18,3,1,,,,,
0.21,,,,,,,,,j,red,5f7672195173b4112df5ae1f,2021-09-27_15h10.33.225,forced_choiceRT_color,2021.2.3,Win32,59.98440405,,,,,,,,1,Ontime,short,j,1,2.0788,4,3,19,2,1,,,,,
0.91,,,,,,,,,j,red,5f7672195173b4112df5ae1f,2021-09-27_15h10.33.225,forced_choiceRT_color,2021.2.3,Win32,59.98440405,,,,,,,,1,Slow,short,j,1,2.1011,5,0,20,2,1,,,,,
0.05,,,,,,,,,d,orange,5f7672195173b4112df5ae1f,2021-09-27_15h10.33.225,forced_choiceRT_color,2021.2.3,Win32,59.98440405,,,,,,,,1,Ontime,short,d,1,2.0348,5,1,21,0,1,,,,,
0.03,,,,,,,,,d,orange,5f7672195173b4112df5ae1f,2021-09-27_15h10.33.225,forced_choiceRT_color,2021.2.3,Win32,59.98440405,,,,,,,,1,Ontime,short,d,1,1.9697,5,2,22,0,1,,,,,
1.94,,,,,,,,,j,red,5f7672195173b4112df5ae1f,2021-09-27_15h10.33.225,forced_choiceRT_color,2021.2.3,Win32,59.98440405,,,,,,,,1,Slow,short,k,0,2.271,5,3,23,2,1,,,,,
1.32,,,,,,,,,k,purple,5f7672195173b4112df5ae1f,2021-09-27_15h10.33.225,forced_choiceRT_color,2021.2.3,Win32,59.98440405,,,,,,,,1,Slow,short,k,1,2.1293,6,0,24,3,1,,,,,
0.18,,,,,,,,,f,blue,5f7672195173b4112df5ae1f,2021-09-27_15h10.33.225,forced_choiceRT_color,2021.2.3,Win32,59.98440405,,,,,,,,1,Ontime,short,f,1,1.9913,6,1,25,1,1,,,,,
0.96,,,,,,,,,f,blue,5f7672195173b4112df5ae1f,2021-09-27_15h10.33.225,forced_choiceRT_color,2021.2.3,Win32,59.98440405,,,,,,,,1,Ontime,short,f,1,1.993,6,2,26,1,1,,,,,
0.57,,,,,,,,,k,purple,5f7672195173b4112df5ae1f,2021-09-27_15h10.33.225,forced_choiceRT_color,2021.2.3,Win32,59.98440405,,,,,,,,1,Fast,short,k,1,1.8914,6,3,27,3,1,,,,,
0.35,,,,,,,,,j,red,5f7672195173b4112df5ae1f,2021-09-27_15h10.33.225,forced_choiceRT_color,2021.2.3,Win32,59.98440405,,,,,,,,1,Ontime,short,j,1,2.0865,7,0,28,2,1,,,,,
1.62,,,,,,,,,k,purple,5f7672195173b4112df5ae1f,2021-09-27_15h10.33.225,forced_choiceRT_color,2021.2.3,Win32,59.98440405,,,,,,,,1,Slow,short,k,1,2.2012,7,1,29,3,1,,,,,
0.74,,,,,,,,,j,red,5f7672195173b4112df5ae1f,2021-09-27_15h10.33.225,forced_choiceRT_color,2021.2.3,Win32,59.98440405,,,,,,,,1,Ontime,short,j,1,1.9338,7,2,30,2,1,,,,,
0.23,,,,,,,,,f,blue,5f7672195173b4112df5ae1f,2021-09-27_15h10.33.225,forced_choiceRT_color,2021.2.3,Win32,59.98440405,,,,,,,,1,Ontime,short,f,1,1.9336,7,3,31,1,1,,,,,
1.88,,,,,,,,,j,red,5f7672195173b4112df5ae1f,2021-09-27_15h10.33.225,forced_choiceRT_color,2021.2.3,Win32,59.98440405,,,,,,,,1,Ontime,short,d,0,2.067,8,0,32,2,1,,,,,
0.22,,,,,,,,,k,purple,5f7672195173b4112df5ae1f,2021-09-27_15h10.33.225,forced_choiceRT_color,2021.2.3,Win32,59.98440405,,,,,,,,1,Ontime,short,k,1,2.0673,8,1,33,3,1,,,,,
1.42,,,,,,,,,d,orange,5f7672195173b4112df5ae1f,2021-09-27_15h10.33.225,forced_choiceRT_color,2021.2.3,Win32,59.98440405,,,,,,,,1,Fast,short,d,1,1.8889,8,2,34,0,1,,,,,
0.19,,,,,,,,,f,blue,5f7672195173b4112df5ae1f,2021-09-27_15h10.33.225,forced_choiceRT_color,2021.2.3,Win32,59.98440405,,,,,,,,1,Ontime,short,f,1,1.9907,8,3,35,1,1,,,,,
1.46,,,,,,,,,f,blue,5f7672195173b4112df5ae1f,2021-09-27_15h10.33.225,forced_choiceRT_color,2021.2.3,Win32,59.98440405,,,,,,,,1,Ontime,short,f,1,2.0877,9,0,36,1,1,,,,,
0.05,,,,,,,,,j,red,5f7672195173b4112df5ae1f,2021-09-27_15h10.33.225,forced_choiceRT_color,2021.2.3,Win32,59.98440405,,,,,,,,1,Ontime,short,j,1,1.9084,9,1,37,2,1,,,,,
0.79,,,,,,,,,j,red,5f7672195173b4112df5ae1f,2021-09-27_15h10.33.225,forced_choiceRT_color,2021.2.3,Win32,59.98440405,,,,,,,,1,Ontime,short,j,1,2.0008,9,2,38,2,1,,,,,
1.79,,,,,,,,,k,purple,5f7672195173b4112df5ae1f,2021-09-27_15h10.33.225,forced_choiceRT_color,2021.2.3,Win32,59.98440405,,,,,,,,1,Ontime,short,j,0,1.9614,9,3,39,3,1,,,,,
,,,,,,,,,,,5f7672195173b4112df5ae1f,2021-09-27_15h10.33.225,forced_choiceRT_color,2021.2.3,Win32,59.98440405,,,,,,,,,,,,,,,,,,,0,0,0,0,1
1.6,,,,,,,,,d,orange,5f7672195173b4112df5ae1f,2021-09-27_15h10.33.225,forced_choiceRT_color,2021.2.3,Win32,59.98440405,,,,,,,,2,Slow,short,d,1,2.1004,0,0,0,0,1,,,,,
0.05,,,,,,,,,j,red,5f7672195173b4112df5ae1f,2021-09-27_15h10.33.225,forced_choiceRT_color,2021.2.3,Win32,59.98440405,,,,,,,,2,Ontime,short,j,1,2.0269,0,1,1,2,1,,,,,
0.28,,,,,,,,,f,blue,5f7672195173b4112df5ae1f,2021-09-27_15h10.33.225,forced_choiceRT_color,2021.2.3,Win32,59.98440405,,,,,,,,2,Ontime,short,f,1,2.005,0,2,2,1,1,,,,,
1,,,,,,,,,k,purple,5f7672195173b4112df5ae1f,2021-09-27_15h10.33.225,forced_choiceRT_color,2021.2.3,Win32,59.98440405,,,,,,,,2,Ontime,short,k,1,2.0157,0,3,3,3,1,,,,,
0.29,,,,,,,,,j,red,5f7672195173b4112df5ae1f,2021-09-27_15h10.33.225,forced_choiceRT_color,2021.2.3,Win32,59.98440405,,,,,,,,2,Ontime,short,j,1,2.0784,1,0,4,2,1,,,,,
0.52,,,,,,,,,f,blue,5f7672195173b4112df5ae1f,2021-09-27_15h10.33.225,forced_choiceRT_color,2021.2.3,Win32,59.98440405,,,,,,,,2,Slow,short,f,1,2.1362,1,1,5,1,1,,,,,
0.38,,,,,,,,,d,orange,5f7672195173b4112df5ae1f,2021-09-27_15h10.33.225,forced_choiceRT_color,2021.2.3,Win32,59.98440405,,,,,,,,2,Ontime,short,d,1,2.0954,1,2,6,0,1,,,,,
1.64,,,,,,,,,f,blue,5f7672195173b4112df5ae1f,2021-09-27_15h10.33.225,forced_choiceRT_color,2021.2.3,Win32,59.98440405,,,,,,,,2,Slow,short,f,1,2.1988,1,3,7,1,1,,,,,
0.3,,,,,,,,,k,purple,5f7672195173b4112df5ae1f,2021-09-27_15h10.33.225,forced_choiceRT_color,2021.2.3,Win32,59.98440405,,,,,,,,2,Ontime,short,k,1,2.0348,2,0,8,3,1,,,,,
1.45,,,,,,,,,f,blue,5f7672195173b4112df5ae1f,2021-09-27_15h10.33.225,forced_choiceRT_color,2021.2.3,Win32,59.98440405,,,,,,,,2,Ontime,short,f,1,2.0787,2,1,9,1,1,,,,,
1.63,,,,,,,,,j,red,5f7672195173b4112df5ae1f,2021-09-27_15h10.33.225,forced_choiceRT_color,2021.2.3,Win32,59.98440405,,,,,,,,2,Slow,short,j,1,2.1727,2,2,10,2,1,,,,,
0.9,,,,,,,,,j,red,5f7672195173b4112df5ae1f,2021-09-27_15h10.33.225,forced_choiceRT_color,2021.2.3,Win32,59.98440405,,,,,,,,2,Ontime,short,j,1,1.9752,2,3,11,2,1,,,,,
1.45,,,,,,,,,d,orange,5f7672195173b4112df5ae1f,2021-09-27_15h10.33.225,forced_choiceRT_color,2021.2.3,Win32,59.98440405,,,,,,,,2,Ontime,short,d,1,1.9371,3,0,12,0,1,,,,,
0.44,,,,,,,,,j,red,5f7672195173b4112df5ae1f,2021-09-27_15h10.33.225,forced_choiceRT_color,2021.2.3,Win32,59.98440405,,,,,,,,2,Ontime,short,j,1,2.0172,3,1,13,2,1,,,,,
0.45,,,,,,,,,k,purple,5f7672195173b4112df5ae1f,2021-09-27_15h10.33.225,forced_choiceRT_color,2021.2.3,Win32,59.98440405,,,,,,,,2,Ontime,short,k,1,2.0385,3,2,14,3,1,,,,,
1.91,,,,,,,,,j,red,5f7672195173b4112df5ae1f,2021-09-27_15h10.33.225,forced_choiceRT_color,2021.2.3,Win32,59.98440405,,,,,,,,2,Slow,short,d,0,2.2325,3,3,15,2,1,,,,,
1.73,,,,,,,,,j,red,5f7672195173b4112df5ae1f,2021-09-27_15h10.33.225,forced_choiceRT_color,2021.2.3,Win32,59.98440405,,,,,,,,2,Ontime,short,f,0,1.9554,4,0,16,2,1,,,,,
0.8,,,,,,,,,j,red,5f7672195173b4112df5ae1f,2021-09-27_15h10.33.225,forced_choiceRT_color,2021.2.3,Win32,59.98440405,,,,,,,,2,Fast,short,j,1,0.035,4,1,17,2,1,,,,,
1.44,,,,,,,,,d,orange,5f7672195173b4112df5ae1f,2021-09-27_15h10.33.225,forced_choiceRT_color,2021.2.3,Win32,59.98440405,,,,,,,,2,Ontime,short,d,1,1.9565,4,2,18,0,1,,,,,
1.16,,,,,,,,,d,orange,5f7672195173b4112df5ae1f,2021-09-27_15h10.33.225,forced_choiceRT_color,2021.2.3,Win32,59.98440405,,,,,,,,2,Ontime,short,d,1,1.9215,4,3,19,0,1,,,,,
0.63,,,,,,,,,j,red,5f7672195173b4112df5ae1f,2021-09-27_15h10.33.225,forced_choiceRT_color,2021.2.3,Win32,59.98440405,,,,,,,,2,Fast,short,j,1,1.879,5,0,20,2,1,,,,,
0.78,,,,,,,,,f,blue,5f7672195173b4112df5ae1f,2021-09-27_15h10.33.225,forced_choiceRT_color,2021.2.3,Win32,59.98440405,,,,,,,,2,Ontime,short,f,1,2.0846,5,1,21,1,1,,,,,
0.81,,,,,,,,,d,orange,5f7672195173b4112df5ae1f,2021-09-27_15h10.33.225,forced_choiceRT_color,2021.2.3,Win32,59.98440405,,,,,,,,2,Ontime,short,d,1,1.9923,5,2,22,0,1,,,,,
0.31,,,,,,,,,j,red,5f7672195173b4112df5ae1f,2021-09-27_15h10.33.225,forced_choiceRT_color,2021.2.3,Win32,59.98440405,,,,,,,,2,Ontime,short,j,1,2.0099,5,3,23,2,1,,,,,
1.75,,,,,,,,,k,purple,5f7672195173b4112df5ae1f,2021-09-27_15h10.33.225,forced_choiceRT_color,2021.2.3,Win32,59.98440405,,,,,,,,2,Slow,short,f,0,2.1365,6,0,24,3,1,,,,,
0.56,,,,,,,,,k,purple,5f7672195173b4112df5ae1f,2021-09-27_15h10.33.225,forced_choiceRT_color,2021.2.3,Win32,59.98440405,,,,,,,,2,Slow,short,k,1,2.1348,6,1,25,3,1,,,,,
0.23,,,,,,,,,k,purple,5f7672195173b4112df5ae1f,2021-09-27_15h10.33.225,forced_choiceRT_color,2021.2.3,Win32,59.98440405,,,,,,,,2,Ontime,short,k,1,1.9388,6,2,26,3,1,,,,,
1.55,,,,,,,,,k,purple,5f7672195173b4112df5ae1f,2021-09-27_15h10.33.225,forced_choiceRT_color,2021.2.3,Win32,59.98440405,,,,,,,,2,Slow,short,k,1,2.146,6,3,27,3,1,,,,,
1.9,,,,,,,,,f,blue,5f7672195173b4112df5ae1f,2021-09-27_15h10.33.225,forced_choiceRT_color,2021.2.3,Win32,59.98440405,,,,,,,,2,Slow,short,d,0,2.1787,7,0,28,1,1,,,,,
0.44,,,,,,,,,k,purple,5f7672195173b4112df5ae1f,2021-09-27_15h10.33.225,forced_choiceRT_color,2021.2.3,Win32,59.98440405,,,,,,,,2,Ontime,short,k,1,2.0185,7,1,29,3,1,,,,,
1.33,,,,,,,,,k,purple,5f7672195173b4112df5ae1f,2021-09-27_15h10.33.225,forced_choiceRT_color,2021.2.3,Win32,59.98440405,,,,,,,,2,Ontime,short,k,1,1.9039,7,2,30,3,1,,,,,
0.85,,,,,,,,,k,purple,5f7672195173b4112df5ae1f,2021-09-27_15h10.33.225,forced_choiceRT_color,2021.2.3,Win32,59.98440405,,,,,,,,2,Slow,short,k,1,2.109,7,3,31,3,1,,,,,
1.91,,,,,,,,,f,blue,5f7672195173b4112df5ae1f,2021-09-27_15h10.33.225,forced_choiceRT_color,2021.2.3,Win32,59.98440405,,,,,,,,2,Slow,short,k,0,2.2624,8,0,32,1,1,,,,,
1.74,,,,,,,,,d,orange,5f7672195173b4112df5ae1f,2021-09-27_15h10.33.225,forced_choiceRT_color,2021.2.3,Win32,59.98440405,,,,,,,,2,Slow,short,d,1,2.1524,8,1,33,0,1,,,,,
0.84,,,,,,,,,f,blue,5f7672195173b4112df5ae1f,2021-09-27_15h10.33.225,forced_choiceRT_color,2021.2.3,Win32,59.98440405,,,,,,,,2,Ontime,short,f,1,2.0386,8,2,34,1,1,,,,,
1.87,,,,,,,,,d,orange,5f7672195173b4112df5ae1f,2021-09-27_15h10.33.225,forced_choiceRT_color,2021.2.3,Win32,59.98440405,,,,,,,,2,Slow,short,j,0,2.1002,8,3,35,0,1,,,,,
1.13,,,,,,,,,f,blue,5f7672195173b4112df5ae1f,2021-09-27_15h10.33.225,forced_choiceRT_color,2021.2.3,Win32,59.98440405,,,,,,,,2,Fast,short,f,1,1.7843,9,0,36,1,1,,,,,
1.16,,,,,,,,,d,orange,5f7672195173b4112df5ae1f,2021-09-27_15h10.33.225,forced_choiceRT_color,2021.2.3,Win32,59.98440405,,,,,,,,2,Slow,short,d,1,2.1192,9,1,37,0,1,,,,,
0.34,,,,,,,,,d,orange,5f7672195173b4112df5ae1f,2021-09-27_15h10.33.225,forced_choiceRT_color,2021.2.3,Win32,59.98440405,,,,,,,,2,Ontime,short,d,1,2.0953,9,2,38,0,1,,,,,
1.44,,,,,,,,,f,blue,5f7672195173b4112df5ae1f,2021-09-27_15h10.33.225,forced_choiceRT_color,2021.2.3,Win32,59.98440405,,,,,,,,2,Ontime,short,j,0,2.0184,9,3,39,1,1,,,,,
,,,,,,,,,,,5f7672195173b4112df5ae1f,2021-09-27_15h10.33.225,forced_choiceRT_color,2021.2.3,Win32,59.98440405,,,,,,,,,,,,,,,,,,,1,0,1,0,1
1.13,,,,,,,,,f,blue,5f7672195173b4112df5ae1f,2021-09-27_15h10.33.225,forced_choiceRT_color,2021.2.3,Win32,59.98440405,,,,,,,,3,Ontime,short,d,0,1.9995,0,0,0,1,1,,,,,
0.1,,,,,,,,,f,blue,5f7672195173b4112df5ae1f,2021-09-27_15h10.33.225,forced_choiceRT_color,2021.2.3,Win32,59.98440405,,,,,,,,3,Fast,short,f,1,0.0013,0,1,1,1,1,,,,,
0.09,,,,,,,,,j,red,5f7672195173b4112df5ae1f,2021-09-27_15h10.33.225,forced_choiceRT_color,2021.2.3,Win32,59.98440405,,,,,,,,3,Ontime,short,j,1,1.9647,0,2,2,2,1,,,,,
1.24,,,,,,,,,f,blue,5f7672195173b4112df5ae1f,2021-09-27_15h10.33.225,forced_choiceRT_color,2021.2.3,Win32,59.98440405,,,,,,,,3,Slow,short,f,1,2.1376,0,3,3,1,1,,,,,
0.96,,,,,,,,,k,purple,5f7672195173b4112df5ae1f,2021-09-27_15h10.33.225,forced_choiceRT_color,2021.2.3,Win32,59.98440405,,,,,,,,3,Ontime,short,k,1,2.0035,1,0,4,3,1,,,,,
1.42,,,,,,,,,k,purple,5f7672195173b4112df5ae1f,2021-09-27_15h10.33.225,forced_choiceRT_color,2021.2.3,Win32,59.98440405,,,,,,,,3,Slow,short,k,1,2.1339,1,1,5,3,1,,,,,
1.69,,,,,,,,,f,blue,5f7672195173b4112df5ae1f,2021-09-27_15h10.33.225,forced_choiceRT_color,2021.2.3,Win32,59.98440405,,,,,,,,3,Slow,short,f,1,2.2172,1,2,6,1,1,,,,,
1.82,,,,,,,,,j,red,5f7672195173b4112df5ae1f,2021-09-27_15h10.33.225,forced_choiceRT_color,2021.2.3,Win32,59.98440405,,,,,,,,3,Slow,short,d,0,2.1678,1,3,7,2,1,,,,,
1.33,,,,,,,,,f,blue,5f7672195173b4112df5ae1f,2021-09-27_15h10.33.225,forced_choiceRT_color,2021.2.3,Win32,59.98440405,,,,,,,,3,Fast,short,f,1,1.851,2,0,8,1,1,,,,,
0.32,,,,,,,,,j,red,5f7672195173b4112df5ae1f,2021-09-27_15h10.33.225,forced_choiceRT_color,2021.2.3,Win32,59.98440405,,,,,,,,3,Ontime,short,j,1,1.9511,2,1,9,2,1,,,,,
1.11,,,,,,,,,j,red,5f7672195173b4112df5ae1f,2021-09-27_15h10.33.225,forced_choiceRT_color,2021.2.3,Win32,59.98440405,,,,,,,,3,Ontime,short,j,1,2.007,2,2,10,2,1,,,,,
0.26,,,,,,,,,d,orange,5f7672195173b4112df5ae1f,2021-09-27_15h10.33.225,forced_choiceRT_color,2021.2.3,Win32,59.98440405,,,,,,,,3,Ontime,short,d,1,1.9547,2,3,11,0,1,,,,,
1.58,,,,,,,,,j,red,5f7672195173b4112df5ae1f,2021-09-27_15h10.33.225,forced_choiceRT_color,2021.2.3,Win32,59.98440405,,,,,,,,3,Ontime,short,j,1,2.0093,3,0,12,2,1,,,,,
1.07,,,,,,,,,d,orange,5f7672195173b4112df5ae1f,2021-09-27_15h10.33.225,forced_choiceRT_color,2021.2.3,Win32,59.98440405,,,,,,,,3,Ontime,short,f,0,1.9977,3,1,13,0,1,,,,,
0.37,,,,,,,,,j,red,5f7672195173b4112df5ae1f,2021-09-27_15h10.33.225,forced_choiceRT_color,2021.2.3,Win32,59.98440405,,,,,,,,3,Fast,short,f,0,1.8788,3,2,14,2,1,,,,,
1.1,,,,,,,,,k,purple,5f7672195173b4112df5ae1f,2021-09-27_15h10.33.225,forced_choiceRT_color,2021.2.3,Win32,59.98440405,,,,,,,,3,Slow,short,k,1,2.1007,3,3,15,3,1,,,,,
0.89,,,,,,,,,d,orange,5f7672195173b4112df5ae1f,2021-09-27_15h10.33.225,forced_choiceRT_color,2021.2.3,Win32,59.98440405,,,,,,,,3,Ontime,short,d,1,2.0038,4,0,16,0,1,,,,,
1.51,,,,,,,,,j,red,5f7672195173b4112df5ae1f,2021-09-27_15h10.33.225,forced_choiceRT_color,2021.2.3,Win32,59.98440405,,,,,,,,3,Ontime,short,j,1,2.0904,4,1,17,2,1,,,,,
1.81,,,,,,,,,f,blue,5f7672195173b4112df5ae1f,2021-09-27_15h10.33.225,forced_choiceRT_color,2021.2.3,Win32,59.98440405,,,,,,,,3,Slow,short,k,0,2.2103,4,2,18,1,1,,,,,
1.19,,,,,,,,,d,orange,5f7672195173b4112df5ae1f,2021-09-27_15h10.33.225,forced_choiceRT_color,2021.2.3,Win32,59.98440405,,,,,,,,3,Fast,short,d,1,1.7215,4,3,19,0,1,,,,,
0.71,,,,,,,,,k,purple,5f7672195173b4112df5ae1f,2021-09-27_15h10.33.225,forced_choiceRT_color,2021.2.3,Win32,59.98440405,,,,,,,,3,Slow,short,k,1,2.1352,5,0,20,3,1,,,,,
0.11,,,,,,,,,f,blue,5f7672195173b4112df5ae1f,2021-09-27_15h10.33.225,forced_choiceRT_color,2021.2.3,Win32,59.98440405,,,,,,,,3,Fast,short,j,0,1.8842,5,1,21,1,1,,,,,
1.11,,,,,,,,,k,purple,5f7672195173b4112df5ae1f,2021-09-27_15h10.33.225,forced_choiceRT_color,2021.2.3,Win32,59.98440405,,,,,,,,3,Ontime,short,k,1,2.0114,5,2,22,3,1,,,,,
1.59,,,,,,,,,f,blue,5f7672195173b4112df5ae1f,2021-09-27_15h10.33.225,forced_choiceRT_color,2021.2.3,Win32,59.98440405,,,,,,,,3,Slow,short,f,1,2.3052,5,3,23,1,1,,,,,
0.92,,,,,,,,,f,blue,5f7672195173b4112df5ae1f,2021-09-27_15h10.33.225,forced_choiceRT_color,2021.2.3,Win32,59.98440405,,,,,,,,3,Ontime,short,f,1,2.0545,6,0,24,1,1,,,,,
1.55,,,,,,,,,k,purple,5f7672195173b4112df5ae1f,2021-09-27_15h10.33.225,forced_choiceRT_color,2021.2.3,Win32,59.98440405,,,,,,,,3,Slow,short,k,1,2.1337,6,1,25,3,1,,,,,
1.19,,,,,,,,,d,orange,5f7672195173b4112df5ae1f,2021-09-27_15h10.33.225,forced_choiceRT_color,2021.2.3,Win32,59.98440405,,,,,,,,3,Ontime,short,d,1,1.9927,6,2,26,0,1,,,,,
0.73,,,,,,,,,k,purple,5f7672195173b4112df5ae1f,2021-09-27_15h10.33.225,forced_choiceRT_color,2021.2.3,Win32,59.98440405,,,,,,,,3,Ontime,short,k,1,2.0773,6,3,27,3,1,,,,,
1.08,,,,,,,,,j,red,5f7672195173b4112df5ae1f,2021-09-27_15h10.33.225,forced_choiceRT_color,2021.2.3,Win32,59.98440405,,,,,,,,3,Fast,short,j,1,1.8839,7,0,28,2,1,,,,,
1.4,,,,,,,,,k,purple,5f7672195173b4112df5ae1f,2021-09-27_15h10.33.225,forced_choiceRT_color,2021.2.3,Win32,59.98440405,,,,,,,,3,Ontime,short,k,1,1.9862,7,1,29,3,1,,,,,
1.4,,,,,,,,,j,red,5f7672195173b4112df5ae1f,2021-09-27_15h10.33.225,forced_choiceRT_color,2021.2.3,Win32,59.98440405,,,,,,,,3,Ontime,short,j,1,2.0508,7,2,30,2,1,,,,,
0.24,,,,,,,,,d,orange,5f7672195173b4112df5ae1f,2021-09-27_15h10.33.225,forced_choiceRT_color,2021.2.3,Win32,59.98440405,,,,,,,,3,Ontime,short,d,1,1.9809,7,3,31,0,1,,,,,
0.74,,,,,,,,,d,orange,5f7672195173b4112df5ae1f,2021-09-27_15h10.33.225,forced_choiceRT_color,2021.2.3,Win32,59.98440405,,,,,,,,3,Ontime,short,d,1,2.0072,8,0,32,0,1,,,,,
1.14,,,,,,,,,d,orange,5f7672195173b4112df5ae1f,2021-09-27_15h10.33.225,forced_choiceRT_color,2021.2.3,Win32,59.98440405,,,,,,,,3,Ontime,short,d,1,2.0282,8,1,33,0,1,,,,,
1.25,,,,,,,,,f,blue,5f7672195173b4112df5ae1f,2021-09-27_15h10.33.225,forced_choiceRT_color,2021.2.3,Win32,59.98440405,,,,,,,,3,Ontime,short,f,1,1.9453,8,2,34,1,1,,,,,
1.15,,,,,,,,,k,purple,5f7672195173b4112df5ae1f,2021-09-27_15h10.33.225,forced_choiceRT_color,2021.2.3,Win32,59.98440405,,,,,,,,3,Fast,short,k,1,1.8288,8,3,35,3,1,,,,,
0.5,,,,,,,,,d,orange,5f7672195173b4112df5ae1f,2021-09-27_15h10.33.225,forced_choiceRT_color,2021.2.3,Win32,59.98440405,,,,,,,,3,Ontime,short,d,1,2.0511,9,0,36,0,1,,,,,
0.9,,,,,,,,,d,orange,5f7672195173b4112df5ae1f,2021-09-27_15h10.33.225,forced_choiceRT_color,2021.2.3,Win32,59.98440405,,,,,,,,3,Slow,short,d,1,2.1171,9,1,37,0,1,,,,,
1.62,,,,,,,,,j,red,5f7672195173b4112df5ae1f,2021-09-27_15h10.33.225,forced_choiceRT_color,2021.2.3,Win32,59.98440405,,,,,,,,3,Ontime,short,d,0,1.9547,9,2,38,2,1,,,,,
1.96,,,,,,,,,k,purple,5f7672195173b4112df5ae1f,2021-09-27_15h10.33.225,forced_choiceRT_color,2021.2.3,Win32,59.98440405,,,,,,,,3,Slow,short,k,1,2.1514,9,3,39,3,1,,,,,
,,,,,,,,,,,5f7672195173b4112df5ae1f,2021-09-27_15h10.33.225,forced_choiceRT_color,2021.2.3,Win32,59.98440405,,,,,,,,,,,,,,,,,,,2,0,2,0,1
0.27,,,,,,,,,d,orange,5f7672195173b4112df5ae1f,2021-09-27_15h10.33.225,forced_choiceRT_color,2021.2.3,Win32,59.98440405,,,,,,,,4,Slow,short,d,1,2.1199,0,0,0,0,1,,,,,
1.2,,,,,,,,,f,blue,5f7672195173b4112df5ae1f,2021-09-27_15h10.33.225,forced_choiceRT_color,2021.2.3,Win32,59.98440405,,,,,,,,4,Ontime,short,f,1,1.9471,0,1,1,1,1,,,,,
1.28,,,,,,,,,d,orange,5f7672195173b4112df5ae1f,2021-09-27_15h10.33.225,forced_choiceRT_color,2021.2.3,Win32,59.98440405,,,,,,,,4,Ontime,short,d,1,1.9508,0,2,2,0,1,,,,,
0.93,,,,,,,,,k,purple,5f7672195173b4112df5ae1f,2021-09-27_15h10.33.225,forced_choiceRT_color,2021.2.3,Win32,59.98440405,,,,,,,,4,Ontime,short,k,1,2.0116,0,3,3,3,1,,,,,
1.07,,,,,,,,,j,red,5f7672195173b4112df5ae1f,2021-09-27_15h10.33.225,forced_choiceRT_color,2021.2.3,Win32,59.98440405,,,,,,,,4,Ontime,short,j,1,1.9578,1,0,4,2,1,,,,,
1.73,,,,,,,,,k,purple,5f7672195173b4112df5ae1f,2021-09-27_15h10.33.225,forced_choiceRT_color,2021.2.3,Win32,59.98440405,,,,,,,,4,Slow,short,k,1,2.1004,1,1,5,3,1,,,,,
0.98,,,,,,,,,j,red,5f7672195173b4112df5ae1f,2021-09-27_15h10.33.225,forced_choiceRT_color,2021.2.3,Win32,59.98440405,,,,,,,,4,Ontime,short,j,1,1.9677,1,2,6,2,1,,,,,
1.3,,,,,,,,,j,red,5f7672195173b4112df5ae1f,2021-09-27_15h10.33.225,forced_choiceRT_color,2021.2.3,Win32,59.98440405,,,,,,,,4,Ontime,short,j,1,1.9595,1,3,7,2,1,,,,,
1.22,,,,,,,,,f,blue,5f7672195173b4112df5ae1f,2021-09-27_15h10.33.225,forced_choiceRT_color,2021.2.3,Win32,59.98440405,,,,,,,,4,Fast,short,f,1,1.8847,2,0,8,1,1,,,,,
0.78,,,,,,,,,d,orange,5f7672195173b4112df5ae1f,2021-09-27_15h10.33.225,forced_choiceRT_color,2021.2.3,Win32,59.98440405,,,,,,,,4,Ontime,short,d,1,2.0707,2,1,9,0,1,,,,,
0.5,,,,,,,,,k,purple,5f7672195173b4112df5ae1f,2021-09-27_15h10.33.225,forced_choiceRT_color,2021.2.3,Win32,59.98440405,,,,,,,,4,Fast,short,k,1,1.8951,2,2,10,3,1,,,,,
1.05,,,,,,,,,j,red,5f7672195173b4112df5ae1f,2021-09-27_15h10.33.225,forced_choiceRT_color,2021.2.3,Win32,59.98440405,,,,,,,,4,Ontime,short,j,1,2.029,2,3,11,2,1,,,,,
1.89,,,,,,,,,f,blue,5f7672195173b4112df5ae1f,2021-09-27_15h10.33.225,forced_choiceRT_color,2021.2.3,Win32,59.98440405,,,,,,,,4,Ontime,short,j,0,2.0339,3,0,12,1,1,,,,,
0.77,,,,,,,,,j,red,5f7672195173b4112df5ae1f,2021-09-27_15h10.33.225,forced_choiceRT_color,2021.2.3,Win32,59.98440405,,,,,,,,4,Ontime,short,j,1,1.987,3,1,13,2,1,,,,,
1.37,,,,,,,,,j,red,5f7672195173b4112df5ae1f,2021-09-27_15h10.33.225,forced_choiceRT_color,2021.2.3,Win32,59.98440405,,,,,,,,4,Fast,short,j,1,1.8045,3,2,14,2,1,,,,,
1.19,,,,,,,,,d,orange,5f7672195173b4112df5ae1f,2021-09-27_15h10.33.225,forced_choiceRT_color,2021.2.3,Win32,59.98440405,,,,,,,,4,Fast,short,d,1,1.8037,3,3,15,0,1,,,,,
0.17,,,,,,,,,f,blue,5f7672195173b4112df5ae1f,2021-09-27_15h10.33.225,forced_choiceRT_color,2021.2.3,Win32,59.98440405,,,,,,,,4,Ontime,short,f,1,1.9897,4,0,16,1,1,,,,,
1.45,,,,,,,,,k,purple,5f7672195173b4112df5ae1f,2021-09-27_15h10.33.225,forced_choiceRT_color,2021.2.3,Win32,59.98440405,,,,,,,,4,Ontime,short,k,1,2.0567,4,1,17,3,1,,,,,
0.66,,,,,,,,,j,red,5f7672195173b4112df5ae1f,2021-09-27_15h10.33.225,forced_choiceRT_color,2021.2.3,Win32,59.98440405,,,,,,,,4,Ontime,short,j,1,2.0516,4,2,18,2,1,,,,,
1.01,,,,,,,,,j,red,5f7672195173b4112df5ae1f,2021-09-27_15h10.33.225,forced_choiceRT_color,2021.2.3,Win32,59.98440405,,,,,,,,4,Slow,short,j,1,2.1395,4,3,19,2,1,,,,,
0.62,,,,,,,,,k,purple,5f7672195173b4112df5ae1f,2021-09-27_15h10.33.225,forced_choiceRT_color,2021.2.3,Win32,59.98440405,,,,,,,,4,Ontime,short,k,1,1.9846,5,0,20,3,1,,,,,
0.73,,,,,,,,,k,purple,5f7672195173b4112df5ae1f,2021-09-27_15h10.33.225,forced_choiceRT_color,2021.2.3,Win32,59.98440405,,,,,,,,4,Ontime,short,k,1,2.085,5,1,21,3,1,,,,,
0.46,,,,,,,,,d,orange,5f7672195173b4112df5ae1f,2021-09-27_15h10.33.225,forced_choiceRT_color,2021.2.3,Win32,59.98440405,,,,,,,,4,Slow,short,d,1,2.121,5,2,22,0,1,,,,,
0.31,,,,,,,,,j,red,5f7672195173b4112df5ae1f,2021-09-27_15h10.33.225,forced_choiceRT_color,2021.2.3,Win32,59.98440405,,,,,,,,4,Fast,short,j,1,1.8604,5,3,23,2,1,,,,,
1.31,,,,,,,,,d,orange,5f7672195173b4112df5ae1f,2021-09-27_15h10.33.225,forced_choiceRT_color,2021.2.3,Win32,59.98440405,,,,,,,,4,Fast,short,d,1,1.7676,6,0,24,0,1,,,,,
0.14,,,,,,,,,k,purple,5f7672195173b4112df5ae1f,2021-09-27_15h10.33.225,forced_choiceRT_color,2021.2.3,Win32,59.98440405,,,,,,,,4,Ontime,short,k,1,1.9618,6,1,25,3,1,,,,,
0.72,,,,,,,,,d,orange,5f7672195173b4112df5ae1f,2021-09-27_15h10.33.225,forced_choiceRT_color,2021.2.3,Win32,59.98440405,,,,,,,,4,Slow,short,d,1,2.1172,6,2,26,0,1,,,,,
0.01,,,,,,,,,k,purple,5f7672195173b4112df5ae1f,2021-09-27_15h10.33.225,forced_choiceRT_color,2021.2.3,Win32,59.98440405,,,,,,,,4,Fast,short,k,1,1.895,6,3,27,3,1,,,,,
0.07,,,,,,,,,k,purple,5f7672195173b4112df5ae1f,2021-09-27_15h10.33.225,forced_choiceRT_color,2021.2.3,Win32,59.98440405,,,,,,,,4,Ontime,short,k,1,2.0071,7,0,28,3,1,,,,,
1.26,,,,,,,,,f,blue,5f7672195173b4112df5ae1f,2021-09-27_15h10.33.225,forced_choiceRT_color,2021.2.3,Win32,59.98440405,,,,,,,,4,Slow,short,f,1,2.2437,7,1,29,1,1,,,,,
1.11,,,,,,,,,j,red,5f7672195173b4112df5ae1f,2021-09-27_15h10.33.225,forced_choiceRT_color,2021.2.3,Win32,59.98440405,,,,,,,,4,Ontime,short,j,1,2.0338,7,2,30,2,1,,,,,
1.12,,,,,,,,,f,blue,5f7672195173b4112df5ae1f,2021-09-27_15h10.33.225,forced_choiceRT_color,2021.2.3,Win32,59.98440405,,,,,,,,4,Ontime,short,f,1,2.0298,7,3,31,1,1,,,,,
0.21,,,,,,,,,f,blue,5f7672195173b4112df5ae1f,2021-09-27_15h10.33.225,forced_choiceRT_color,2021.2.3,Win32,59.98440405,,,,,,,,4,Fast,short,f,1,1.8844,8,0,32,1,1,,,,,
1.13,,,,,,,,,f,blue,5f7672195173b4112df5ae1f,2021-09-27_15h10.33.225,forced_choiceRT_color,2021.2.3,Win32,59.98440405,,,,,,,,4,Ontime,short,f,1,2.0698,8,1,33,1,1,,,,,
1.1,,,,,,,,,f,blue,5f7672195173b4112df5ae1f,2021-09-27_15h10.33.225,forced_choiceRT_color,2021.2.3,Win32,59.98440405,,,,,,,,4,Slow,short,f,1,2.1169,8,2,34,1,1,,,,,
0.73,,,,,,,,,d,orange,5f7672195173b4112df5ae1f,2021-09-27_15h10.33.225,forced_choiceRT_color,2021.2.3,Win32,59.98440405,,,,,,,,4,Ontime,short,d,1,1.9946,8,3,35,0,1,,,,,
0.73,,,,,,,,,k,purple,5f7672195173b4112df5ae1f,2021-09-27_15h10.33.225,forced_choiceRT_color,2021.2.3,Win32,59.98440405,,,,,,,,4,Ontime,short,k,1,2.034,9,0,36,3,1,,,,,
0.58,,,,,,,,,d,orange,5f7672195173b4112df5ae1f,2021-09-27_15h10.33.225,forced_choiceRT_color,2021.2.3,Win32,59.98440405,,,,,,,,4,Fast,short,d,1,1.7674,9,1,37,0,1,,,,,
0.73,,,,,,,,,d,orange,5f7672195173b4112df5ae1f,2021-09-27_15h10.33.225,forced_choiceRT_color,2021.2.3,Win32,59.98440405,,,,,,,,4,Ontime,short,d,1,2.0008,9,2,38,0,1,,,,,
1.56,,,,,,,,,f,blue,5f7672195173b4112df5ae1f,2021-09-27_15h10.33.225,forced_choiceRT_color,2021.2.3,Win32,59.98440405,,,,,,,,4,Ontime,short,f,1,2.0838,9,3,39,1,1,,,,,
,,,,,,,,,,,5f7672195173b4112df5ae1f,2021-09-27_15h10.33.225,forced_choiceRT_color,2021.2.3,Win32,59.98440405,,,,,,,,,,,,,,,,,,,3,0,3,0,1
1.9,,,,,,,,,j,red,5f7672195173b4112df5ae1f,2021-09-27_15h10.33.225,forced_choiceRT_color,2021.2.3,Win32,59.98440405,,,,,,,,5,Slow,short,j,1,2.2135,0,0,0,2,1,,,,,
1.1,,,,,,,,,j,red,5f7672195173b4112df5ae1f,2021-09-27_15h10.33.225,forced_choiceRT_color,2021.2.3,Win32,59.98440405,,,,,,,,5,Fast,short,j,1,1.7844,0,1,1,2,1,,,,,
1.33,,,,,,,,,f,blue,5f7672195173b4112df5ae1f,2021-09-27_15h10.33.225,forced_choiceRT_color,2021.2.3,Win32,59.98440405,,,,,,,,5,Fast,short,k,0,1.6749,0,2,2,1,1,,,,,
1.17,,,,,,,,,f,blue,5f7672195173b4112df5ae1f,2021-09-27_15h10.33.225,forced_choiceRT_color,2021.2.3,Win32,59.98440405,,,,,,,,5,Fast,short,f,1,1.4756,0,3,3,1,1,,,,,
1.89,,,,,,,,,d,orange,5f7672195173b4112df5ae1f,2021-09-27_15h10.33.225,forced_choiceRT_color,2021.2.3,Win32,59.98440405,,,,,,,,5,Ontime,short,d,1,2.0854,1,0,4,0,1,,,,,
1.86,,,,,,,,,d,orange,5f7672195173b4112df5ae1f,2021-09-27_15h10.33.225,forced_choiceRT_color,2021.2.3,Win32,59.98440405,,,,,,,,5,Slow,short,d,1,2.1704,1,1,5,0,1,,,,,
1.8,,,,,,,,,j,red,5f7672195173b4112df5ae1f,2021-09-27_15h10.33.225,forced_choiceRT_color,2021.2.3,Win32,59.98440405,,,,,,,,5,Slow,short,j,1,2.1508,1,2,6,2,1,,,,,
1.31,,,,,,,,,f,blue,5f7672195173b4112df5ae1f,2021-09-27_15h10.33.225,forced_choiceRT_color,2021.2.3,Win32,59.98440405,,,,,,,,5,Fast,short,d,0,1.8544,1,3,7,1,1,,,,,
0.66,,,,,,,,,d,orange,5f7672195173b4112df5ae1f,2021-09-27_15h10.33.225,forced_choiceRT_color,2021.2.3,Win32,59.98440405,,,,,,,,5,Ontime,short,d,1,1.9417,2,0,8,0,1,,,,,
1.71,,,,,,,,,k,purple,5f7672195173b4112df5ae1f,2021-09-27_15h10.33.225,forced_choiceRT_color,2021.2.3,Win32,59.98440405,,,,,,,,5,Slow,short,j,0,2.2102,2,1,9,3,1,,,,,
0.04,,,,,,,,,k,purple,5f7672195173b4112df5ae1f,2021-09-27_15h10.33.225,forced_choiceRT_color,2021.2.3,Win32,59.98440405,,,,,,,,5,Ontime,short,k,1,2.0569,2,2,10,3,1,,,,,
1.06,,,,,,,,,k,purple,5f7672195173b4112df5ae1f,2021-09-27_15h10.33.225,forced_choiceRT_color,2021.2.3,Win32,59.98440405,,,,,,,,5,Ontime,short,k,1,2.0915,2,3,11,3,1,,,,,
1.55,,,,,,,,,j,red,5f7672195173b4112df5ae1f,2021-09-27_15h10.33.225,forced_choiceRT_color,2021.2.3,Win32,59.98440405,,,,,,,,5,Ontime,short,f,0,1.9934,3,0,12,2,1,,,,,
0.19,,,,,,,,,d,orange,5f7672195173b4112df5ae1f,2021-09-27_15h10.33.225,forced_choiceRT_color,2021.2.3,Win32,59.98440405,,,,,,,,5,Fast,short,j,0,0.1009,3,1,13,0,1,,,,,
0.44,,,,,,,,,f,blue,5f7672195173b4112df5ae1f,2021-09-27_15h10.33.225,forced_choiceRT_color,2021.2.3,Win32,59.98440405,,,,,,,,5,Fast,short,f,1,1.8522,3,2,14,1,1,,,,,
1.59,,,,,,,,,k,purple,5f7672195173b4112df5ae1f,2021-09-27_15h10.33.225,forced_choiceRT_color,2021.2.3,Win32,59.98440405,,,,,,,,5,Ontime,short,j,0,2.0506,3,3,15,3,1,,,,,
1.23,,,,,,,,,j,red,5f7672195173b4112df5ae1f,2021-09-27_15h10.33.225,forced_choiceRT_color,2021.2.3,Win32,59.98440405,,,,,,,,5,Ontime,short,j,1,2.0169,4,0,16,2,1,,,,,
1.85,,,,,,,,,k,purple,5f7672195173b4112df5ae1f,2021-09-27_15h10.33.225,forced_choiceRT_color,2021.2.3,Win32,59.98440405,,,,,,,,5,Ontime,short,k,1,2.0586,4,1,17,3,1,,,,,
1.54,,,,,,,,,k,purple,5f7672195173b4112df5ae1f,2021-09-27_15h10.33.225,forced_choiceRT_color,2021.2.3,Win32,59.98440405,,,,,,,,5,Ontime,short,k,1,1.9181,4,2,18,3,1,,,,,
1.4,,,,,,,,,f,blue,5f7672195173b4112df5ae1f,2021-09-27_15h10.33.225,forced_choiceRT_color,2021.2.3,Win32,59.98440405,,,,,,,,5,Fast,short,f,1,1.8826,4,3,19,1,1,,,,,
1.72,,,,,,,,,k,purple,5f7672195173b4112df5ae1f,2021-09-27_15h10.33.225,forced_choiceRT_color,2021.2.3,Win32,59.98440405,,,,,,,,5,Ontime,short,d,0,1.9611,5,0,20,3,1,,,,,
1.34,,,,,,,,,j,red,5f7672195173b4112df5ae1f,2021-09-27_15h10.33.225,forced_choiceRT_color,2021.2.3,Win32,59.98440405,,,,,,,,5,Ontime,short,j,1,1.9523,5,1,21,2,1,,,,,
0.77,,,,,,,,,f,blue,5f7672195173b4112df5ae1f,2021-09-27_15h10.33.225,forced_choiceRT_color,2021.2.3,Win32,59.98440405,,,,,,,,5,Fast,short,f,1,1.7041,5,2,22,1,1,,,,,
1.38,,,,,,,,,k,purple,5f7672195173b4112df5ae1f,2021-09-27_15h10.33.225,forced_choiceRT_color,2021.2.3,Win32,59.98440405,,,,,,,,5,Fast,short,k,1,1.7319,5,3,23,3,1,,,,,
0.04,,,,,,,,,f,blue,5f7672195173b4112df5ae1f,2021-09-27_15h10.33.225,forced_choiceRT_color,2021.2.3,Win32,59.98440405,,,,,,,,5,Fast,short,f,1,1.8276,6,0,24,1,1,,,,,
1.53,,,,,,,,,k,purple,5f7672195173b4112df5ae1f,2021-09-27_15h10.33.225,forced_choiceRT_color,2021.2.3,Win32,59.98440405,,,,,,,,5,Ontime,short,k,1,1.9367,6,1,25,3,1,,,,,
1.25,,,,,,,,,j,red,5f7672195173b4112df5ae1f,2021-09-27_15h10.33.225,forced_choiceRT_color,2021.2.3,Win32,59.98440405,,,,,,,,5,Ontime,short,j,1,1.9685,6,2,26,2,1,,,,,
1.05,,,,,,,,,d,orange,5f7672195173b4112df5ae1f,2021-09-27_15h10.33.225,forced_choiceRT_color,2021.2.3,Win32,59.98440405,,,,,,,,5,Ontime,short,d,1,1.987,6,3,27,0,1,,,,,
0.83,,,,,,,,,d,orange,5f7672195173b4112df5ae1f,2021-09-27_15h10.33.225,forced_choiceRT_color,2021.2.3,Win32,59.98440405,,,,,,,,5,Ontime,short,d,1,2.0674,7,0,28,0,1,,,,,
1.04,,,,,,,,,d,orange,5f7672195173b4112df5ae1f,2021-09-27_15h10.33.225,forced_choiceRT_color,2021.2.3,Win32,59.98440405,,,,,,,,5,Ontime,short,d,1,2.0171,7,1,29,0,1,,,,,
1.56,,,,,,,,,d,orange,5f7672195173b4112df5ae1f,2021-09-27_15h10.33.225,forced_choiceRT_color,2021.2.3,Win32,59.98440405,,,,,,,,5,Ontime,short,d,1,1.9765,7,2,30,0,1,,,,,
0.49,,,,,,,,,j,red,5f7672195173b4112df5ae1f,2021-09-27_15h10.33.225,forced_choiceRT_color,2021.2.3,Win32,59.98440405,,,,,,,,5,Ontime,short,j,1,2.034,7,3,31,2,1,,,,,
0.65,,,,,,,,,d,orange,5f7672195173b4112df5ae1f,2021-09-27_15h10.33.225,forced_choiceRT_color,2021.2.3,Win32,59.98440405,,,,,,,,5,Ontime,short,d,1,2.0752,8,0,32,0,1,,,,,
1.78,,,,,,,,,k,purple,5f7672195173b4112df5ae1f,2021-09-27_15h10.33.225,forced_choiceRT_color,2021.2.3,Win32,59.98440405,,,,,,,,5,Ontime,short,k,1,2.0419,8,1,33,3,1,,,,,
1.97,,,,,,,,,j,red,5f7672195173b4112df5ae1f,2021-09-27_15h10.33.225,forced_choiceRT_color,2021.2.3,Win32,59.98440405,,,,,,,,5,Ontime,short,k,0,2.041,8,2,34,2,1,,,,,
1.31,,,,,,,,,f,blue,5f7672195173b4112df5ae1f,2021-09-27_15h10.33.225,forced_choiceRT_color,2021.2.3,Win32,59.98440405,,,,,,,,5,Fast,short,f,1,1.6162,8,3,35,1,1,,,,,
1.48,,,,,,,,,d,orange,5f7672195173b4112df5ae1f,2021-09-27_15h10.33.225,forced_choiceRT_color,2021.2.3,Win32,59.98440405,,,,,,,,5,Ontime,short,j,0,1.916,9,0,36,0,1,,,,,
1.42,,,,,,,,,j,red,5f7672195173b4112df5ae1f,2021-09-27_15h10.33.225,forced_choiceRT_color,2021.2.3,Win32,59.98440405,,,,,,,,5,Fast,short,f,0,0.0013,9,1,37,2,1,,,,,
0.32,,,,,,,,,f,blue,5f7672195173b4112df5ae1f,2021-09-27_15h10.33.225,forced_choiceRT_color,2021.2.3,Win32,59.98440405,,,,,,,,5,Ontime,short,f,1,2.0163,9,2,38,1,1,,,,,
1.48,,,,,,,,,f,blue,5f7672195173b4112df5ae1f,2021-09-27_15h10.33.225,forced_choiceRT_color,2021.2.3,Win32,59.98440405,,,,,,,,5,Slow,short,f,1,2.1419,9,3,39,1,1,,,,,
,,,,,,,,,,,5f7672195173b4112df5ae1f,2021-09-27_15h10.33.225,forced_choiceRT_color,2021.2.3,Win32,59.98440405,,,,,,,,,,,,,,,,,,,4,0,4,0,1
0.74,,,,,,,,,f,blue,5f7672195173b4112df5ae1f,2021-09-27_15h10.33.225,forced_choiceRT_color,2021.2.3,Win32,59.98440405,,,,,,,,6,Ontime,short,f,1,2.0312,0,0,0,1,1,,,,,
1.12,,,,,,,,,j,red,5f7672195173b4112df5ae1f,2021-09-27_15h10.33.225,forced_choiceRT_color,2021.2.3,Win32,59.98440405,,,,,,,,6,Fast,short,j,1,1.8827,0,1,1,2,1,,,,,
1.37,,,,,,,,,j,red,5f7672195173b4112df5ae1f,2021-09-27_15h10.33.225,forced_choiceRT_color,2021.2.3,Win32,59.98440405,,,,,,,,6,Fast,short,j,1,1.8452,0,2,2,2,1,,,,,
0.79,,,,,,,,,j,red,5f7672195173b4112df5ae1f,2021-09-27_15h10.33.225,forced_choiceRT_color,2021.2.3,Win32,59.98440405,,,,,,,,6,Ontime,short,j,1,1.9773,0,3,3,2,1,,,,,
0.13,,,,,,,,,k,purple,5f7672195173b4112df5ae1f,2021-09-27_15h10.33.225,forced_choiceRT_color,2021.2.3,Win32,59.98440405,,,,,,,,6,Ontime,short,k,1,2.032,1,0,4,3,1,,,,,
0.77,,,,,,,,,d,orange,5f7672195173b4112df5ae1f,2021-09-27_15h10.33.225,forced_choiceRT_color,2021.2.3,Win32,59.98440405,,,,,,,,6,Ontime,short,d,1,2.0431,1,1,5,0,1,,,,,
0.96,,,,,,,,,j,red,5f7672195173b4112df5ae1f,2021-09-27_15h10.33.225,forced_choiceRT_color,2021.2.3,Win32,59.98440405,,,,,,,,6,Fast,short,j,1,1.877,1,2,6,2,1,,,,,
1.4,,,,,,,,,f,blue,5f7672195173b4112df5ae1f,2021-09-27_15h10.33.225,forced_choiceRT_color,2021.2.3,Win32,59.98440405,,,,,,,,6,Ontime,short,k,0,2.0229,1,3,7,1,1,,,,,
0.71,,,,,,,,,d,orange,5f7672195173b4112df5ae1f,2021-09-27_15h10.33.225,forced_choiceRT_color,2021.2.3,Win32,59.98440405,,,,,,,,6,Ontime,short,d,1,2.0315,2,0,8,0,1,,,,,
0.83,,,,,,,,,j,red,5f7672195173b4112df5ae1f,2021-09-27_15h10.33.225,forced_choiceRT_color,2021.2.3,Win32,59.98440405,,,,,,,,6,Ontime,short,j,1,2.0173,2,1,9,2,1,,,,,
1.24,,,,,,,,,j,red,5f7672195173b4112df5ae1f,2021-09-27_15h10.33.225,forced_choiceRT_color,2021.2.3,Win32,59.98440405,,,,,,,,6,Ontime,short,j,1,2.0403,2,2,10,2,1,,,,,
0.62,,,,,,,,,d,orange,5f7672195173b4112df5ae1f,2021-09-27_15h10.33.225,forced_choiceRT_color,2021.2.3,Win32,59.98440405,,,,,,,,6,Ontime,short,d,1,2.0026,2,3,11,0,1,,,,,
1.04,,,,,,,,,j,red,5f7672195173b4112df5ae1f,2021-09-27_15h10.33.225,forced_choiceRT_color,2021.2.3,Win32,59.98440405,,,,,,,,6,Slow,short,j,1,2.1857,3,0,12,2,1,,,,,
1.48,,,,,,,,,d,orange,5f7672195173b4112df5ae1f,2021-09-27_15h10.33.225,forced_choiceRT_color,2021.2.3,Win32,59.98440405,,,,,,,,6,Ontime,short,d,1,2.0088,3,1,13,0,1,,,,,
0.19,,,,,,,,,f,blue,5f7672195173b4112df5ae1f,2021-09-27_15h10.33.225,forced_choiceRT_color,2021.2.3,Win32,59.98440405,,,,,,,,6,Ontime,short,f,1,1.9928,3,2,14,1,1,,,,,
1.15,,,,,,,,,d,orange,5f7672195173b4112df5ae1f,2021-09-27_15h10.33.225,forced_choiceRT_color,2021.2.3,Win32,59.98440405,,,,,,,,6,Ontime,short,d,1,2.0131,3,3,15,0,1,,,,,
1.07,,,,,,,,,k,purple,5f7672195173b4112df5ae1f,2021-09-27_15h10.33.225,forced_choiceRT_color,2021.2.3,Win32,59.98440405,,,,,,,,6,Ontime,short,k,1,2.0559,4,0,16,3,1,,,,,
0.21,,,,,,,,,k,purple,5f7672195173b4112df5ae1f,2021-09-27_15h10.33.225,forced_choiceRT_color,2021.2.3,Win32,59.98440405,,,,,,,,6,Ontime,short,k,1,1.9218,4,1,17,3,1,,,,,
0.42,,,,,,,,,d,orange,5f7672195173b4112df5ae1f,2021-09-27_15h10.33.225,forced_choiceRT_color,2021.2.3,Win32,59.98440405,,,,,,,,6,Ontime,short,d,1,2.0161,4,2,18,0,1,,,,,
1.01,,,,,,,,,d,orange,5f7672195173b4112df5ae1f,2021-09-27_15h10.33.225,forced_choiceRT_color,2021.2.3,Win32,59.98440405,,,,,,,,6,Ontime,short,d,1,1.9743,4,3,19,0,1,,,,,
1.58,,,,,,,,,f,blue,5f7672195173b4112df5ae1f,2021-09-27_15h10.33.225,forced_choiceRT_color,2021.2.3,Win32,59.98440405,,,,,,,,6,Slow,short,f,1,2.1662,5,0,20,1,1,,,,,
0.11,,,,,,,,,f,blue,5f7672195173b4112df5ae1f,2021-09-27_15h10.33.225,forced_choiceRT_color,2021.2.3,Win32,59.98440405,,,,,,,,6,Ontime,short,f,1,1.9267,5,1,21,1,1,,,,,
1.25,,,,,,,,,f,blue,5f7672195173b4112df5ae1f,2021-09-27_15h10.33.225,forced_choiceRT_color,2021.2.3,Win32,59.98440405,,,,,,,,6,Fast,short,f,1,1.7564,5,2,22,1,1,,,,,
1.86,,,,,,,,,k,purple,5f7672195173b4112df5ae1f,2021-09-27_15h10.33.225,forced_choiceRT_color,2021.2.3,Win32,59.98440405,,,,,,,,6,Slow,short,j,0,2.1051,5,3,23,3,1,,,,,
0.49,,,,,,,,,k,purple,5f7672195173b4112df5ae1f,2021-09-27_15h10.33.225,forced_choiceRT_color,2021.2.3,Win32,59.98440405,,,,,,,,6,Ontime,short,k,1,1.9044,6,0,24,3,1,,,,,
1.98,,,,,,,,,f,blue,5f7672195173b4112df5ae1f,2021-09-27_15h10.33.225,forced_choiceRT_color,2021.2.3,Win32,59.98440405,,,,,,,,6,Slow,short,d,0,2.2098,6,1,25,1,1,,,,,
1.43,,,,,,,,,d,orange,5f7672195173b4112df5ae1f,2021-09-27_15h10.33.225,forced_choiceRT_color,2021.2.3,Win32,59.98440405,,,,,,,,6,Ontime,short,d,1,2.0057,6,2,26,0,1,,,,,
1.04,,,,,,,,,k,purple,5f7672195173b4112df5ae1f,2021-09-27_15h10.33.225,forced_choiceRT_color,2021.2.3,Win32,59.98440405,,,,,,,,6,Ontime,short,k,1,1.9673,6,3,27,3,1,,,,,
0.4,,,,,,,,,j,red,5f7672195173b4112df5ae1f,2021-09-27_15h10.33.225,forced_choiceRT_color,2021.2.3,Win32,59.98440405,,,,,,,,6,Ontime,short,j,1,2.0006,7,0,28,2,1,,,,,
0.8,,,,,,,,,d,orange,5f7672195173b4112df5ae1f,2021-09-27_15h10.33.225,forced_choiceRT_color,2021.2.3,Win32,59.98440405,,,,,,,,6,Fast,short,d,1,1.8369,7,1,29,0,1,,,,,
0.69,,,,,,,,,k,purple,5f7672195173b4112df5ae1f,2021-09-27_15h10.33.225,forced_choiceRT_color,2021.2.3,Win32,59.98440405,,,,,,,,6,Ontime,short,k,1,2.0445,7,2,30,3,1,,,,,
0.01,,,,,,,,,k,purple,5f7672195173b4112df5ae1f,2021-09-27_15h10.33.225,forced_choiceRT_color,2021.2.3,Win32,59.98440405,,,,,,,,6,Ontime,short,k,1,1.9759,7,3,31,3,1,,,,,
0.59,,,,,,,,,f,blue,5f7672195173b4112df5ae1f,2021-09-27_15h10.33.225,forced_choiceRT_color,2021.2.3,Win32,59.98440405,,,,,,,,6,Ontime,short,j,0,2.0996,8,0,32,1,1,,,,,
0.86,,,,,,,,,k,purple,5f7672195173b4112df5ae1f,2021-09-27_15h10.33.225,forced_choiceRT_color,2021.2.3,Win32,59.98440405,,,,,,,,6,Fast,short,f,0,0.0161,8,1,33,3,1,,,,,
0.59,,,,,,,,,d,orange,5f7672195173b4112df5ae1f,2021-09-27_15h10.33.225,forced_choiceRT_color,2021.2.3,Win32,59.98440405,,,,,,,,6,Ontime,short,d,1,2.0608,8,2,34,0,1,,,,,
1.97,,,,,,,,,f,blue,5f7672195173b4112df5ae1f,2021-09-27_15h10.33.225,forced_choiceRT_color,2021.2.3,Win32,59.98440405,,,,,,,,6,Slow,short,d,0,2.2349,8,3,35,1,1,,,,,
1.35,,,,,,,,,j,red,5f7672195173b4112df5ae1f,2021-09-27_15h10.33.225,forced_choiceRT_color,2021.2.3,Win32,59.98440405,,,,,,,,6,Ontime,short,j,1,1.9109,9,0,36,2,1,,,,,
0.68,,,,,,,,,f,blue,5f7672195173b4112df5ae1f,2021-09-27_15h10.33.225,forced_choiceRT_color,2021.2.3,Win32,59.98440405,,,,,,,,6,Ontime,short,f,1,1.9902,9,1,37,1,1,,,,,
0.7,,,,,,,,,k,purple,5f7672195173b4112df5ae1f,2021-09-27_15h10.33.225,forced_choiceRT_color,2021.2.3,Win32,59.98440405,,,,,,,,6,Ontime,short,k,1,2.0732,9,2,38,3,1,,,,,
1.54,,,,,,,,,j,red,5f7672195173b4112df5ae1f,2021-09-27_15h10.33.225,forced_choiceRT_color,2021.2.3,Win32,59.98440405,,,,,,,,6,Ontime,short,j,1,2.0674,9,3,39,2,1,,,,,
,,,,,,,,,,,5f7672195173b4112df5ae1f,2021-09-27_15h10.33.225,forced_choiceRT_color,2021.2.3,Win32,59.98440405,,,,,,,,,,,,,,,,,,,5,0,5,0,1
0.27,,,,,,,,,j,red,5f7672195173b4112df5ae1f,2021-09-27_15h10.33.225,forced_choiceRT_color,2021.2.3,Win32,59.98440405,,,,,,,,7,Ontime,short,j,1,2.0183,0,0,0,2,1,,,,,
1.47,,,,,,,,,f,blue,5f7672195173b4112df5ae1f,2021-09-27_15h10.33.225,forced_choiceRT_color,2021.2.3,Win32,59.98440405,,,,,,,,7,Ontime,short,d,0,1.939,0,1,1,1,1,,,,,
1.23,,,,,,,,,k,purple,5f7672195173b4112df5ae1f,2021-09-27_15h10.33.225,forced_choiceRT_color,2021.2.3,Win32,59.98440405,,,,,,,,7,Fast,short,k,1,1.6748,0,2,2,3,1,,,,,
0.71,,,,,,,,,d,orange,5f7672195173b4112df5ae1f,2021-09-27_15h10.33.225,forced_choiceRT_color,2021.2.3,Win32,59.98440405,,,,,,,,7,Ontime,short,d,1,2.0153,0,3,3,0,1,,,,,
1.93,,,,,,,,,f,blue,5f7672195173b4112df5ae1f,2021-09-27_15h10.33.225,forced_choiceRT_color,2021.2.3,Win32,59.98440405,,,,,,,,7,Slow,short,f,1,3.0574,1,0,4,1,1,,,,,
1.31,,,,,,,,,d,orange,5f7672195173b4112df5ae1f,2021-09-27_15h10.33.225,forced_choiceRT_color,2021.2.3,Win32,59.98440405,,,,,,,,7,Ontime,short,d,1,2.0476,1,1,5,0,1,,,,,
0.25,,,,,,,,,f,blue,5f7672195173b4112df5ae1f,2021-09-27_15h10.33.225,forced_choiceRT_color,2021.2.3,Win32,59.98440405,,,,,,,,7,Ontime,short,f,1,1.9545,1,2,6,1,1,,,,,
0.4,,,,,,,,,j,red,5f7672195173b4112df5ae1f,2021-09-27_15h10.33.225,forced_choiceRT_color,2021.2.3,Win32,59.98440405,,,,,,,,7,Ontime,short,j,1,1.9123,1,3,7,2,1,,,,,
0.77,,,,,,,,,k,purple,5f7672195173b4112df5ae1f,2021-09-27_15h10.33.225,forced_choiceRT_color,2021.2.3,Win32,59.98440405,,,,,,,,7,Ontime,short,k,1,2.0446,2,0,8,3,1,,,,,
1.15,,,,,,,,,k,purple,5f7672195173b4112df5ae1f,2021-09-27_15h10.33.225,forced_choiceRT_color,2021.2.3,Win32,59.98440405,,,,,,,,7,Fast,short,k,1,1.8192,2,1,9,3,1,,,,,
1.22,,,,,,,,,d,orange,5f7672195173b4112df5ae1f,2021-09-27_15h10.33.225,forced_choiceRT_color,2021.2.3,Win32,59.98440405,,,,,,,,7,Fast,short,d,1,1.7544,2,2,10,0,1,,,,,
0.51,,,,,,,,,d,orange,5f7672195173b4112df5ae1f,2021-09-27_15h10.33.225,forced_choiceRT_color,2021.2.3,Win32,59.98440405,,,,,,,,7,Ontime,short,d,1,1.9628,2,3,11,0,1,,,,,
1.31,,,,,,,,,d,orange,5f7672195173b4112df5ae1f,2021-09-27_15h10.33.225,forced_choiceRT_color,2021.2.3,Win32,59.98440405,,,,,,,,7,Fast,short,d,1,1.8549,3,0,12,0,1,,,,,
1.31,,,,,,,,,j,red,5f7672195173b4112df5ae1f,2021-09-27_15h10.33.225,forced_choiceRT_color,2021.2.3,Win32,59.98440405,,,,,,,,7,Ontime,short,j,1,1.9822,3,1,13,2,1,,,,,
1.81,,,,,,,,,f,blue,5f7672195173b4112df5ae1f,2021-09-27_15h10.33.225,forced_choiceRT_color,2021.2.3,Win32,59.98440405,,,,,,,,7,Fast,short,f,1,0.0386,3,2,14,1,1,,,,,
1.09,,,,,,,,,f,blue,5f7672195173b4112df5ae1f,2021-09-27_15h10.33.225,forced_choiceRT_color,2021.2.3,Win32,59.98440405,,,,,,,,7,Fast,short,f,1,1.6832,3,3,15,1,1,,,,,
1.32,,,,,,,,,d,orange,5f7672195173b4112df5ae1f,2021-09-27_15h10.33.225,forced_choiceRT_color,2021.2.3,Win32,59.98440405,,,,,,,,7,Fast,short,d,1,1.8697,4,0,16,0,1,,,,,
0.3,,,,,,,,,j,red,5f7672195173b4112df5ae1f,2021-09-27_15h10.33.225,forced_choiceRT_color,2021.2.3,Win32,59.98440405,,,,,,,,7,Ontime,short,j,1,2.0245,4,1,17,2,1,,,,,
1.32,,,,,,,,,f,blue,5f7672195173b4112df5ae1f,2021-09-27_15h10.33.225,forced_choiceRT_color,2021.2.3,Win32,59.98440405,,,,,,,,7,Ontime,short,f,1,1.9262,4,2,18,1,1,,,,,
1.32,,,,,,,,,d,orange,5f7672195173b4112df5ae1f,2021-09-27_15h10.33.225,forced_choiceRT_color,2021.2.3,Win32,59.98440405,,,,,,,,7,Slow,short,d,1,2.1012,4,3,19,0,1,,,,,
0.16,,,,,,,,,k,purple,5f7672195173b4112df5ae1f,2021-09-27_15h10.33.225,forced_choiceRT_color,2021.2.3,Win32,59.98440405,,,,,,,,7,Ontime,short,k,1,1.9898,5,0,20,3,1,,,,,
1.6,,,,,,,,,k,purple,5f7672195173b4112df5ae1f,2021-09-27_15h10.33.225,forced_choiceRT_color,2021.2.3,Win32,59.98440405,,,,,,,,7,Slow,short,k,1,2.1336,5,1,21,3,1,,,,,
0.99,,,,,,,,,k,purple,5f7672195173b4112df5ae1f,2021-09-27_15h10.33.225,forced_choiceRT_color,2021.2.3,Win32,59.98440405,,,,,,,,7,Ontime,short,k,1,2.012,5,2,22,3,1,,,,,
0.69,,,,,,,,,f,blue,5f7672195173b4112df5ae1f,2021-09-27_15h10.33.225,forced_choiceRT_color,2021.2.3,Win32,59.98440405,,,,,,,,7,Slow,short,f,1,2.108,5,3,23,1,1,,,,,
0.15,,,,,,,,,j,red,5f7672195173b4112df5ae1f,2021-09-27_15h10.33.225,forced_choiceRT_color,2021.2.3,Win32,59.98440405,,,,,,,,7,Ontime,short,j,1,1.9244,6,0,24,2,1,,,,,
0.78,,,,,,,,,j,red,5f7672195173b4112df5ae1f,2021-09-27_15h10.33.225,forced_choiceRT_color,2021.2.3,Win32,59.98440405,,,,,,,,7,Ontime,short,j,1,2.0551,6,1,25,2,1,,,,,
1.95,,,,,,,,,k,purple,5f7672195173b4112df5ae1f,2021-09-27_15h10.33.225,forced_choiceRT_color,2021.2.3,Win32,59.98440405,,,,,,,,7,Slow,short,d,0,2.1748,6,2,26,3,1,,,,,
1.46,,,,,,,,,f,blue,5f7672195173b4112df5ae1f,2021-09-27_15h10.33.225,forced_choiceRT_color,2021.2.3,Win32,59.98440405,,,,,,,,7,Ontime,short,f,1,1.9891,6,3,27,1,1,,,,,
1.8,,,,,,,,,j,red,5f7672195173b4112df5ae1f,2021-09-27_15h10.33.225,forced_choiceRT_color,2021.2.3,Win32,59.98440405,,,,,,,,7,Slow,short,d,0,2.2031,7,0,28,2,1,,,,,
0.49,,,,,,,,,j,red,5f7672195173b4112df5ae1f,2021-09-27_15h10.33.225,forced_choiceRT_color,2021.2.3,Win32,59.98440405,,,,,,,,7,Fast,short,j,1,1.8586,7,1,29,2,1,,,,,
0.04,,,,,,,,,f,blue,5f7672195173b4112df5ae1f,2021-09-27_15h10.33.225,forced_choiceRT_color,2021.2.3,Win32,59.98440405,,,,,,,,7,Ontime,short,f,1,2.0003,7,2,30,1,1,,,,,
0.27,,,,,,,,,k,purple,5f7672195173b4112df5ae1f,2021-09-27_15h10.33.225,forced_choiceRT_color,2021.2.3,Win32,59.98440405,,,,,,,,7,Fast,short,d,0,0.0031,7,3,31,3,1,,,,,
0.33,,,,,,,,,j,red,5f7672195173b4112df5ae1f,2021-09-27_15h10.33.225,forced_choiceRT_color,2021.2.3,Win32,59.98440405,,,,,,,,7,Ontime,short,j,1,1.9005,8,0,32,2,1,,,,,
1.37,,,,,,,,,k,purple,5f7672195173b4112df5ae1f,2021-09-27_15h10.33.225,forced_choiceRT_color,2021.2.3,Win32,59.98440405,,,,,,,,7,Ontime,short,k,1,2.0285,8,1,33,3,1,,,,,
0.85,,,,,,,,,f,blue,5f7672195173b4112df5ae1f,2021-09-27_15h10.33.225,forced_choiceRT_color,2021.2.3,Win32,59.98440405,,,,,,,,7,Slow,short,f,1,2.1025,8,2,34,1,1,,,,,
0.5,,,,,,,,,d,orange,5f7672195173b4112df5ae1f,2021-09-27_15h10.33.225,forced_choiceRT_color,2021.2.3,Win32,59.98440405,,,,,,,,7,Ontime,short,d,1,2.0253,8,3,35,0,1,,,,,
1.95,,,,,,,,,k,purple,5f7672195173b4112df5ae1f,2021-09-27_15h10.33.225,forced_choiceRT_color,2021.2.3,Win32,59.98440405,,,,,,,,7,Slow,short,j,0,2.1851,9,0,36,3,1,,,,,
0.84,,,,,,,,,d,orange,5f7672195173b4112df5ae1f,2021-09-27_15h10.33.225,forced_choiceRT_color,2021.2.3,Win32,59.98440405,,,,,,,,7,Ontime,short,d,1,1.9986,9,1,37,0,1,,,,,
0.4,,,,,,,,,j,red,5f7672195173b4112df5ae1f,2021-09-27_15h10.33.225,forced_choiceRT_color,2021.2.3,Win32,59.98440405,,,,,,,,7,Ontime,short,j,1,1.9839,9,2,38,2,1,,,,,
0.64,,,,,,,,,d,orange,5f7672195173b4112df5ae1f,2021-09-27_15h10.33.225,forced_choiceRT_color,2021.2.3,Win32,59.98440405,,,,,,,,7,Ontime,short,d,1,1.9171,9,3,39,0,1,,,,,
,,,,,,,,,,,5f7672195173b4112df5ae1f,2021-09-27_15h10.33.225,forced_choiceRT_color,2021.2.3,Win32,59.98440405,,,,,,,,,,,,,,,,,,,6,0,6,0,1
1.58,,,,,,,,,j,red,5f7672195173b4112df5ae1f,2021-09-27_15h10.33.225,forced_choiceRT_color,2021.2.3,Win32,59.98440405,,,,,,,,8,Ontime,short,j,1,2.0714,0,0,0,2,1,,,,,
0.79,,,,,,,,,k,purple,5f7672195173b4112df5ae1f,2021-09-27_15h10.33.225,forced_choiceRT_color,2021.2.3,Win32,59.98440405,,,,,,,,8,Ontime,short,k,1,2.0176,0,1,1,3,1,,,,,
0.1,,,,,,,,,k,purple,5f7672195173b4112df5ae1f,2021-09-27_15h10.33.225,forced_choiceRT_color,2021.2.3,Win32,59.98440405,,,,,,,,8,Fast,short,k,1,1.8417,0,2,2,3,1,,,,,
1.28,,,,,,,,,f,blue,5f7672195173b4112df5ae1f,2021-09-27_15h10.33.225,forced_choiceRT_color,2021.2.3,Win32,59.98440405,,,,,,,,8,Fast,short,d,0,1.8012,0,3,3,1,1,,,,,
1.05,,,,,,,,,d,orange,5f7672195173b4112df5ae1f,2021-09-27_15h10.33.225,forced_choiceRT_color,2021.2.3,Win32,59.98440405,,,,,,,,8,Fast,short,d,1,1.5512,1,0,4,0,1,,,,,
0.4,,,,,,,,,f,blue,5f7672195173b4112df5ae1f,2021-09-27_15h10.33.225,forced_choiceRT_color,2021.2.3,Win32,59.98440405,,,,,,,,8,Ontime,short,f,1,2.0066,1,1,5,1,1,,,,,
0.65,,,,,,,,,j,red,5f7672195173b4112df5ae1f,2021-09-27_15h10.33.225,forced_choiceRT_color,2021.2.3,Win32,59.98440405,,,,,,,,8,Ontime,short,j,1,1.9719,1,2,6,2,1,,,,,
1.41,,,,,,,,,j,red,5f7672195173b4112df5ae1f,2021-09-27_15h10.33.225,forced_choiceRT_color,2021.2.3,Win32,59.98440405,,,,,,,,8,Ontime,short,j,1,1.957,1,3,7,2,1,,,,,
1.3,,,,,,,,,j,red,5f7672195173b4112df5ae1f,2021-09-27_15h10.33.225,forced_choiceRT_color,2021.2.3,Win32,59.98440405,,,,,,,,8,Slow,short,j,1,2.1007,2,0,8,2,1,,,,,
1.61,,,,,,,,,k,purple,5f7672195173b4112df5ae1f,2021-09-27_15h10.33.225,forced_choiceRT_color,2021.2.3,Win32,59.98440405,,,,,,,,8,Ontime,short,k,1,1.9044,2,1,9,3,1,,,,,
1.72,,,,,,,,,d,orange,5f7672195173b4112df5ae1f,2021-09-27_15h10.33.225,forced_choiceRT_color,2021.2.3,Win32,59.98440405,,,,,,,,8,Slow,short,f,0,2.1451,2,2,10,0,1,,,,,
0.09,,,,,,,,,d,orange,5f7672195173b4112df5ae1f,2021-09-27_15h10.33.225,forced_choiceRT_color,2021.2.3,Win32,59.98440405,,,,,,,,8,Ontime,short,d,1,2.0297,2,3,11,0,1,,,,,
1.53,,,,,,,,,j,red,5f7672195173b4112df5ae1f,2021-09-27_15h10.33.225,forced_choiceRT_color,2021.2.3,Win32,59.98440405,,,,,,,,8,Slow,short,f,0,2.295,3,0,12,2,1,,,,,
0.78,,,,,,,,,d,orange,5f7672195173b4112df5ae1f,2021-09-27_15h10.33.225,forced_choiceRT_color,2021.2.3,Win32,59.98440405,,,,,,,,8,Ontime,short,d,1,2.0339,3,1,13,0,1,,,,,
0.66,,,,,,,,,f,blue,5f7672195173b4112df5ae1f,2021-09-27_15h10.33.225,forced_choiceRT_color,2021.2.3,Win32,59.98440405,,,,,,,,8,Ontime,short,f,1,2.0511,3,2,14,1,1,,,,,
0.85,,,,,,,,,d,orange,5f7672195173b4112df5ae1f,2021-09-27_15h10.33.225,forced_choiceRT_color,2021.2.3,Win32,59.98440405,,,,,,,,8,Ontime,short,d,1,2.0406,3,3,15,0,1,,,,,
1.22,,,,,,,,,f,blue,5f7672195173b4112df5ae1f,2021-09-27_15h10.33.225,forced_choiceRT_color,2021.2.3,Win32,59.98440405,,,,,,,,8,Ontime,short,f,1,1.955,4,0,16,1,1,,,,,
0.53,,,,,,,,,k,purple,5f7672195173b4112df5ae1f,2021-09-27_15h10.33.225,forced_choiceRT_color,2021.2.3,Win32,59.98440405,,,,,,,,8,Ontime,short,k,1,1.9712,4,1,17,3,1,,,,,
0.03,,,,,,,,,j,red,5f7672195173b4112df5ae1f,2021-09-27_15h10.33.225,forced_choiceRT_color,2021.2.3,Win32,59.98440405,,,,,,,,8,Fast,short,j,1,1.8677,4,2,18,2,1,,,,,
0,,,,,,,,,j,red,5f7672195173b4112df5ae1f,2021-09-27_15h10.33.225,forced_choiceRT_color,2021.2.3,Win32,59.98440405,,,,,,,,8,Ontime,short,j,1,1.9961,4,3,19,2,1,,,,,
0.82,,,,,,,,,d,orange,5f7672195173b4112df5ae1f,2021-09-27_15h10.33.225,forced_choiceRT_color,2021.2.3,Win32,59.98440405,,,,,,,,8,Slow,short,d,1,2.1504,5,0,20,0,1,,,,,
1.11,,,,,,,,,k,purple,5f7672195173b4112df5ae1f,2021-09-27_15h10.33.225,forced_choiceRT_color,2021.2.3,Win32,59.98440405,,,,,,,,8,Ontime,short,k,1,2.0677,5,1,21,3,1,,,,,
0.95,,,,,,,,,d,orange,5f7672195173b4112df5ae1f,2021-09-27_15h10.33.225,forced_choiceRT_color,2021.2.3,Win32,59.98440405,,,,,,,,8,Fast,short,d,1,1.8877,5,2,22,0,1,,,,,
0.08,,,,,,,,,f,blue,5f7672195173b4112df5ae1f,2021-09-27_15h10.33.225,forced_choiceRT_color,2021.2.3,Win32,59.98440405,,,,,,,,8,Fast,short,f,1,1.3754,5,3,23,1,1,,,,,
0.35,,,,,,,,,f,blue,5f7672195173b4112df5ae1f,2021-09-27_15h10.33.225,forced_choiceRT_color,2021.2.3,Win32,59.98440405,,,,,,,,8,Ontime,short,f,1,1.9875,6,0,24,1,1,,,,,
0.73,,,,,,,,,d,orange,5f7672195173b4112df5ae1f,2021-09-27_15h10.33.225,forced_choiceRT_color,2021.2.3,Win32,59.98440405,,,,,,,,8,Ontime,short,d,1,1.9132,6,1,25,0,1,,,,,
0.4,,,,,,,,,f,blue,5f7672195173b4112df5ae1f,2021-09-27_15h10.33.225,forced_choiceRT_color,2021.2.3,Win32,59.98440405,,,,,,,,8,Ontime,short,f,1,1.9805,6,2,26,1,1,,,,,
0.05,,,,,,,,,j,red,5f7672195173b4112df5ae1f,2021-09-27_15h10.33.225,forced_choiceRT_color,2021.2.3,Win32,59.98440405,,,,,,,,8,Fast,short,j,1,1.7112,6,3,27,2,1,,,,,
0.76,,,,,,,,,k,purple,5f7672195173b4112df5ae1f,2021-09-27_15h10.33.225,forced_choiceRT_color,2021.2.3,Win32,59.98440405,,,,,,,,8,Ontime,short,k,1,1.9344,7,0,28,3,1,,,,,
0.35,,,,,,,,,f,blue,5f7672195173b4112df5ae1f,2021-09-27_15h10.33.225,forced_choiceRT_color,2021.2.3,Win32,59.98440405,,,,,,,,8,Fast,short,f,1,1.7206,7,1,29,1,1,,,,,
0.73,,,,,,,,,j,red,5f7672195173b4112df5ae1f,2021-09-27_15h10.33.225,forced_choiceRT_color,2021.2.3,Win32,59.98440405,,,,,,,,8,Fast,short,j,1,1.6845,7,2,30,2,1,,,,,
0.22,,,,,,,,,f,blue,5f7672195173b4112df5ae1f,2021-09-27_15h10.33.225,forced_choiceRT_color,2021.2.3,Win32,59.98440405,,,,,,,,8,Ontime,short,f,1,2.0748,7,3,31,1,1,,,,,
0.81,,,,,,,,,k,purple,5f7672195173b4112df5ae1f,2021-09-27_15h10.33.225,forced_choiceRT_color,2021.2.3,Win32,59.98440405,,,,,,,,8,Slow,short,k,1,2.1567,8,0,32,3,1,,,,,
1.92,,,,,,,,,j,red,5f7672195173b4112df5ae1f,2021-09-27_15h10.33.225,forced_choiceRT_color,2021.2.3,Win32,59.98440405,,,,,,,,8,Slow,short,d,0,2.1342,8,1,33,2,1,,,,,
0.07,,,,,,,,,d,orange,5f7672195173b4112df5ae1f,2021-09-27_15h10.33.225,forced_choiceRT_color,2021.2.3,Win32,59.98440405,,,,,,,,8,Ontime,short,d,1,1.9847,8,2,34,0,1,,,,,
0.37,,,,,,,,,k,purple,5f7672195173b4112df5ae1f,2021-09-27_15h10.33.225,forced_choiceRT_color,2021.2.3,Win32,59.98440405,,,,,,,,8,Ontime,short,k,1,2.0906,8,3,35,3,1,,,,,
0.25,,,,,,,,,d,orange,5f7672195173b4112df5ae1f,2021-09-27_15h10.33.225,forced_choiceRT_color,2021.2.3,Win32,59.98440405,,,,,,,,8,Fast,short,d,1,1.8557,9,0,36,0,1,,,,,
1.47,,,,,,,,,f,blue,5f7672195173b4112df5ae1f,2021-09-27_15h10.33.225,forced_choiceRT_color,2021.2.3,Win32,59.98440405,,,,,,,,8,Ontime,short,f,1,2.0508,9,1,37,1,1,,,,,
1.08,,,,,,,,,k,purple,5f7672195173b4112df5ae1f,2021-09-27_15h10.33.225,forced_choiceRT_color,2021.2.3,Win32,59.98440405,,,,,,,,8,Ontime,short,k,1,2.0513,9,2,38,3,1,,,,,
0.11,,,,,,,,,k,purple,5f7672195173b4112df5ae1f,2021-09-27_15h10.33.225,forced_choiceRT_color,2021.2.3,Win32,59.98440405,,,,,,,,8,Ontime,short,k,1,1.981,9,3,39,3,1,,,,,
,,,,,,,,,,,5f7672195173b4112df5ae1f,2021-09-27_15h10.33.225,forced_choiceRT_color,2021.2.3,Win32,59.98440405,,,,,,,,,,,,,,,,,,,7,0,7,0,1
1.35,,,,,,,,,k,purple,5f7672195173b4112df5ae1f,2021-09-27_15h10.33.225,forced_choiceRT_color,2021.2.3,Win32,59.98440405,,,,,,,,9,Ontime,short,k,1,2.0716,0,0,0,3,1,,,,,
0.06,,,,,,,,,j,red,5f7672195173b4112df5ae1f,2021-09-27_15h10.33.225,forced_choiceRT_color,2021.2.3,Win32,59.98440405,,,,,,,,9,Ontime,short,j,1,1.9413,0,1,1,2,1,,,,,
1.17,,,,,,,,,d,orange,5f7672195173b4112df5ae1f,2021-09-27_15h10.33.225,forced_choiceRT_color,2021.2.3,Win32,59.98440405,,,,,,,,9,Ontime,short,d,1,2.0511,0,2,2,0,1,,,,,
0.5,,,,,,,,,j,red,5f7672195173b4112df5ae1f,2021-09-27_15h10.33.225,forced_choiceRT_color,2021.2.3,Win32,59.98440405,,,,,,,,9,Ontime,short,j,1,2.0173,0,3,3,2,1,,,,,
1.75,,,,,,,,,d,orange,5f7672195173b4112df5ae1f,2021-09-27_15h10.33.225,forced_choiceRT_color,2021.2.3,Win32,59.98440405,,,,,,,,9,Slow,short,d,1,2.1592,1,0,4,0,1,,,,,
0.85,,,,,,,,,j,red,5f7672195173b4112df5ae1f,2021-09-27_15h10.33.225,forced_choiceRT_color,2021.2.3,Win32,59.98440405,,,,,,,,9,Ontime,short,j,1,2.0489,1,1,5,2,1,,,,,
0.72,,,,,,,,,k,purple,5f7672195173b4112df5ae1f,2021-09-27_15h10.33.225,forced_choiceRT_color,2021.2.3,Win32,59.98440405,,,,,,,,9,Slow,short,k,1,2.1112,1,2,6,3,1,,,,,
1.18,,,,,,,,,j,red,5f7672195173b4112df5ae1f,2021-09-27_15h10.33.225,forced_choiceRT_color,2021.2.3,Win32,59.98440405,,,,,,,,9,Ontime,short,j,1,1.9013,1,3,7,2,1,,,,,
1.61,,,,,,,,,d,orange,5f7672195173b4112df5ae1f,2021-09-27_15h10.33.225,forced_choiceRT_color,2021.2.3,Win32,59.98440405,,,,,,,,9,Slow,short,d,1,2.1009,2,0,8,0,1,,,,,
1.96,,,,,,,,,k,purple,5f7672195173b4112df5ae1f,2021-09-27_15h10.33.225,forced_choiceRT_color,2021.2.3,Win32,59.98440405,,,,,,,,9,Slow,short,f,0,2.1879,2,1,9,3,1,,,,,
1,,,,,,,,,j,red,5f7672195173b4112df5ae1f,2021-09-27_15h10.33.225,forced_choiceRT_color,2021.2.3,Win32,59.98440405,,,,,,,,9,Ontime,short,j,1,1.9928,2,2,10,2,1,,,,,
0.69,,,,,,,,,j,red,5f7672195173b4112df5ae1f,2021-09-27_15h10.33.225,forced_choiceRT_color,2021.2.3,Win32,59.98440405,,,,,,,,9,Ontime,short,j,1,2.0194,2,3,11,2,1,,,,,
0.56,,,,,,,,,f,blue,5f7672195173b4112df5ae1f,2021-09-27_15h10.33.225,forced_choiceRT_color,2021.2.3,Win32,59.98440405,,,,,,,,9,Ontime,short,f,1,2.0006,3,0,12,1,1,,,,,
0.48,,,,,,,,,d,orange,5f7672195173b4112df5ae1f,2021-09-27_15h10.33.225,forced_choiceRT_color,2021.2.3,Win32,59.98440405,,,,,,,,9,Ontime,short,d,1,1.9633,3,1,13,0,1,,,,,
1.23,,,,,,,,,k,purple,5f7672195173b4112df5ae1f,2021-09-27_15h10.33.225,forced_choiceRT_color,2021.2.3,Win32,59.98440405,,,,,,,,9,Ontime,short,k,1,2.0298,3,2,14,3,1,,,,,
1.62,,,,,,,,,f,blue,5f7672195173b4112df5ae1f,2021-09-27_15h10.33.225,forced_choiceRT_color,2021.2.3,Win32,59.98440405,,,,,,,,9,Slow,short,f,1,2.1971,3,3,15,1,1,,,,,
0.7,,,,,,,,,d,orange,5f7672195173b4112df5ae1f,2021-09-27_15h10.33.225,forced_choiceRT_color,2021.2.3,Win32,59.98440405,,,,,,,,9,Slow,short,d,1,2.1343,4,0,16,0,1,,,,,
0.63,,,,,,,,,d,orange,5f7672195173b4112df5ae1f,2021-09-27_15h10.33.225,forced_choiceRT_color,2021.2.3,Win32,59.98440405,,,,,,,,9,Ontime,short,d,1,2.0254,4,1,17,0,1,,,,,
0.18,,,,,,,,,f,blue,5f7672195173b4112df5ae1f,2021-09-27_15h10.33.225,forced_choiceRT_color,2021.2.3,Win32,59.98440405,,,,,,,,9,Ontime,short,f,1,2.0876,4,2,18,1,1,,,,,
0.97,,,,,,,,,d,orange,5f7672195173b4112df5ae1f,2021-09-27_15h10.33.225,forced_choiceRT_color,2021.2.3,Win32,59.98440405,,,,,,,,9,Ontime,short,d,1,2.0935,4,3,19,0,1,,,,,
0.6,,,,,,,,,k,purple,5f7672195173b4112df5ae1f,2021-09-27_15h10.33.225,forced_choiceRT_color,2021.2.3,Win32,59.98440405,,,,,,,,9,Ontime,short,k,1,2.0676,5,0,20,3,1,,,,,
0.81,,,,,,,,,j,red,5f7672195173b4112df5ae1f,2021-09-27_15h10.33.225,forced_choiceRT_color,2021.2.3,Win32,59.98440405,,,,,,,,9,Ontime,short,j,1,2.03,5,1,21,2,1,,,,,
0.62,,,,,,,,,k,purple,5f7672195173b4112df5ae1f,2021-09-27_15h10.33.225,forced_choiceRT_color,2021.2.3,Win32,59.98440405,,,,,,,,9,Ontime,short,k,1,1.952,5,2,22,3,1,,,,,
1.69,,,,,,,,,d,orange,5f7672195173b4112df5ae1f,2021-09-27_15h10.33.225,forced_choiceRT_color,2021.2.3,Win32,59.98440405,,,,,,,,9,Slow,short,d,1,2.2671,5,3,23,0,1,,,,,
0.09,,,,,,,,,j,red,5f7672195173b4112df5ae1f,2021-09-27_15h10.33.225,forced_choiceRT_color,2021.2.3,Win32,59.98440405,,,,,,,,9,Fast,short,j,1,1.7778,6,0,24,2,1,,,,,
0.22,,,,,,,,,f,blue,5f7672195173b4112df5ae1f,2021-09-27_15h10.33.225,forced_choiceRT_color,2021.2.3,Win32,59.98440405,,,,,,,,9,Ontime,short,f,1,2.0367,6,1,25,1,1,,,,,
0.96,,,,,,,,,f,blue,5f7672195173b4112df5ae1f,2021-09-27_15h10.33.225,forced_choiceRT_color,2021.2.3,Win32,59.98440405,,,,,,,,9,Ontime,short,f,1,1.9771,6,2,26,1,1,,,,,
1.18,,,,,,,,,k,purple,5f7672195173b4112df5ae1f,2021-09-27_15h10.33.225,forced_choiceRT_color,2021.2.3,Win32,59.98440405,,,,,,,,9,Ontime,short,k,1,2.0256,6,3,27,3,1,,,,,
1.24,,,,,,,,,k,purple,5f7672195173b4112df5ae1f,2021-09-27_15h10.33.225,forced_choiceRT_color,2021.2.3,Win32,59.98440405,,,,,,,,9,Ontime,short,k,1,1.9577,7,0,28,3,1,,,,,
0.11,,,,,,,,,f,blue,5f7672195173b4112df5ae1f,2021-09-27_15h10.33.225,forced_choiceRT_color,2021.2.3,Win32,59.98440405,,,,,,,,9,Fast,short,f,1,1.7834,7,1,29,1,1,,,,,
0.67,,,,,,,,,f,blue,5f7672195173b4112df5ae1f,2021-09-27_15h10.33.225,forced_choiceRT_color,2021.2.3,Win32,59.98440405,,,,,,,,9,Ontime,short,f,1,2.0343,7,2,30,1,1,,,,,
1.73,,,,,,,,,k,purple,5f7672195173b4112df5ae1f,2021-09-27_15h10.33.225,forced_choiceRT_color,2021.2.3,Win32,59.98440405,,,,,,,,9,Slow,short,k,1,2.1214,7,3,31,3,1,,,,,
0.03,,,,,,,,,j,red,5f7672195173b4112df5ae1f,2021-09-27_15h10.33.225,forced_choiceRT_color,2021.2.3,Win32,59.98440405,,,,,,,,9,Ontime,short,j,1,2.0543,8,0,32,2,1,,,,,
1.32,,,,,,,,,d,orange,5f7672195173b4112df5ae1f,2021-09-27_15h10.33.225,forced_choiceRT_color,2021.2.3,Win32,59.98440405,,,,,,,,9,Slow,short,d,1,2.1259,8,1,33,0,1,,,,,
0.05,,,,,,,,,j,red,5f7672195173b4112df5ae1f,2021-09-27_15h10.33.225,forced_choiceRT_color,2021.2.3,Win32,59.98440405,,,,,,,,9,Ontime,short,j,1,1.9342,8,2,34,2,1,,,,,
1.02,,,,,,,,,f,blue,5f7672195173b4112df5ae1f,2021-09-27_15h10.33.225,forced_choiceRT_color,2021.2.3,Win32,59.98440405,,,,,,,,9,Ontime,short,f,1,2.0184,8,3,35,1,1,,,,,
0.61,,,,,,,,,f,blue,5f7672195173b4112df5ae1f,2021-09-27_15h10.33.225,forced_choiceRT_color,2021.2.3,Win32,59.98440405,,,,,,,,9,Ontime,short,f,1,2.0551,9,0,36,1,1,,,,,
0.24,,,,,,,,,f,blue,5f7672195173b4112df5ae1f,2021-09-27_15h10.33.225,forced_choiceRT_color,2021.2.3,Win32,59.98440405,,,,,,,,9,Ontime,short,f,1,2.0673,9,1,37,1,1,,,,,
1.22,,,,,,,,,d,orange,5f7672195173b4112df5ae1f,2021-09-27_15h10.33.225,forced_choiceRT_color,2021.2.3,Win32,59.98440405,,,,,,,,9,Ontime,short,d,1,2.0002,9,2,38,0,1,,,,,
1.63,,,,,,,,,k,purple,5f7672195173b4112df5ae1f,2021-09-27_15h10.33.225,forced_choiceRT_color,2021.2.3,Win32,59.98440405,,,,,,,,9,Slow,short,k,1,2.1558,9,3,39,3,1,,,,,
,,,,,,,,,,,5f7672195173b4112df5ae1f,2021-09-27_15h10.33.225,forced_choiceRT_color,2021.2.3,Win32,59.98440405,,,,,,,,,,,,,,,,,,,8,0,8,0,1
0.15,,,,,,,,,j,red,5f7672195173b4112df5ae1f,2021-09-27_15h10.33.225,forced_choiceRT_color,2021.2.3,Win32,59.98440405,,,,,,,,10,Ontime,short,j,1,2.023,0,0,0,2,1,,,,,
1,,,,,,,,,d,orange,5f7672195173b4112df5ae1f,2021-09-27_15h10.33.225,forced_choiceRT_color,2021.2.3,Win32,59.98440405,,,,,,,,10,Slow,short,d,1,2.1285,0,1,1,0,1,,,,,
0.5,,,,,,,,,f,blue,5f7672195173b4112df5ae1f,2021-09-27_15h10.33.225,forced_choiceRT_color,2021.2.3,Win32,59.98440405,,,,,,,,10,Ontime,short,f,1,1.9799,0,2,2,1,1,,,,,
1.73,,,,,,,,,f,blue,5f7672195173b4112df5ae1f,2021-09-27_15h10.33.225,forced_choiceRT_color,2021.2.3,Win32,59.98440405,,,,,,,,10,Ontime,short,k,0,1.9411,0,3,3,1,1,,,,,
0.14,,,,,,,,,f,blue,5f7672195173b4112df5ae1f,2021-09-27_15h10.33.225,forced_choiceRT_color,2021.2.3,Win32,59.98440405,,,,,,,,10,Fast,short,f,1,1.818,1,0,4,1,1,,,,,
0.88,,,,,,,,,j,red,5f7672195173b4112df5ae1f,2021-09-27_15h10.33.225,forced_choiceRT_color,2021.2.3,Win32,59.98440405,,,,,,,,10,Fast,short,j,1,1.8434,1,1,5,2,1,,,,,
0.12,,,,,,,,,d,orange,5f7672195173b4112df5ae1f,2021-09-27_15h10.33.225,forced_choiceRT_color,2021.2.3,Win32,59.98440405,,,,,,,,10,Ontime,short,d,1,1.9531,1,2,6,0,1,,,,,
1.4,,,,,,,,,j,red,5f7672195173b4112df5ae1f,2021-09-27_15h10.33.225,forced_choiceRT_color,2021.2.3,Win32,59.98440405,,,,,,,,10,Ontime,short,j,1,2.0625,1,3,7,2,1,,,,,
0.38,,,,,,,,,k,purple,5f7672195173b4112df5ae1f,2021-09-27_15h10.33.225,forced_choiceRT_color,2021.2.3,Win32,59.98440405,,,,,,,,10,Ontime,short,k,1,2.0174,2,0,8,3,1,,,,,
0.18,,,,,,,,,f,blue,5f7672195173b4112df5ae1f,2021-09-27_15h10.33.225,forced_choiceRT_color,2021.2.3,Win32,59.98440405,,,,,,,,10,Ontime,short,f,1,2.0009,2,1,9,1,1,,,,,
0.83,,,,,,,,,j,red,5f7672195173b4112df5ae1f,2021-09-27_15h10.33.225,forced_choiceRT_color,2021.2.3,Win32,59.98440405,,,,,,,,10,Ontime,short,j,1,2.0097,2,2,10,2,1,,,,,
0,,,,,,,,,k,purple,5f7672195173b4112df5ae1f,2021-09-27_15h10.33.225,forced_choiceRT_color,2021.2.3,Win32,59.98440405,,,,,,,,10,Ontime,short,k,1,1.9337,2,3,11,3,1,,,,,
1.06,,,,,,,,,f,blue,5f7672195173b4112df5ae1f,2021-09-27_15h10.33.225,forced_choiceRT_color,2021.2.3,Win32,59.98440405,,,,,,,,10,Fast,short,f,1,1.8792,3,0,12,1,1,,,,,
0.73,,,,,,,,,f,blue,5f7672195173b4112df5ae1f,2021-09-27_15h10.33.225,forced_choiceRT_color,2021.2.3,Win32,59.98440405,,,,,,,,10,Ontime,short,f,1,2.0178,3,1,13,1,1,,,,,
0.89,,,,,,,,,f,blue,5f7672195173b4112df5ae1f,2021-09-27_15h10.33.225,forced_choiceRT_color,2021.2.3,Win32,59.98440405,,,,,,,,10,Ontime,short,f,1,2.0677,3,2,14,1,1,,,,,
1.87,,,,,,,,,d,orange,5f7672195173b4112df5ae1f,2021-09-27_15h10.33.225,forced_choiceRT_color,2021.2.3,Win32,59.98440405,,,,,,,,10,Slow,short,d,1,2.11,3,3,15,0,1,,,,,
0.63,,,,,,,,,k,purple,5f7672195173b4112df5ae1f,2021-09-27_15h10.33.225,forced_choiceRT_color,2021.2.3,Win32,59.98440405,,,,,,,,10,Ontime,short,k,1,1.9917,4,0,16,3,1,,,,,
1.48,,,,,,,,,d,orange,5f7672195173b4112df5ae1f,2021-09-27_15h10.33.225,forced_choiceRT_color,2021.2.3,Win32,59.98440405,,,,,,,,10,Ontime,short,k,0,1.9459,4,1,17,0,1,,,,,
1.01,,,,,,,,,j,red,5f7672195173b4112df5ae1f,2021-09-27_15h10.33.225,forced_choiceRT_color,2021.2.3,Win32,59.98440405,,,,,,,,10,Ontime,short,j,1,1.9636,4,2,18,2,1,,,,,
0.39,,,,,,,,,d,orange,5f7672195173b4112df5ae1f,2021-09-27_15h10.33.225,forced_choiceRT_color,2021.2.3,Win32,59.98440405,,,,,,,,10,Ontime,short,d,1,1.9913,4,3,19,0,1,,,,,
1.48,,,,,,,,,d,orange,5f7672195173b4112df5ae1f,2021-09-27_15h10.33.225,forced_choiceRT_color,2021.2.3,Win32,59.98440405,,,,,,,,10,Ontime,short,d,1,1.9576,5,0,20,0,1,,,,,
0.67,,,,,,,,,d,orange,5f7672195173b4112df5ae1f,2021-09-27_15h10.33.225,forced_choiceRT_color,2021.2.3,Win32,59.98440405,,,,,,,,10,Ontime,short,d,1,2.0177,5,1,21,0,1,,,,,
1.32,,,,,,,,,k,purple,5f7672195173b4112df5ae1f,2021-09-27_15h10.33.225,forced_choiceRT_color,2021.2.3,Win32,59.98440405,,,,,,,,10,Ontime,short,k,1,2.0197,5,2,22,3,1,,,,,
1.52,,,,,,,,,k,purple,5f7672195173b4112df5ae1f,2021-09-27_15h10.33.225,forced_choiceRT_color,2021.2.3,Win32,59.98440405,,,,,,,,10,Ontime,short,k,1,1.9166,5,3,23,3,1,,,,,
0.69,,,,,,,,,j,red,5f7672195173b4112df5ae1f,2021-09-27_15h10.33.225,forced_choiceRT_color,2021.2.3,Win32,59.98440405,,,,,,,,10,Ontime,short,j,1,2.0677,6,0,24,2,1,,,,,
1.3,,,,,,,,,j,red,5f7672195173b4112df5ae1f,2021-09-27_15h10.33.225,forced_choiceRT_color,2021.2.3,Win32,59.98440405,,,,,,,,10,Fast,short,j,1,1.7962,6,1,25,2,1,,,,,
1.3,,,,,,,,,k,purple,5f7672195173b4112df5ae1f,2021-09-27_15h10.33.225,forced_choiceRT_color,2021.2.3,Win32,59.98440405,,,,,,,,10,Ontime,short,k,1,2.003,6,2,26,3,1,,,,,
0.6,,,,,,,,,k,purple,5f7672195173b4112df5ae1f,2021-09-27_15h10.33.225,forced_choiceRT_color,2021.2.3,Win32,59.98440405,,,,,,,,10,Ontime,short,k,1,1.9591,6,3,27,3,1,,,,,
1.89,,,,,,,,,k,purple,5f7672195173b4112df5ae1f,2021-09-27_15h10.33.225,forced_choiceRT_color,2021.2.3,Win32,59.98440405,,,,,,,,10,Ontime,short,k,1,2.0433,7,0,28,3,1,,,,,
0.52,,,,,,,,,j,red,5f7672195173b4112df5ae1f,2021-09-27_15h10.33.225,forced_choiceRT_color,2021.2.3,Win32,59.98440405,,,,,,,,10,Ontime,short,j,1,2.053,7,1,29,2,1,,,,,
1.3,,,,,,,,,j,red,5f7672195173b4112df5ae1f,2021-09-27_15h10.33.225,forced_choiceRT_color,2021.2.3,Win32,59.98440405,,,,,,,,10,Ontime,short,j,1,2.0704,7,2,30,2,1,,,,,
1.4,,,,,,,,,j,red,5f7672195173b4112df5ae1f,2021-09-27_15h10.33.225,forced_choiceRT_color,2021.2.3,Win32,59.98440405,,,,,,,,10,Fast,short,j,1,1.8675,7,3,31,2,1,,,,,
0.53,,,,,,,,,k,purple,5f7672195173b4112df5ae1f,2021-09-27_15h10.33.225,forced_choiceRT_color,2021.2.3,Win32,59.98440405,,,,,,,,10,Ontime,short,k,1,1.9643,8,0,32,3,1,,,,,
1.66,,,,,,,,,k,purple,5f7672195173b4112df5ae1f,2021-09-27_15h10.33.225,forced_choiceRT_color,2021.2.3,Win32,59.98440405,,,,,,,,10,Ontime,short,k,1,1.9677,8,1,33,3,1,,,,,
0,,,,,,,,,d,orange,5f7672195173b4112df5ae1f,2021-09-27_15h10.33.225,forced_choiceRT_color,2021.2.3,Win32,59.98440405,,,,,,,,10,Ontime,short,d,1,2.0709,8,2,34,0,1,,,,,
0.35,,,,,,,,,f,blue,5f7672195173b4112df5ae1f,2021-09-27_15h10.33.225,forced_choiceRT_color,2021.2.3,Win32,59.98440405,,,,,,,,10,Slow,short,f,1,2.1007,8,3,35,1,1,,,,,
1.21,,,,,,,,,d,orange,5f7672195173b4112df5ae1f,2021-09-27_15h10.33.225,forced_choiceRT_color,2021.2.3,Win32,59.98440405,,,,,,,,10,Ontime,short,d,1,1.9609,9,0,36,0,1,,,,,
0.56,,,,,,,,,d,orange,5f7672195173b4112df5ae1f,2021-09-27_15h10.33.225,forced_choiceRT_color,2021.2.3,Win32,59.98440405,,,,,,,,10,Ontime,short,d,1,1.9508,9,1,37,0,1,,,,,
0.26,,,,,,,,,f,blue,5f7672195173b4112df5ae1f,2021-09-27_15h10.33.225,forced_choiceRT_color,2021.2.3,Win32,59.98440405,,,,,,,,10,Ontime,short,f,1,1.9171,9,2,38,1,1,,,,,
0.83,,,,,,,,,f,blue,5f7672195173b4112df5ae1f,2021-09-27_15h10.33.225,forced_choiceRT_color,2021.2.3,Win32,59.98440405,,,,,,,,10,Ontime,short,f,1,1.9774,9,3,39,1,1,,,,,
,,,,,,,,,,,5f7672195173b4112df5ae1f,2021-09-27_15h10.33.225,forced_choiceRT_color,2021.2.3,Win32,59.98440405,,,,,,,,,,,,,,,,,,,9,0,9,0,1
