IP_Addresss,target_onset,trial_resp_sp.keys,trial_resp_sp.corr,trial_resp_sp.rt,trials_train_loop.thisRepN,trials_train_loop.thisTrialN,trials_train_loop.thisN,trials_train_loop.thisIndex,trials_train_loop.ran,correct_key,color,participant,date,expName,psychopyVersion,OS,frameRate,trial_resp_timing.keys,trial_resp_timing.rt,trials_train_timing.thisRepN,trials_train_timing.thisTrialN,trials_train_timing.thisN,trials_train_timing.thisIndex,trials_train_timing.ran,block_id,ontime,feedback_cond,forcedRT_resp.keys,forcedRT_resp.corr,forcedRT_resp.rt,trials.thisRepN,trials.thisTrialN,trials.thisN,trials.thisIndex,trials.ran,blocks.thisRepN,blocks.thisTrialN,blocks.thisN,blocks.thisIndex,blocks.ran
70.113.36.37,0,j,1,2.5908,0,0,0,2,1,j,red,5fde82a1dd8cf15d19961474,2021-09-27_16h13.52.144,forced_choiceRT_color,2021.2.3,Win32,59.97361161,,,,,,,,,,,,,,,,,,,,,,,
,0,d,1,1.308,0,1,1,0,1,d,orange,5fde82a1dd8cf15d19961474,2021-09-27_16h13.52.144,forced_choiceRT_color,2021.2.3,Win32,59.97361161,,,,,,,,,,,,,,,,,,,,,,,
,0,d,1,1.5352,0,2,2,0,1,d,orange,5fde82a1dd8cf15d19961474,2021-09-27_16h13.52.144,forced_choiceRT_color,2021.2.3,Win32,59.97361161,,,,,,,,,,,,,,,,,,,,,,,
,0,f,1,1.159,0,3,3,1,1,f,blue,5fde82a1dd8cf15d19961474,2021-09-27_16h13.52.144,forced_choiceRT_color,2021.2.3,Win32,59.97361161,,,,,,,,,,,,,,,,,,,,,,,
,0,f,1,1.1347,1,0,4,1,1,f,blue,5fde82a1dd8cf15d19961474,2021-09-27_16h13.52.144,forced_choiceRT_color,2021.2.3,Win32,59.97361161,,,,,,,,,,,,,,,,,,,,,,,
,0,f,1,0.6577,1,1,5,1,1,f,blue,5fde82a1dd8cf15d19961474,2021-09-27_16h13.52.144,forced_choiceRT_color,2021.2.3,Win32,59.97361161,,,,,,,,,,,,,,,,,,,,,,,
,0,f,1,0.5924,1,2,6,1,1,f,blue,5fde82a1dd8cf15d19961474,2021-09-27_16h13.52.144,forced_choiceRT_color,2021.2.3,Win32,59.97361161,,,,,,,,,,,,,,,,,,,,,,,
,0,k,1,1.2284,1,3,7,3,1,k,purple,5fde82a1dd8cf15d19961474,2021-09-27_16h13.52.144,forced_choiceRT_color,2021.2.3,Win32,59.97361161,,,,,,,,,,,,,,,,,,,,,,,
,0,k,1,0.5251,2,0,8,3,1,k,purple,5fde82a1dd8cf15d19961474,2021-09-27_16h13.52.144,forced_choiceRT_color,2021.2.3,Win32,59.97361161,,,,,,,,,,,,,,,,,,,,,,,
,0,j,1,1.5517,2,1,9,2,1,j,red,5fde82a1dd8cf15d19961474,2021-09-27_16h13.52.144,forced_choiceRT_color,2021.2.3,Win32,59.97361161,,,,,,,,,,,,,,,,,,,,,,,
,0,j,1,0.8343,2,2,10,2,1,j,red,5fde82a1dd8cf15d19961474,2021-09-27_16h13.52.144,forced_choiceRT_color,2021.2.3,Win32,59.97361161,,,,,,,,,,,,,,,,,,,,,,,
,0,d,1,0.8248,2,3,11,0,1,d,orange,5fde82a1dd8cf15d19961474,2021-09-27_16h13.52.144,forced_choiceRT_color,2021.2.3,Win32,59.97361161,,,,,,,,,,,,,,,,,,,,,,,
,0,d,1,0.6663,3,0,12,0,1,d,orange,5fde82a1dd8cf15d19961474,2021-09-27_16h13.52.144,forced_choiceRT_color,2021.2.3,Win32,59.97361161,,,,,,,,,,,,,,,,,,,,,,,
,0,k,1,0.963,3,1,13,3,1,k,purple,5fde82a1dd8cf15d19961474,2021-09-27_16h13.52.144,forced_choiceRT_color,2021.2.3,Win32,59.97361161,,,,,,,,,,,,,,,,,,,,,,,
,0,j,1,2.5018,3,2,14,2,1,j,red,5fde82a1dd8cf15d19961474,2021-09-27_16h13.52.144,forced_choiceRT_color,2021.2.3,Win32,59.97361161,,,,,,,,,,,,,,,,,,,,,,,
,0,j,1,1.0202,3,3,15,2,1,j,red,5fde82a1dd8cf15d19961474,2021-09-27_16h13.52.144,forced_choiceRT_color,2021.2.3,Win32,59.97361161,,,,,,,,,,,,,,,,,,,,,,,
,0,f,1,2.3515,4,0,16,1,1,f,blue,5fde82a1dd8cf15d19961474,2021-09-27_16h13.52.144,forced_choiceRT_color,2021.2.3,Win32,59.97361161,,,,,,,,,,,,,,,,,,,,,,,
,0,j,1,1.0889,4,1,17,2,1,j,red,5fde82a1dd8cf15d19961474,2021-09-27_16h13.52.144,forced_choiceRT_color,2021.2.3,Win32,59.97361161,,,,,,,,,,,,,,,,,,,,,,,
,0,f,1,0.8402,4,2,18,1,1,f,blue,5fde82a1dd8cf15d19961474,2021-09-27_16h13.52.144,forced_choiceRT_color,2021.2.3,Win32,59.97361161,,,,,,,,,,,,,,,,,,,,,,,
,0,k,1,1.1179,4,3,19,3,1,k,purple,5fde82a1dd8cf15d19961474,2021-09-27_16h13.52.144,forced_choiceRT_color,2021.2.3,Win32,59.97361161,,,,,,,,,,,,,,,,,,,,,,,
,0,k,1,0.5759,5,0,20,3,1,k,purple,5fde82a1dd8cf15d19961474,2021-09-27_16h13.52.144,forced_choiceRT_color,2021.2.3,Win32,59.97361161,,,,,,,,,,,,,,,,,,,,,,,
,0,d,1,0.8109,5,1,21,0,1,d,orange,5fde82a1dd8cf15d19961474,2021-09-27_16h13.52.144,forced_choiceRT_color,2021.2.3,Win32,59.97361161,,,,,,,,,,,,,,,,,,,,,,,
,0,k,1,0.7016,5,2,22,3,1,k,purple,5fde82a1dd8cf15d19961474,2021-09-27_16h13.52.144,forced_choiceRT_color,2021.2.3,Win32,59.97361161,,,,,,,,,,,,,,,,,,,,,,,
,0,d,1,0.8522,5,3,23,0,1,d,orange,5fde82a1dd8cf15d19961474,2021-09-27_16h13.52.144,forced_choiceRT_color,2021.2.3,Win32,59.97361161,,,,,,,,,,,,,,,,,,,,,,,
,0,k,1,0.6439,6,0,24,3,1,k,purple,5fde82a1dd8cf15d19961474,2021-09-27_16h13.52.144,forced_choiceRT_color,2021.2.3,Win32,59.97361161,,,,,,,,,,,,,,,,,,,,,,,
,0,j,1,1.5561,6,1,25,2,1,j,red,5fde82a1dd8cf15d19961474,2021-09-27_16h13.52.144,forced_choiceRT_color,2021.2.3,Win32,59.97361161,,,,,,,,,,,,,,,,,,,,,,,
,0,j,1,0.6245,6,2,26,2,1,j,red,5fde82a1dd8cf15d19961474,2021-09-27_16h13.52.144,forced_choiceRT_color,2021.2.3,Win32,59.97361161,,,,,,,,,,,,,,,,,,,,,,,
,0,f,1,0.6898,6,3,27,1,1,f,blue,5fde82a1dd8cf15d19961474,2021-09-27_16h13.52.144,forced_choiceRT_color,2021.2.3,Win32,59.97361161,,,,,,,,,,,,,,,,,,,,,,,
,0,j,1,1.4504,7,0,28,2,1,j,red,5fde82a1dd8cf15d19961474,2021-09-27_16h13.52.144,forced_choiceRT_color,2021.2.3,Win32,59.97361161,,,,,,,,,,,,,,,,,,,,,,,
,0,f,1,0.7921,7,1,29,1,1,f,blue,5fde82a1dd8cf15d19961474,2021-09-27_16h13.52.144,forced_choiceRT_color,2021.2.3,Win32,59.97361161,,,,,,,,,,,,,,,,,,,,,,,
,0,d,1,2.4521,7,2,30,0,1,d,orange,5fde82a1dd8cf15d19961474,2021-09-27_16h13.52.144,forced_choiceRT_color,2021.2.3,Win32,59.97361161,,,,,,,,,,,,,,,,,,,,,,,
,0,d,1,1.4188,7,3,31,0,1,d,orange,5fde82a1dd8cf15d19961474,2021-09-27_16h13.52.144,forced_choiceRT_color,2021.2.3,Win32,59.97361161,,,,,,,,,,,,,,,,,,,,,,,
,0,d,1,1.004,8,0,32,0,1,d,orange,5fde82a1dd8cf15d19961474,2021-09-27_16h13.52.144,forced_choiceRT_color,2021.2.3,Win32,59.97361161,,,,,,,,,,,,,,,,,,,,,,,
,0,j,1,0.8059,8,1,33,2,1,j,red,5fde82a1dd8cf15d19961474,2021-09-27_16h13.52.144,forced_choiceRT_color,2021.2.3,Win32,59.97361161,,,,,,,,,,,,,,,,,,,,,,,
,0,d,1,1.4564,8,2,34,0,1,d,orange,5fde82a1dd8cf15d19961474,2021-09-27_16h13.52.144,forced_choiceRT_color,2021.2.3,Win32,59.97361161,,,,,,,,,,,,,,,,,,,,,,,
,0,f,1,0.7684,8,3,35,1,1,f,blue,5fde82a1dd8cf15d19961474,2021-09-27_16h13.52.144,forced_choiceRT_color,2021.2.3,Win32,59.97361161,,,,,,,,,,,,,,,,,,,,,,,
,0,f,1,0.6117,9,0,36,1,1,f,blue,5fde82a1dd8cf15d19961474,2021-09-27_16h13.52.144,forced_choiceRT_color,2021.2.3,Win32,59.97361161,,,,,,,,,,,,,,,,,,,,,,,
,0,j,1,0.7017,9,1,37,2,1,j,red,5fde82a1dd8cf15d19961474,2021-09-27_16h13.52.144,forced_choiceRT_color,2021.2.3,Win32,59.97361161,,,,,,,,,,,,,,,,,,,,,,,
,0,d,1,0.6501,9,2,38,0,1,d,orange,5fde82a1dd8cf15d19961474,2021-09-27_16h13.52.144,forced_choiceRT_color,2021.2.3,Win32,59.97361161,,,,,,,,,,,,,,,,,,,,,,,
,0,d,1,0.7569,9,3,39,0,1,d,orange,5fde82a1dd8cf15d19961474,2021-09-27_16h13.52.144,forced_choiceRT_color,2021.2.3,Win32,59.97361161,,,,,,,,,,,,,,,,,,,,,,,
,0,j,1,0.7767,10,0,40,2,1,j,red,5fde82a1dd8cf15d19961474,2021-09-27_16h13.52.144,forced_choiceRT_color,2021.2.3,Win32,59.97361161,,,,,,,,,,,,,,,,,,,,,,,
,0,k,1,0.613,10,1,41,3,1,k,purple,5fde82a1dd8cf15d19961474,2021-09-27_16h13.52.144,forced_choiceRT_color,2021.2.3,Win32,59.97361161,,,,,,,,,,,,,,,,,,,,,,,
,0,k,1,0.5592,10,2,42,3,1,k,purple,5fde82a1dd8cf15d19961474,2021-09-27_16h13.52.144,forced_choiceRT_color,2021.2.3,Win32,59.97361161,,,,,,,,,,,,,,,,,,,,,,,
,0,k,1,0.5403,10,3,43,3,1,k,purple,5fde82a1dd8cf15d19961474,2021-09-27_16h13.52.144,forced_choiceRT_color,2021.2.3,Win32,59.97361161,,,,,,,,,,,,,,,,,,,,,,,
,0,k,1,0.488,11,0,44,3,1,k,purple,5fde82a1dd8cf15d19961474,2021-09-27_16h13.52.144,forced_choiceRT_color,2021.2.3,Win32,59.97361161,,,,,,,,,,,,,,,,,,,,,,,
,0,f,1,0.943,11,1,45,1,1,f,blue,5fde82a1dd8cf15d19961474,2021-09-27_16h13.52.144,forced_choiceRT_color,2021.2.3,Win32,59.97361161,,,,,,,,,,,,,,,,,,,,,,,
,0,d,1,0.7398,11,2,46,0,1,d,orange,5fde82a1dd8cf15d19961474,2021-09-27_16h13.52.144,forced_choiceRT_color,2021.2.3,Win32,59.97361161,,,,,,,,,,,,,,,,,,,,,,,
,0,f,1,0.6349,11,3,47,1,1,f,blue,5fde82a1dd8cf15d19961474,2021-09-27_16h13.52.144,forced_choiceRT_color,2021.2.3,Win32,59.97361161,,,,,,,,,,,,,,,,,,,,,,,
,0,f,1,0.5614,12,0,48,1,1,f,blue,5fde82a1dd8cf15d19961474,2021-09-27_16h13.52.144,forced_choiceRT_color,2021.2.3,Win32,59.97361161,,,,,,,,,,,,,,,,,,,,,,,
,0,j,1,0.6532,12,1,49,2,1,j,red,5fde82a1dd8cf15d19961474,2021-09-27_16h13.52.144,forced_choiceRT_color,2021.2.3,Win32,59.97361161,,,,,,,,,,,,,,,,,,,,,,,
,0,d,1,0.7186,12,2,50,0,1,d,orange,5fde82a1dd8cf15d19961474,2021-09-27_16h13.52.144,forced_choiceRT_color,2021.2.3,Win32,59.97361161,,,,,,,,,,,,,,,,,,,,,,,
,0,f,1,0.5712,12,3,51,1,1,f,blue,5fde82a1dd8cf15d19961474,2021-09-27_16h13.52.144,forced_choiceRT_color,2021.2.3,Win32,59.97361161,,,,,,,,,,,,,,,,,,,,,,,
,0,j,1,0.6083,13,0,52,2,1,j,red,5fde82a1dd8cf15d19961474,2021-09-27_16h13.52.144,forced_choiceRT_color,2021.2.3,Win32,59.97361161,,,,,,,,,,,,,,,,,,,,,,,
,0,k,1,0.4515,13,1,53,3,1,k,purple,5fde82a1dd8cf15d19961474,2021-09-27_16h13.52.144,forced_choiceRT_color,2021.2.3,Win32,59.97361161,,,,,,,,,,,,,,,,,,,,,,,
,0,k,1,0.6096,13,2,54,3,1,k,purple,5fde82a1dd8cf15d19961474,2021-09-27_16h13.52.144,forced_choiceRT_color,2021.2.3,Win32,59.97361161,,,,,,,,,,,,,,,,,,,,,,,
,0,k,1,0.5234,13,3,55,3,1,k,purple,5fde82a1dd8cf15d19961474,2021-09-27_16h13.52.144,forced_choiceRT_color,2021.2.3,Win32,59.97361161,,,,,,,,,,,,,,,,,,,,,,,
,0,f,1,0.7623,14,0,56,1,1,f,blue,5fde82a1dd8cf15d19961474,2021-09-27_16h13.52.144,forced_choiceRT_color,2021.2.3,Win32,59.97361161,,,,,,,,,,,,,,,,,,,,,,,
,0,d,1,0.4773,14,1,57,0,1,d,orange,5fde82a1dd8cf15d19961474,2021-09-27_16h13.52.144,forced_choiceRT_color,2021.2.3,Win32,59.97361161,,,,,,,,,,,,,,,,,,,,,,,
,0,j,1,0.6296,14,2,58,2,1,j,red,5fde82a1dd8cf15d19961474,2021-09-27_16h13.52.144,forced_choiceRT_color,2021.2.3,Win32,59.97361161,,,,,,,,,,,,,,,,,,,,,,,
,0,k,1,0.5425,14,3,59,3,1,k,purple,5fde82a1dd8cf15d19961474,2021-09-27_16h13.52.144,forced_choiceRT_color,2021.2.3,Win32,59.97361161,,,,,,,,,,,,,,,,,,,,,,,
,,,,,,,,,,,,5fde82a1dd8cf15d19961474,2021-09-27_16h13.52.144,forced_choiceRT_color,2021.2.3,Win32,59.97361161,j,2.2543,0,0,0,0,1,,,,,,,,,,,,,,,,
,,,,,,,,,,,,5fde82a1dd8cf15d19961474,2021-09-27_16h13.52.144,forced_choiceRT_color,2021.2.3,Win32,59.97361161,j,1.7755,1,0,1,0,1,,,,,,,,,,,,,,,,
,,,,,,,,,,,,5fde82a1dd8cf15d19961474,2021-09-27_16h13.52.144,forced_choiceRT_color,2021.2.3,Win32,59.97361161,j,1.9857,2,0,2,0,1,,,,,,,,,,,,,,,,
,,,,,,,,,,,,5fde82a1dd8cf15d19961474,2021-09-27_16h13.52.144,forced_choiceRT_color,2021.2.3,Win32,59.97361161,j,1.7683,3,0,3,0,1,,,,,,,,,,,,,,,,
,,,,,,,,,,,,5fde82a1dd8cf15d19961474,2021-09-27_16h13.52.144,forced_choiceRT_color,2021.2.3,Win32,59.97361161,j,2.009,4,0,4,0,1,,,,,,,,,,,,,,,,
,,,,,,,,,,,,5fde82a1dd8cf15d19961474,2021-09-27_16h13.52.144,forced_choiceRT_color,2021.2.3,Win32,59.97361161,j,2.0897,5,0,5,0,1,,,,,,,,,,,,,,,,
,,,,,,,,,,,,5fde82a1dd8cf15d19961474,2021-09-27_16h13.52.144,forced_choiceRT_color,2021.2.3,Win32,59.97361161,k,1.8087,6,0,6,0,1,,,,,,,,,,,,,,,,
,,,,,,,,,,,,5fde82a1dd8cf15d19961474,2021-09-27_16h13.52.144,forced_choiceRT_color,2021.2.3,Win32,59.97361161,f,2.0102,7,0,7,0,1,,,,,,,,,,,,,,,,
,,,,,,,,,,,,5fde82a1dd8cf15d19961474,2021-09-27_16h13.52.144,forced_choiceRT_color,2021.2.3,Win32,59.97361161,d,2.0689,8,0,8,0,1,,,,,,,,,,,,,,,,
,,,,,,,,,,,,5fde82a1dd8cf15d19961474,2021-09-27_16h13.52.144,forced_choiceRT_color,2021.2.3,Win32,59.97361161,k,2.0193,9,0,9,0,1,,,,,,,,,,,,,,,,
,,,,,,,,,,,,5fde82a1dd8cf15d19961474,2021-09-27_16h13.52.144,forced_choiceRT_color,2021.2.3,Win32,59.97361161,k,2.1402,10,0,10,0,1,,,,,,,,,,,,,,,,
,,,,,,,,,,,,5fde82a1dd8cf15d19961474,2021-09-27_16h13.52.144,forced_choiceRT_color,2021.2.3,Win32,59.97361161,k,2.0404,11,0,11,0,1,,,,,,,,,,,,,,,,
,,,,,,,,,,,,5fde82a1dd8cf15d19961474,2021-09-27_16h13.52.144,forced_choiceRT_color,2021.2.3,Win32,59.97361161,k,2.0576,12,0,12,0,1,,,,,,,,,,,,,,,,
,,,,,,,,,,,,5fde82a1dd8cf15d19961474,2021-09-27_16h13.52.144,forced_choiceRT_color,2021.2.3,Win32,59.97361161,j,2.1044,13,0,13,0,1,,,,,,,,,,,,,,,,
,,,,,,,,,,,,5fde82a1dd8cf15d19961474,2021-09-27_16h13.52.144,forced_choiceRT_color,2021.2.3,Win32,59.97361161,j,2.0015,14,0,14,0,1,,,,,,,,,,,,,,,,
,,,,,,,,,,,,5fde82a1dd8cf15d19961474,2021-09-27_16h13.52.144,forced_choiceRT_color,2021.2.3,Win32,59.97361161,j,2.0722,15,0,15,0,1,,,,,,,,,,,,,,,,
,,,,,,,,,,,,5fde82a1dd8cf15d19961474,2021-09-27_16h13.52.144,forced_choiceRT_color,2021.2.3,Win32,59.97361161,f,1.7923,16,0,16,0,1,,,,,,,,,,,,,,,,
,,,,,,,,,,,,5fde82a1dd8cf15d19961474,2021-09-27_16h13.52.144,forced_choiceRT_color,2021.2.3,Win32,59.97361161,f,1.7847,17,0,17,0,1,,,,,,,,,,,,,,,,
,,,,,,,,,,,,5fde82a1dd8cf15d19961474,2021-09-27_16h13.52.144,forced_choiceRT_color,2021.2.3,Win32,59.97361161,f,2.0358,18,0,18,0,1,,,,,,,,,,,,,,,,
,,,,,,,,,,,,5fde82a1dd8cf15d19961474,2021-09-27_16h13.52.144,forced_choiceRT_color,2021.2.3,Win32,59.97361161,f,2.0132,19,0,19,0,1,,,,,,,,,,,,,,,,
,1.57,,,,,,,,,d,orange,5fde82a1dd8cf15d19961474,2021-09-27_16h13.52.144,forced_choiceRT_color,2021.2.3,Win32,59.97361161,,,,,,,,1,Fast,long,j,0,1.8941,0,0,0,0,1,,,,,
,0.92,,,,,,,,,k,purple,5fde82a1dd8cf15d19961474,2021-09-27_16h13.52.144,forced_choiceRT_color,2021.2.3,Win32,59.97361161,,,,,,,,1,Fast,long,k,1,1.7516,0,1,1,3,1,,,,,
,0.47,,,,,,,,,f,blue,5fde82a1dd8cf15d19961474,2021-09-27_16h13.52.144,forced_choiceRT_color,2021.2.3,Win32,59.97361161,,,,,,,,1,Slow,long,f,1,2.1143,0,2,2,1,1,,,,,
,0.16,,,,,,,,,f,blue,5fde82a1dd8cf15d19961474,2021-09-27_16h13.52.144,forced_choiceRT_color,2021.2.3,Win32,59.97361161,,,,,,,,1,Slow,long,f,1,2.1104,0,3,3,1,1,,,,,
,0.6,,,,,,,,,d,orange,5fde82a1dd8cf15d19961474,2021-09-27_16h13.52.144,forced_choiceRT_color,2021.2.3,Win32,59.97361161,,,,,,,,1,Slow,long,d,1,2.2028,1,0,4,0,1,,,,,
,1.19,,,,,,,,,j,red,5fde82a1dd8cf15d19961474,2021-09-27_16h13.52.144,forced_choiceRT_color,2021.2.3,Win32,59.97361161,,,,,,,,1,Slow,long,j,1,2.3524,1,1,5,2,1,,,,,
,0.18,,,,,,,,,j,red,5fde82a1dd8cf15d19961474,2021-09-27_16h13.52.144,forced_choiceRT_color,2021.2.3,Win32,59.97361161,,,,,,,,1,Ontime,long,j,1,1.9267,1,2,6,2,1,,,,,
,1.5,,,,,,,,,d,orange,5fde82a1dd8cf15d19961474,2021-09-27_16h13.52.144,forced_choiceRT_color,2021.2.3,Win32,59.97361161,,,,,,,,1,Slow,long,d,1,2.2693,1,3,7,0,1,,,,,
,1.9,,,,,,,,,k,purple,5fde82a1dd8cf15d19961474,2021-09-27_16h13.52.144,forced_choiceRT_color,2021.2.3,Win32,59.97361161,,,,,,,,1,Slow,long,k,1,3.8227,2,0,8,3,1,,,,,
,1.18,,,,,,,,,j,red,5fde82a1dd8cf15d19961474,2021-09-27_16h13.52.144,forced_choiceRT_color,2021.2.3,Win32,59.97361161,,,,,,,,1,Ontime,long,j,1,2.0618,2,1,9,2,1,,,,,
,1.15,,,,,,,,,k,purple,5fde82a1dd8cf15d19961474,2021-09-27_16h13.52.144,forced_choiceRT_color,2021.2.3,Win32,59.97361161,,,,,,,,1,Slow,long,k,1,2.1932,2,2,10,3,1,,,,,
,1.12,,,,,,,,,k,purple,5fde82a1dd8cf15d19961474,2021-09-27_16h13.52.144,forced_choiceRT_color,2021.2.3,Win32,59.97361161,,,,,,,,1,Ontime,long,k,1,2.0752,2,3,11,3,1,,,,,
,1.9,,,,,,,,,j,red,5fde82a1dd8cf15d19961474,2021-09-27_16h13.52.144,forced_choiceRT_color,2021.2.3,Win32,59.97361161,,,,,,,,1,Slow,long,j,1,2.3974,3,0,12,2,1,,,,,
,1.63,,,,,,,,,k,purple,5fde82a1dd8cf15d19961474,2021-09-27_16h13.52.144,forced_choiceRT_color,2021.2.3,Win32,59.97361161,,,,,,,,1,Slow,long,d,0,2.1527,3,1,13,3,1,,,,,
,0.86,,,,,,,,,j,red,5fde82a1dd8cf15d19961474,2021-09-27_16h13.52.144,forced_choiceRT_color,2021.2.3,Win32,59.97361161,,,,,,,,1,Fast,long,j,1,1.7382,3,2,14,2,1,,,,,
,0.17,,,,,,,,,d,orange,5fde82a1dd8cf15d19961474,2021-09-27_16h13.52.144,forced_choiceRT_color,2021.2.3,Win32,59.97361161,,,,,,,,1,Ontime,long,d,1,1.9023,3,3,15,0,1,,,,,
,0.35,,,,,,,,,j,red,5fde82a1dd8cf15d19961474,2021-09-27_16h13.52.144,forced_choiceRT_color,2021.2.3,Win32,59.97361161,,,,,,,,1,Ontime,long,j,1,2.0188,4,0,16,2,1,,,,,
,0.5,,,,,,,,,d,orange,5fde82a1dd8cf15d19961474,2021-09-27_16h13.52.144,forced_choiceRT_color,2021.2.3,Win32,59.97361161,,,,,,,,1,Ontime,long,d,1,1.985,4,1,17,0,1,,,,,
,1.56,,,,,,,,,d,orange,5fde82a1dd8cf15d19961474,2021-09-27_16h13.52.144,forced_choiceRT_color,2021.2.3,Win32,59.97361161,,,,,,,,1,Slow,long,d,1,2.3056,4,2,18,0,1,,,,,
,0.98,,,,,,,,,k,purple,5fde82a1dd8cf15d19961474,2021-09-27_16h13.52.144,forced_choiceRT_color,2021.2.3,Win32,59.97361161,,,,,,,,1,Ontime,long,k,1,2.038,4,3,19,3,1,,,,,
,0.53,,,,,,,,,f,blue,5fde82a1dd8cf15d19961474,2021-09-27_16h13.52.144,forced_choiceRT_color,2021.2.3,Win32,59.97361161,,,,,,,,1,Ontime,long,f,1,2.059,5,0,20,1,1,,,,,
,0.5,,,,,,,,,k,purple,5fde82a1dd8cf15d19961474,2021-09-27_16h13.52.144,forced_choiceRT_color,2021.2.3,Win32,59.97361161,,,,,,,,1,Ontime,long,k,1,1.9189,5,1,21,3,1,,,,,
,0.99,,,,,,,,,k,purple,5fde82a1dd8cf15d19961474,2021-09-27_16h13.52.144,forced_choiceRT_color,2021.2.3,Win32,59.97361161,,,,,,,,1,Ontime,long,k,1,2.0855,5,2,22,3,1,,,,,
,1.89,,,,,,,,,j,red,5fde82a1dd8cf15d19961474,2021-09-27_16h13.52.144,forced_choiceRT_color,2021.2.3,Win32,59.97361161,,,,,,,,1,Slow,long,j,1,2.4184,5,3,23,2,1,,,,,
,1.06,,,,,,,,,d,orange,5fde82a1dd8cf15d19961474,2021-09-27_16h13.52.144,forced_choiceRT_color,2021.2.3,Win32,59.97361161,,,,,,,,1,Ontime,long,d,1,1.9603,6,0,24,0,1,,,,,
,0.38,,,,,,,,,j,red,5fde82a1dd8cf15d19961474,2021-09-27_16h13.52.144,forced_choiceRT_color,2021.2.3,Win32,59.97361161,,,,,,,,1,Fast,long,j,1,1.735,6,1,25,2,1,,,,,
,0.65,,,,,,,,,f,blue,5fde82a1dd8cf15d19961474,2021-09-27_16h13.52.144,forced_choiceRT_color,2021.2.3,Win32,59.97361161,,,,,,,,1,Ontime,long,f,1,2.0138,6,2,26,1,1,,,,,
,1.23,,,,,,,,,d,orange,5fde82a1dd8cf15d19961474,2021-09-27_16h13.52.144,forced_choiceRT_color,2021.2.3,Win32,59.97361161,,,,,,,,1,Ontime,long,d,1,2.0691,6,3,27,0,1,,,,,
,0.08,,,,,,,,,d,orange,5fde82a1dd8cf15d19961474,2021-09-27_16h13.52.144,forced_choiceRT_color,2021.2.3,Win32,59.97361161,,,,,,,,1,Ontime,long,d,1,1.9398,7,0,28,0,1,,,,,
,1.24,,,,,,,,,f,blue,5fde82a1dd8cf15d19961474,2021-09-27_16h13.52.144,forced_choiceRT_color,2021.2.3,Win32,59.97361161,,,,,,,,1,Slow,long,j,0,2.3806,7,1,29,1,1,,,,,
,1.03,,,,,,,,,f,blue,5fde82a1dd8cf15d19961474,2021-09-27_16h13.52.144,forced_choiceRT_color,2021.2.3,Win32,59.97361161,,,,,,,,1,Fast,long,f,1,1.8777,7,2,30,1,1,,,,,
,0.1,,,,,,,,,d,orange,5fde82a1dd8cf15d19961474,2021-09-27_16h13.52.144,forced_choiceRT_color,2021.2.3,Win32,59.97361161,,,,,,,,1,Ontime,long,d,1,1.9725,7,3,31,0,1,,,,,
,1.24,,,,,,,,,k,purple,5fde82a1dd8cf15d19961474,2021-09-27_16h13.52.144,forced_choiceRT_color,2021.2.3,Win32,59.97361161,,,,,,,,1,Slow,long,k,1,2.1551,8,0,32,3,1,,,,,
,0.35,,,,,,,,,f,blue,5fde82a1dd8cf15d19961474,2021-09-27_16h13.52.144,forced_choiceRT_color,2021.2.3,Win32,59.97361161,,,,,,,,1,Fast,long,f,1,1.8188,8,1,33,1,1,,,,,
,0.48,,,,,,,,,k,purple,5fde82a1dd8cf15d19961474,2021-09-27_16h13.52.144,forced_choiceRT_color,2021.2.3,Win32,59.97361161,,,,,,,,1,Ontime,long,k,1,1.9909,8,2,34,3,1,,,,,
,1.44,,,,,,,,,f,blue,5fde82a1dd8cf15d19961474,2021-09-27_16h13.52.144,forced_choiceRT_color,2021.2.3,Win32,59.97361161,,,,,,,,1,Slow,long,f,1,2.1569,8,3,35,1,1,,,,,
,0.48,,,,,,,,,j,red,5fde82a1dd8cf15d19961474,2021-09-27_16h13.52.144,forced_choiceRT_color,2021.2.3,Win32,59.97361161,,,,,,,,1,Ontime,long,j,1,2.0355,9,0,36,2,1,,,,,
,1.47,,,,,,,,,f,blue,5fde82a1dd8cf15d19961474,2021-09-27_16h13.52.144,forced_choiceRT_color,2021.2.3,Win32,59.97361161,,,,,,,,1,Slow,long,f,1,2.1174,9,1,37,1,1,,,,,
,1.92,,,,,,,,,f,blue,5fde82a1dd8cf15d19961474,2021-09-27_16h13.52.144,forced_choiceRT_color,2021.2.3,Win32,59.97361161,,,,,,,,1,Slow,long,d,0,2.2026,9,2,38,1,1,,,,,
,1.65,,,,,,,,,j,red,5fde82a1dd8cf15d19961474,2021-09-27_16h13.52.144,forced_choiceRT_color,2021.2.3,Win32,59.97361161,,,,,,,,1,Slow,long,j,1,2.1776,9,3,39,2,1,,,,,
,,,,,,,,,,,,5fde82a1dd8cf15d19961474,2021-09-27_16h13.52.144,forced_choiceRT_color,2021.2.3,Win32,59.97361161,,,,,,,,,,,,,,,,,,,0,0,0,0,1
,0.2,,,,,,,,,k,purple,5fde82a1dd8cf15d19961474,2021-09-27_16h13.52.144,forced_choiceRT_color,2021.2.3,Win32,59.97361161,,,,,,,,2,Slow,long,k,1,4.8895,0,0,0,3,1,,,,,
,1.78,,,,,,,,,k,purple,5fde82a1dd8cf15d19961474,2021-09-27_16h13.52.144,forced_choiceRT_color,2021.2.3,Win32,59.97361161,,,,,,,,2,Slow,long,k,1,2.1553,0,1,1,3,1,,,,,
,0.81,,,,,,,,,j,red,5fde82a1dd8cf15d19961474,2021-09-27_16h13.52.144,forced_choiceRT_color,2021.2.3,Win32,59.97361161,,,,,,,,2,Ontime,long,j,1,1.9511,0,2,2,2,1,,,,,
,1.81,,,,,,,,,j,red,5fde82a1dd8cf15d19961474,2021-09-27_16h13.52.144,forced_choiceRT_color,2021.2.3,Win32,59.97361161,,,,,,,,2,Slow,long,j,1,2.1812,0,3,3,2,1,,,,,
,0.69,,,,,,,,,d,orange,5fde82a1dd8cf15d19961474,2021-09-27_16h13.52.144,forced_choiceRT_color,2021.2.3,Win32,59.97361161,,,,,,,,2,Ontime,long,d,1,1.9287,1,0,4,0,1,,,,,
,0.09,,,,,,,,,j,red,5fde82a1dd8cf15d19961474,2021-09-27_16h13.52.144,forced_choiceRT_color,2021.2.3,Win32,59.97361161,,,,,,,,2,Ontime,long,j,1,1.9206,1,1,5,2,1,,,,,
,0.16,,,,,,,,,d,orange,5fde82a1dd8cf15d19961474,2021-09-27_16h13.52.144,forced_choiceRT_color,2021.2.3,Win32,59.97361161,,,,,,,,2,Fast,long,d,1,1.8265,1,2,6,0,1,,,,,
,0.49,,,,,,,,,k,purple,5fde82a1dd8cf15d19961474,2021-09-27_16h13.52.144,forced_choiceRT_color,2021.2.3,Win32,59.97361161,,,,,,,,2,Ontime,long,k,1,2.0417,1,3,7,3,1,,,,,
,0.64,,,,,,,,,d,orange,5fde82a1dd8cf15d19961474,2021-09-27_16h13.52.144,forced_choiceRT_color,2021.2.3,Win32,59.97361161,,,,,,,,2,Ontime,long,d,1,2.02,2,0,8,0,1,,,,,
,1.55,,,,,,,,,f,blue,5fde82a1dd8cf15d19961474,2021-09-27_16h13.52.144,forced_choiceRT_color,2021.2.3,Win32,59.97361161,,,,,,,,2,Fast,long,f,1,1.8976,2,1,9,1,1,,,,,
,0.09,,,,,,,,,j,red,5fde82a1dd8cf15d19961474,2021-09-27_16h13.52.144,forced_choiceRT_color,2021.2.3,Win32,59.97361161,,,,,,,,2,Ontime,long,j,1,1.9728,2,2,10,2,1,,,,,
,1.12,,,,,,,,,f,blue,5fde82a1dd8cf15d19961474,2021-09-27_16h13.52.144,forced_choiceRT_color,2021.2.3,Win32,59.97361161,,,,,,,,2,Ontime,long,f,1,1.9669,2,3,11,1,1,,,,,
,0.87,,,,,,,,,k,purple,5fde82a1dd8cf15d19961474,2021-09-27_16h13.52.144,forced_choiceRT_color,2021.2.3,Win32,59.97361161,,,,,,,,2,Slow,long,k,1,2.2531,3,0,12,3,1,,,,,
,1.76,,,,,,,,,j,red,5fde82a1dd8cf15d19961474,2021-09-27_16h13.52.144,forced_choiceRT_color,2021.2.3,Win32,59.97361161,,,,,,,,2,Slow,long,k,0,2.8082,3,1,13,2,1,,,,,
,1.03,,,,,,,,,d,orange,5fde82a1dd8cf15d19961474,2021-09-27_16h13.52.144,forced_choiceRT_color,2021.2.3,Win32,59.97361161,,,,,,,,2,Ontime,long,d,1,1.9721,3,2,14,0,1,,,,,
,0.86,,,,,,,,,j,red,5fde82a1dd8cf15d19961474,2021-09-27_16h13.52.144,forced_choiceRT_color,2021.2.3,Win32,59.97361161,,,,,,,,2,Fast,long,j,1,1.8911,3,3,15,2,1,,,,,
,0.3,,,,,,,,,d,orange,5fde82a1dd8cf15d19961474,2021-09-27_16h13.52.144,forced_choiceRT_color,2021.2.3,Win32,59.97361161,,,,,,,,2,Ontime,long,d,1,2.0649,4,0,16,0,1,,,,,
,1.7,,,,,,,,,f,blue,5fde82a1dd8cf15d19961474,2021-09-27_16h13.52.144,forced_choiceRT_color,2021.2.3,Win32,59.97361161,,,,,,,,2,Slow,long,f,1,2.1722,4,1,17,1,1,,,,,
,1.06,,,,,,,,,f,blue,5fde82a1dd8cf15d19961474,2021-09-27_16h13.52.144,forced_choiceRT_color,2021.2.3,Win32,59.97361161,,,,,,,,2,Ontime,long,f,1,1.9861,4,2,18,1,1,,,,,
,1.22,,,,,,,,,k,purple,5fde82a1dd8cf15d19961474,2021-09-27_16h13.52.144,forced_choiceRT_color,2021.2.3,Win32,59.97361161,,,,,,,,2,Slow,long,k,1,2.156,4,3,19,3,1,,,,,
,1.04,,,,,,,,,k,purple,5fde82a1dd8cf15d19961474,2021-09-27_16h13.52.144,forced_choiceRT_color,2021.2.3,Win32,59.97361161,,,,,,,,2,Fast,long,k,1,1.8241,5,0,20,3,1,,,,,
,0.88,,,,,,,,,f,blue,5fde82a1dd8cf15d19961474,2021-09-27_16h13.52.144,forced_choiceRT_color,2021.2.3,Win32,59.97361161,,,,,,,,2,Slow,long,j,0,2.222,5,1,21,1,1,,,,,
,1.67,,,,,,,,,f,blue,5fde82a1dd8cf15d19961474,2021-09-27_16h13.52.144,forced_choiceRT_color,2021.2.3,Win32,59.97361161,,,,,,,,2,Slow,long,f,1,2.3281,5,2,22,1,1,,,,,
,0.99,,,,,,,,,f,blue,5fde82a1dd8cf15d19961474,2021-09-27_16h13.52.144,forced_choiceRT_color,2021.2.3,Win32,59.97361161,,,,,,,,2,Ontime,long,f,1,2.0771,5,3,23,1,1,,,,,
,0.87,,,,,,,,,f,blue,5fde82a1dd8cf15d19961474,2021-09-27_16h13.52.144,forced_choiceRT_color,2021.2.3,Win32,59.97361161,,,,,,,,2,Slow,long,f,1,2.2307,6,0,24,1,1,,,,,
,0.28,,,,,,,,,f,blue,5fde82a1dd8cf15d19961474,2021-09-27_16h13.52.144,forced_choiceRT_color,2021.2.3,Win32,59.97361161,,,,,,,,2,Ontime,long,f,1,1.9559,6,1,25,1,1,,,,,
,0.28,,,,,,,,,d,orange,5fde82a1dd8cf15d19961474,2021-09-27_16h13.52.144,forced_choiceRT_color,2021.2.3,Win32,59.97361161,,,,,,,,2,Ontime,long,d,1,1.9832,6,2,26,0,1,,,,,
,1.8,,,,,,,,,j,red,5fde82a1dd8cf15d19961474,2021-09-27_16h13.52.144,forced_choiceRT_color,2021.2.3,Win32,59.97361161,,,,,,,,2,Slow,long,j,1,2.7337,6,3,27,2,1,,,,,
,0.9,,,,,,,,,k,purple,5fde82a1dd8cf15d19961474,2021-09-27_16h13.52.144,forced_choiceRT_color,2021.2.3,Win32,59.97361161,,,,,,,,2,Ontime,long,k,1,2.0883,7,0,28,3,1,,,,,
,1.93,,,,,,,,,d,orange,5fde82a1dd8cf15d19961474,2021-09-27_16h13.52.144,forced_choiceRT_color,2021.2.3,Win32,59.97361161,,,,,,,,2,Slow,long,j,0,2.3076,7,1,29,0,1,,,,,
,1.49,,,,,,,,,f,blue,5fde82a1dd8cf15d19961474,2021-09-27_16h13.52.144,forced_choiceRT_color,2021.2.3,Win32,59.97361161,,,,,,,,2,Ontime,long,f,1,2.0301,7,2,30,1,1,,,,,
,0,,,,,,,,,k,purple,5fde82a1dd8cf15d19961474,2021-09-27_16h13.52.144,forced_choiceRT_color,2021.2.3,Win32,59.97361161,,,,,,,,2,Ontime,long,k,1,1.9225,7,3,31,3,1,,,,,
,1.87,,,,,,,,,j,red,5fde82a1dd8cf15d19961474,2021-09-27_16h13.52.144,forced_choiceRT_color,2021.2.3,Win32,59.97361161,,,,,,,,2,Slow,long,k,0,2.2243,8,0,32,2,1,,,,,
,0.36,,,,,,,,,k,purple,5fde82a1dd8cf15d19961474,2021-09-27_16h13.52.144,forced_choiceRT_color,2021.2.3,Win32,59.97361161,,,,,,,,2,Ontime,long,k,1,2.0193,8,1,33,3,1,,,,,
,0.07,,,,,,,,,j,red,5fde82a1dd8cf15d19961474,2021-09-27_16h13.52.144,forced_choiceRT_color,2021.2.3,Win32,59.97361161,,,,,,,,2,Ontime,long,j,1,1.9017,8,2,34,2,1,,,,,
,1.23,,,,,,,,,j,red,5fde82a1dd8cf15d19961474,2021-09-27_16h13.52.144,forced_choiceRT_color,2021.2.3,Win32,59.97361161,,,,,,,,2,Slow,long,j,1,2.13,8,3,35,2,1,,,,,
,1.48,,,,,,,,,d,orange,5fde82a1dd8cf15d19961474,2021-09-27_16h13.52.144,forced_choiceRT_color,2021.2.3,Win32,59.97361161,,,,,,,,2,Slow,long,d,1,2.5264,9,0,36,0,1,,,,,
,1.58,,,,,,,,,k,purple,5fde82a1dd8cf15d19961474,2021-09-27_16h13.52.144,forced_choiceRT_color,2021.2.3,Win32,59.97361161,,,,,,,,2,Slow,long,k,1,2.1711,9,1,37,3,1,,,,,
,1.33,,,,,,,,,d,orange,5fde82a1dd8cf15d19961474,2021-09-27_16h13.52.144,forced_choiceRT_color,2021.2.3,Win32,59.97361161,,,,,,,,2,Slow,long,d,1,2.1122,9,2,38,0,1,,,,,
,0.37,,,,,,,,,d,orange,5fde82a1dd8cf15d19961474,2021-09-27_16h13.52.144,forced_choiceRT_color,2021.2.3,Win32,59.97361161,,,,,,,,2,Fast,long,d,1,1.8087,9,3,39,0,1,,,,,
,,,,,,,,,,,,5fde82a1dd8cf15d19961474,2021-09-27_16h13.52.144,forced_choiceRT_color,2021.2.3,Win32,59.97361161,,,,,,,,,,,,,,,,,,,1,0,1,0,1
,1.36,,,,,,,,,k,purple,5fde82a1dd8cf15d19961474,2021-09-27_16h13.52.144,forced_choiceRT_color,2021.2.3,Win32,59.97361161,,,,,,,,3,Slow,long,k,1,2.8007,0,0,0,3,1,,,,,
,0.54,,,,,,,,,j,red,5fde82a1dd8cf15d19961474,2021-09-27_16h13.52.144,forced_choiceRT_color,2021.2.3,Win32,59.97361161,,,,,,,,3,Fast,long,j,1,1.6724,0,1,1,2,1,,,,,
,0.78,,,,,,,,,f,blue,5fde82a1dd8cf15d19961474,2021-09-27_16h13.52.144,forced_choiceRT_color,2021.2.3,Win32,59.97361161,,,,,,,,3,Ontime,long,f,1,1.9366,0,2,2,1,1,,,,,
,1.84,,,,,,,,,j,red,5fde82a1dd8cf15d19961474,2021-09-27_16h13.52.144,forced_choiceRT_color,2021.2.3,Win32,59.97361161,,,,,,,,3,Slow,long,j,1,2.4275,0,3,3,2,1,,,,,
,1.74,,,,,,,,,j,red,5fde82a1dd8cf15d19961474,2021-09-27_16h13.52.144,forced_choiceRT_color,2021.2.3,Win32,59.97361161,,,,,,,,3,Ontime,long,j,1,2.0881,1,0,4,2,1,,,,,
,1.54,,,,,,,,,d,orange,5fde82a1dd8cf15d19961474,2021-09-27_16h13.52.144,forced_choiceRT_color,2021.2.3,Win32,59.97361161,,,,,,,,3,Ontime,long,d,1,2.0945,1,1,5,0,1,,,,,
,0.88,,,,,,,,,d,orange,5fde82a1dd8cf15d19961474,2021-09-27_16h13.52.144,forced_choiceRT_color,2021.2.3,Win32,59.97361161,,,,,,,,3,Fast,long,d,1,1.3475,1,2,6,0,1,,,,,
,1.91,,,,,,,,,k,purple,5fde82a1dd8cf15d19961474,2021-09-27_16h13.52.144,forced_choiceRT_color,2021.2.3,Win32,59.97361161,,,,,,,,3,Slow,long,k,1,2.5048,1,3,7,3,1,,,,,
,1.28,,,,,,,,,f,blue,5fde82a1dd8cf15d19961474,2021-09-27_16h13.52.144,forced_choiceRT_color,2021.2.3,Win32,59.97361161,,,,,,,,3,Slow,long,f,1,2.1094,2,0,8,1,1,,,,,
,1.89,,,,,,,,,d,orange,5fde82a1dd8cf15d19961474,2021-09-27_16h13.52.144,forced_choiceRT_color,2021.2.3,Win32,59.97361161,,,,,,,,3,Slow,long,f,0,2.3932,2,1,9,0,1,,,,,
,0.37,,,,,,,,,f,blue,5fde82a1dd8cf15d19961474,2021-09-27_16h13.52.144,forced_choiceRT_color,2021.2.3,Win32,59.97361161,,,,,,,,3,Ontime,long,f,1,2.0725,2,2,10,1,1,,,,,
,1.06,,,,,,,,,k,purple,5fde82a1dd8cf15d19961474,2021-09-27_16h13.52.144,forced_choiceRT_color,2021.2.3,Win32,59.97361161,,,,,,,,3,Ontime,long,k,1,2.0177,2,3,11,3,1,,,,,
,0.16,,,,,,,,,f,blue,5fde82a1dd8cf15d19961474,2021-09-27_16h13.52.144,forced_choiceRT_color,2021.2.3,Win32,59.97361161,,,,,,,,3,Ontime,long,f,1,2.0586,3,0,12,1,1,,,,,
,0.14,,,,,,,,,k,purple,5fde82a1dd8cf15d19961474,2021-09-27_16h13.52.144,forced_choiceRT_color,2021.2.3,Win32,59.97361161,,,,,,,,3,Ontime,long,k,1,2.0076,3,1,13,3,1,,,,,
,0.61,,,,,,,,,j,red,5fde82a1dd8cf15d19961474,2021-09-27_16h13.52.144,forced_choiceRT_color,2021.2.3,Win32,59.97361161,,,,,,,,3,Ontime,long,j,1,2.0957,3,2,14,2,1,,,,,
,1.23,,,,,,,,,f,blue,5fde82a1dd8cf15d19961474,2021-09-27_16h13.52.144,forced_choiceRT_color,2021.2.3,Win32,59.97361161,,,,,,,,3,Slow,long,f,1,2.1049,3,3,15,1,1,,,,,
,1.64,,,,,,,,,f,blue,5fde82a1dd8cf15d19961474,2021-09-27_16h13.52.144,forced_choiceRT_color,2021.2.3,Win32,59.97361161,,,,,,,,3,Ontime,long,f,1,2.0037,4,0,16,1,1,,,,,
,1.47,,,,,,,,,f,blue,5fde82a1dd8cf15d19961474,2021-09-27_16h13.52.144,forced_choiceRT_color,2021.2.3,Win32,59.97361161,,,,,,,,3,Slow,long,f,1,2.1984,4,1,17,1,1,,,,,
,0.27,,,,,,,,,d,orange,5fde82a1dd8cf15d19961474,2021-09-27_16h13.52.144,forced_choiceRT_color,2021.2.3,Win32,59.97361161,,,,,,,,3,Fast,long,d,1,1.8874,4,2,18,0,1,,,,,
,0.35,,,,,,,,,f,blue,5fde82a1dd8cf15d19961474,2021-09-27_16h13.52.144,forced_choiceRT_color,2021.2.3,Win32,59.97361161,,,,,,,,3,Ontime,long,f,1,1.958,4,3,19,1,1,,,,,
,0.8,,,,,,,,,d,orange,5fde82a1dd8cf15d19961474,2021-09-27_16h13.52.144,forced_choiceRT_color,2021.2.3,Win32,59.97361161,,,,,,,,3,Ontime,long,d,1,1.9402,5,0,20,0,1,,,,,
,0.18,,,,,,,,,k,purple,5fde82a1dd8cf15d19961474,2021-09-27_16h13.52.144,forced_choiceRT_color,2021.2.3,Win32,59.97361161,,,,,,,,3,Ontime,long,k,1,2.0366,5,1,21,3,1,,,,,
,1.87,,,,,,,,,f,blue,5fde82a1dd8cf15d19961474,2021-09-27_16h13.52.144,forced_choiceRT_color,2021.2.3,Win32,59.97361161,,,,,,,,3,Slow,long,f,1,2.3946,5,2,22,1,1,,,,,
,0.55,,,,,,,,,j,red,5fde82a1dd8cf15d19961474,2021-09-27_16h13.52.144,forced_choiceRT_color,2021.2.3,Win32,59.97361161,,,,,,,,3,Slow,long,j,1,2.1137,5,3,23,2,1,,,,,
,1.72,,,,,,,,,j,red,5fde82a1dd8cf15d19961474,2021-09-27_16h13.52.144,forced_choiceRT_color,2021.2.3,Win32,59.97361161,,,,,,,,3,Ontime,long,j,1,2.0707,6,0,24,2,1,,,,,
,0.49,,,,,,,,,k,purple,5fde82a1dd8cf15d19961474,2021-09-27_16h13.52.144,forced_choiceRT_color,2021.2.3,Win32,59.97361161,,,,,,,,3,Ontime,long,k,1,2.041,6,1,25,3,1,,,,,
,1.49,,,,,,,,,j,red,5fde82a1dd8cf15d19961474,2021-09-27_16h13.52.144,forced_choiceRT_color,2021.2.3,Win32,59.97361161,,,,,,,,3,Slow,long,j,1,2.1415,6,2,26,2,1,,,,,
,0.81,,,,,,,,,d,orange,5fde82a1dd8cf15d19961474,2021-09-27_16h13.52.144,forced_choiceRT_color,2021.2.3,Win32,59.97361161,,,,,,,,3,Ontime,long,d,1,2.0249,6,3,27,0,1,,,,,
,0.69,,,,,,,,,f,blue,5fde82a1dd8cf15d19961474,2021-09-27_16h13.52.144,forced_choiceRT_color,2021.2.3,Win32,59.97361161,,,,,,,,3,Slow,long,j,0,2.1686,7,0,28,1,1,,,,,
,0.21,,,,,,,,,d,orange,5fde82a1dd8cf15d19961474,2021-09-27_16h13.52.144,forced_choiceRT_color,2021.2.3,Win32,59.97361161,,,,,,,,3,Fast,long,d,1,0.9434,7,1,29,0,1,,,,,
,1.81,,,,,,,,,k,purple,5fde82a1dd8cf15d19961474,2021-09-27_16h13.52.144,forced_choiceRT_color,2021.2.3,Win32,59.97361161,,,,,,,,3,Slow,long,k,1,2.7194,7,2,30,3,1,,,,,
,0.86,,,,,,,,,j,red,5fde82a1dd8cf15d19961474,2021-09-27_16h13.52.144,forced_choiceRT_color,2021.2.3,Win32,59.97361161,,,,,,,,3,Ontime,long,j,1,2.0392,7,3,31,2,1,,,,,
,1.14,,,,,,,,,k,purple,5fde82a1dd8cf15d19961474,2021-09-27_16h13.52.144,forced_choiceRT_color,2021.2.3,Win32,59.97361161,,,,,,,,3,Slow,long,k,1,2.1913,8,0,32,3,1,,,,,
,0.56,,,,,,,,,d,orange,5fde82a1dd8cf15d19961474,2021-09-27_16h13.52.144,forced_choiceRT_color,2021.2.3,Win32,59.97361161,,,,,,,,3,Ontime,long,j,0,2.0464,8,1,33,0,1,,,,,
,1.84,,,,,,,,,d,orange,5fde82a1dd8cf15d19961474,2021-09-27_16h13.52.144,forced_choiceRT_color,2021.2.3,Win32,59.97361161,,,,,,,,3,Slow,long,j,0,2.1771,8,2,34,0,1,,,,,
,0.96,,,,,,,,,d,orange,5fde82a1dd8cf15d19961474,2021-09-27_16h13.52.144,forced_choiceRT_color,2021.2.3,Win32,59.97361161,,,,,,,,3,Ontime,long,j,0,2.0544,8,3,35,0,1,,,,,
,0.36,,,,,,,,,k,purple,5fde82a1dd8cf15d19961474,2021-09-27_16h13.52.144,forced_choiceRT_color,2021.2.3,Win32,59.97361161,,,,,,,,3,Slow,long,k,1,2.103,9,0,36,3,1,,,,,
,0.51,,,,,,,,,j,red,5fde82a1dd8cf15d19961474,2021-09-27_16h13.52.144,forced_choiceRT_color,2021.2.3,Win32,59.97361161,,,,,,,,3,Ontime,long,j,1,2.0561,9,1,37,2,1,,,,,
,1.41,,,,,,,,,k,purple,5fde82a1dd8cf15d19961474,2021-09-27_16h13.52.144,forced_choiceRT_color,2021.2.3,Win32,59.97361161,,,,,,,,3,Slow,long,j,0,2.2318,9,2,38,3,1,,,,,
,0.65,,,,,,,,,j,red,5fde82a1dd8cf15d19961474,2021-09-27_16h13.52.144,forced_choiceRT_color,2021.2.3,Win32,59.97361161,,,,,,,,3,Slow,long,j,1,2.1117,9,3,39,2,1,,,,,
,,,,,,,,,,,,5fde82a1dd8cf15d19961474,2021-09-27_16h13.52.144,forced_choiceRT_color,2021.2.3,Win32,59.97361161,,,,,,,,,,,,,,,,,,,2,0,2,0,1
,1.49,,,,,,,,,k,purple,5fde82a1dd8cf15d19961474,2021-09-27_16h13.52.144,forced_choiceRT_color,2021.2.3,Win32,59.97361161,,,,,,,,4,Slow,long,k,1,2.2696,0,0,0,3,1,,,,,
,1.68,,,,,,,,,f,blue,5fde82a1dd8cf15d19961474,2021-09-27_16h13.52.144,forced_choiceRT_color,2021.2.3,Win32,59.97361161,,,,,,,,4,Slow,long,f,1,2.3734,0,1,1,1,1,,,,,
,0.52,,,,,,,,,k,purple,5fde82a1dd8cf15d19961474,2021-09-27_16h13.52.144,forced_choiceRT_color,2021.2.3,Win32,59.97361161,,,,,,,,4,Ontime,long,k,1,2.0145,0,2,2,3,1,,,,,
,0.56,,,,,,,,,j,red,5fde82a1dd8cf15d19961474,2021-09-27_16h13.52.144,forced_choiceRT_color,2021.2.3,Win32,59.97361161,,,,,,,,4,Ontime,long,j,1,2.0909,0,3,3,2,1,,,,,
,1.31,,,,,,,,,f,blue,5fde82a1dd8cf15d19961474,2021-09-27_16h13.52.144,forced_choiceRT_color,2021.2.3,Win32,59.97361161,,,,,,,,4,Ontime,long,f,1,2.0119,1,0,4,1,1,,,,,
,0.52,,,,,,,,,j,red,5fde82a1dd8cf15d19961474,2021-09-27_16h13.52.144,forced_choiceRT_color,2021.2.3,Win32,59.97361161,,,,,,,,4,Ontime,long,j,1,2.0237,1,1,5,2,1,,,,,
,1.48,,,,,,,,,f,blue,5fde82a1dd8cf15d19961474,2021-09-27_16h13.52.144,forced_choiceRT_color,2021.2.3,Win32,59.97361161,,,,,,,,4,Slow,long,f,1,2.1391,1,2,6,1,1,,,,,
,1.38,,,,,,,,,k,purple,5fde82a1dd8cf15d19961474,2021-09-27_16h13.52.144,forced_choiceRT_color,2021.2.3,Win32,59.97361161,,,,,,,,4,Slow,long,k,1,2.1317,1,3,7,3,1,,,,,
,1.12,,,,,,,,,j,red,5fde82a1dd8cf15d19961474,2021-09-27_16h13.52.144,forced_choiceRT_color,2021.2.3,Win32,59.97361161,,,,,,,,4,Slow,long,j,1,2.2322,2,0,8,2,1,,,,,
,0.98,,,,,,,,,d,orange,5fde82a1dd8cf15d19961474,2021-09-27_16h13.52.144,forced_choiceRT_color,2021.2.3,Win32,59.97361161,,,,,,,,4,Ontime,long,d,1,1.991,2,1,9,0,1,,,,,
,0.84,,,,,,,,,f,blue,5fde82a1dd8cf15d19961474,2021-09-27_16h13.52.144,forced_choiceRT_color,2021.2.3,Win32,59.97361161,,,,,,,,4,Ontime,long,f,1,1.9483,2,2,10,1,1,,,,,
,1.32,,,,,,,,,j,red,5fde82a1dd8cf15d19961474,2021-09-27_16h13.52.144,forced_choiceRT_color,2021.2.3,Win32,59.97361161,,,,,,,,4,Ontime,long,j,1,2.0444,2,3,11,2,1,,,,,
,0.38,,,,,,,,,k,purple,5fde82a1dd8cf15d19961474,2021-09-27_16h13.52.144,forced_choiceRT_color,2021.2.3,Win32,59.97361161,,,,,,,,4,Ontime,long,k,1,1.937,3,0,12,3,1,,,,,
,1.05,,,,,,,,,d,orange,5fde82a1dd8cf15d19961474,2021-09-27_16h13.52.144,forced_choiceRT_color,2021.2.3,Win32,59.97361161,,,,,,,,4,Ontime,long,d,1,2.0613,3,1,13,0,1,,,,,
,1.7,,,,,,,,,d,orange,5fde82a1dd8cf15d19961474,2021-09-27_16h13.52.144,forced_choiceRT_color,2021.2.3,Win32,59.97361161,,,,,,,,4,Slow,long,d,1,2.1717,3,2,14,0,1,,,,,
,0.85,,,,,,,,,d,orange,5fde82a1dd8cf15d19961474,2021-09-27_16h13.52.144,forced_choiceRT_color,2021.2.3,Win32,59.97361161,,,,,,,,4,Ontime,long,d,1,1.9968,3,3,15,0,1,,,,,
,0.4,,,,,,,,,k,purple,5fde82a1dd8cf15d19961474,2021-09-27_16h13.52.144,forced_choiceRT_color,2021.2.3,Win32,59.97361161,,,,,,,,4,Ontime,long,k,1,1.9944,4,0,16,3,1,,,,,
,0.52,,,,,,,,,k,purple,5fde82a1dd8cf15d19961474,2021-09-27_16h13.52.144,forced_choiceRT_color,2021.2.3,Win32,59.97361161,,,,,,,,4,Ontime,long,k,1,2.0555,4,1,17,3,1,,,,,
,1.94,,,,,,,,,k,purple,5fde82a1dd8cf15d19961474,2021-09-27_16h13.52.144,forced_choiceRT_color,2021.2.3,Win32,59.97361161,,,,,,,,4,Slow,long,k,1,2.4363,4,2,18,3,1,,,,,
,1.15,,,,,,,,,k,purple,5fde82a1dd8cf15d19961474,2021-09-27_16h13.52.144,forced_choiceRT_color,2021.2.3,Win32,59.97361161,,,,,,,,4,Ontime,long,k,1,2.0923,4,3,19,3,1,,,,,
,1.76,,,,,,,,,d,orange,5fde82a1dd8cf15d19961474,2021-09-27_16h13.52.144,forced_choiceRT_color,2021.2.3,Win32,59.97361161,,,,,,,,4,Slow,long,d,1,2.1714,5,0,20,0,1,,,,,
,1.73,,,,,,,,,d,orange,5fde82a1dd8cf15d19961474,2021-09-27_16h13.52.144,forced_choiceRT_color,2021.2.3,Win32,59.97361161,,,,,,,,4,Slow,long,d,1,2.1137,5,1,21,0,1,,,,,
,1.97,,,,,,,,,f,blue,5fde82a1dd8cf15d19961474,2021-09-27_16h13.52.144,forced_choiceRT_color,2021.2.3,Win32,59.97361161,,,,,,,,4,Slow,long,d,0,2.2359,5,2,22,1,1,,,,,
,0.51,,,,,,,,,d,orange,5fde82a1dd8cf15d19961474,2021-09-27_16h13.52.144,forced_choiceRT_color,2021.2.3,Win32,59.97361161,,,,,,,,4,Ontime,long,d,1,1.9643,5,3,23,0,1,,,,,
,1.11,,,,,,,,,k,purple,5fde82a1dd8cf15d19961474,2021-09-27_16h13.52.144,forced_choiceRT_color,2021.2.3,Win32,59.97361161,,,,,,,,4,Slow,long,k,1,2.1194,6,0,24,3,1,,,,,
,1.03,,,,,,,,,j,red,5fde82a1dd8cf15d19961474,2021-09-27_16h13.52.144,forced_choiceRT_color,2021.2.3,Win32,59.97361161,,,,,,,,4,Ontime,long,j,1,2.0657,6,1,25,2,1,,,,,
,0.45,,,,,,,,,d,orange,5fde82a1dd8cf15d19961474,2021-09-27_16h13.52.144,forced_choiceRT_color,2021.2.3,Win32,59.97361161,,,,,,,,4,Ontime,long,d,1,2.0032,6,2,26,0,1,,,,,
,1.68,,,,,,,,,j,red,5fde82a1dd8cf15d19961474,2021-09-27_16h13.52.144,forced_choiceRT_color,2021.2.3,Win32,59.97361161,,,,,,,,4,Slow,long,k,0,2.1454,6,3,27,2,1,,,,,
,0.08,,,,,,,,,k,purple,5fde82a1dd8cf15d19961474,2021-09-27_16h13.52.144,forced_choiceRT_color,2021.2.3,Win32,59.97361161,,,,,,,,4,Ontime,long,k,1,1.9626,7,0,28,3,1,,,,,
,1.6,,,,,,,,,d,orange,5fde82a1dd8cf15d19961474,2021-09-27_16h13.52.144,forced_choiceRT_color,2021.2.3,Win32,59.97361161,,,,,,,,4,Slow,long,f,0,2.6229,7,1,29,0,1,,,,,
,1.07,,,,,,,,,f,blue,5fde82a1dd8cf15d19961474,2021-09-27_16h13.52.144,forced_choiceRT_color,2021.2.3,Win32,59.97361161,,,,,,,,4,Ontime,long,f,1,2.0606,7,2,30,1,1,,,,,
,0.41,,,,,,,,,j,red,5fde82a1dd8cf15d19961474,2021-09-27_16h13.52.144,forced_choiceRT_color,2021.2.3,Win32,59.97361161,,,,,,,,4,Slow,long,j,1,2.1568,7,3,31,2,1,,,,,
,0.89,,,,,,,,,f,blue,5fde82a1dd8cf15d19961474,2021-09-27_16h13.52.144,forced_choiceRT_color,2021.2.3,Win32,59.97361161,,,,,,,,4,Slow,long,f,1,2.107,8,0,32,1,1,,,,,
,1.96,,,,,,,,,f,blue,5fde82a1dd8cf15d19961474,2021-09-27_16h13.52.144,forced_choiceRT_color,2021.2.3,Win32,59.97361161,,,,,,,,4,Slow,long,f,1,2.341,8,1,33,1,1,,,,,
,1.01,,,,,,,,,d,orange,5fde82a1dd8cf15d19961474,2021-09-27_16h13.52.144,forced_choiceRT_color,2021.2.3,Win32,59.97361161,,,,,,,,4,Ontime,long,d,1,2.0383,8,2,34,0,1,,,,,
,1.89,,,,,,,,,j,red,5fde82a1dd8cf15d19961474,2021-09-27_16h13.52.144,forced_choiceRT_color,2021.2.3,Win32,59.97361161,,,,,,,,4,Slow,long,j,1,2.3527,8,3,35,2,1,,,,,
,1.58,,,,,,,,,f,blue,5fde82a1dd8cf15d19961474,2021-09-27_16h13.52.144,forced_choiceRT_color,2021.2.3,Win32,59.97361161,,,,,,,,4,Slow,long,j,0,2.3389,9,0,36,1,1,,,,,
,1.84,,,,,,,,,f,blue,5fde82a1dd8cf15d19961474,2021-09-27_16h13.52.144,forced_choiceRT_color,2021.2.3,Win32,59.97361161,,,,,,,,4,Slow,long,f,1,2.228,9,1,37,1,1,,,,,
,1.96,,,,,,,,,j,red,5fde82a1dd8cf15d19961474,2021-09-27_16h13.52.144,forced_choiceRT_color,2021.2.3,Win32,59.97361161,,,,,,,,4,Slow,long,j,1,2.4824,9,2,38,2,1,,,,,
,1.43,,,,,,,,,j,red,5fde82a1dd8cf15d19961474,2021-09-27_16h13.52.144,forced_choiceRT_color,2021.2.3,Win32,59.97361161,,,,,,,,4,Slow,long,j,1,2.1132,9,3,39,2,1,,,,,
,,,,,,,,,,,,5fde82a1dd8cf15d19961474,2021-09-27_16h13.52.144,forced_choiceRT_color,2021.2.3,Win32,59.97361161,,,,,,,,,,,,,,,,,,,3,0,3,0,1
,1.77,,,,,,,,,d,orange,5fde82a1dd8cf15d19961474,2021-09-27_16h13.52.144,forced_choiceRT_color,2021.2.3,Win32,59.97361161,,,,,,,,5,Slow,long,f,0,2.3569,0,0,0,0,1,,,,,
,1.65,,,,,,,,,f,blue,5fde82a1dd8cf15d19961474,2021-09-27_16h13.52.144,forced_choiceRT_color,2021.2.3,Win32,59.97361161,,,,,,,,5,Ontime,long,j,0,2.0356,0,1,1,1,1,,,,,
,0.45,,,,,,,,,j,red,5fde82a1dd8cf15d19961474,2021-09-27_16h13.52.144,forced_choiceRT_color,2021.2.3,Win32,59.97361161,,,,,,,,5,Ontime,long,j,1,2.0703,0,2,2,2,1,,,,,
,0.38,,,,,,,,,j,red,5fde82a1dd8cf15d19961474,2021-09-27_16h13.52.144,forced_choiceRT_color,2021.2.3,Win32,59.97361161,,,,,,,,5,Ontime,long,j,1,1.9891,0,3,3,2,1,,,,,
,0.55,,,,,,,,,d,orange,5fde82a1dd8cf15d19961474,2021-09-27_16h13.52.144,forced_choiceRT_color,2021.2.3,Win32,59.97361161,,,,,,,,5,Ontime,long,d,1,2.037,1,0,4,0,1,,,,,
,1.54,,,,,,,,,d,orange,5fde82a1dd8cf15d19961474,2021-09-27_16h13.52.144,forced_choiceRT_color,2021.2.3,Win32,59.97361161,,,,,,,,5,Fast,long,d,1,1.8736,1,1,5,0,1,,,,,
,1.88,,,,,,,,,j,red,5fde82a1dd8cf15d19961474,2021-09-27_16h13.52.144,forced_choiceRT_color,2021.2.3,Win32,59.97361161,,,,,,,,5,Slow,long,f,0,2.3122,1,2,6,2,1,,,,,
,0.21,,,,,,,,,d,orange,5fde82a1dd8cf15d19961474,2021-09-27_16h13.52.144,forced_choiceRT_color,2021.2.3,Win32,59.97361161,,,,,,,,5,Ontime,long,d,1,2.0246,1,3,7,0,1,,,,,
,0.55,,,,,,,,,k,purple,5fde82a1dd8cf15d19961474,2021-09-27_16h13.52.144,forced_choiceRT_color,2021.2.3,Win32,59.97361161,,,,,,,,5,Slow,long,k,1,2.1106,2,0,8,3,1,,,,,
,0.46,,,,,,,,,j,red,5fde82a1dd8cf15d19961474,2021-09-27_16h13.52.144,forced_choiceRT_color,2021.2.3,Win32,59.97361161,,,,,,,,5,Ontime,long,j,1,2.0299,2,1,9,2,1,,,,,
,0.94,,,,,,,,,d,orange,5fde82a1dd8cf15d19961474,2021-09-27_16h13.52.144,forced_choiceRT_color,2021.2.3,Win32,59.97361161,,,,,,,,5,Slow,long,f,0,2.2033,2,2,10,0,1,,,,,
,0.74,,,,,,,,,f,blue,5fde82a1dd8cf15d19961474,2021-09-27_16h13.52.144,forced_choiceRT_color,2021.2.3,Win32,59.97361161,,,,,,,,5,Ontime,long,f,1,1.9945,2,3,11,1,1,,,,,
,0.2,,,,,,,,,k,purple,5fde82a1dd8cf15d19961474,2021-09-27_16h13.52.144,forced_choiceRT_color,2021.2.3,Win32,59.97361161,,,,,,,,5,Fast,long,k,1,1.7371,3,0,12,3,1,,,,,
,0.64,,,,,,,,,f,blue,5fde82a1dd8cf15d19961474,2021-09-27_16h13.52.144,forced_choiceRT_color,2021.2.3,Win32,59.97361161,,,,,,,,5,Fast,long,j,0,1.7896,3,1,13,1,1,,,,,
,0.47,,,,,,,,,d,orange,5fde82a1dd8cf15d19961474,2021-09-27_16h13.52.144,forced_choiceRT_color,2021.2.3,Win32,59.97361161,,,,,,,,5,Ontime,long,d,1,1.9572,3,2,14,0,1,,,,,
,1.32,,,,,,,,,j,red,5fde82a1dd8cf15d19961474,2021-09-27_16h13.52.144,forced_choiceRT_color,2021.2.3,Win32,59.97361161,,,,,,,,5,Slow,long,j,1,2.1826,3,3,15,2,1,,,,,
,1.15,,,,,,,,,k,purple,5fde82a1dd8cf15d19961474,2021-09-27_16h13.52.144,forced_choiceRT_color,2021.2.3,Win32,59.97361161,,,,,,,,5,Fast,long,k,1,1.8648,4,0,16,3,1,,,,,
,1.76,,,,,,,,,k,purple,5fde82a1dd8cf15d19961474,2021-09-27_16h13.52.144,forced_choiceRT_color,2021.2.3,Win32,59.97361161,,,,,,,,5,Slow,long,k,1,2.2072,4,1,17,3,1,,,,,
,1.56,,,,,,,,,k,purple,5fde82a1dd8cf15d19961474,2021-09-27_16h13.52.144,forced_choiceRT_color,2021.2.3,Win32,59.97361161,,,,,,,,5,Slow,long,k,1,2.1285,4,2,18,3,1,,,,,
,1.38,,,,,,,,,j,red,5fde82a1dd8cf15d19961474,2021-09-27_16h13.52.144,forced_choiceRT_color,2021.2.3,Win32,59.97361161,,,,,,,,5,Ontime,long,j,1,1.992,4,3,19,2,1,,,,,
,1.54,,,,,,,,,j,red,5fde82a1dd8cf15d19961474,2021-09-27_16h13.52.144,forced_choiceRT_color,2021.2.3,Win32,59.97361161,,,,,,,,5,Fast,long,j,1,1.8964,5,0,20,2,1,,,,,
,0.01,,,,,,,,,f,blue,5fde82a1dd8cf15d19961474,2021-09-27_16h13.52.144,forced_choiceRT_color,2021.2.3,Win32,59.97361161,,,,,,,,5,Ontime,long,f,1,1.9869,5,1,21,1,1,,,,,
,0.92,,,,,,,,,k,purple,5fde82a1dd8cf15d19961474,2021-09-27_16h13.52.144,forced_choiceRT_color,2021.2.3,Win32,59.97361161,,,,,,,,5,Slow,long,k,1,2.4064,5,2,22,3,1,,,,,
,0.99,,,,,,,,,d,orange,5fde82a1dd8cf15d19961474,2021-09-27_16h13.52.144,forced_choiceRT_color,2021.2.3,Win32,59.97361161,,,,,,,,5,Ontime,long,d,1,2.0473,5,3,23,0,1,,,,,
,0.71,,,,,,,,,d,orange,5fde82a1dd8cf15d19961474,2021-09-27_16h13.52.144,forced_choiceRT_color,2021.2.3,Win32,59.97361161,,,,,,,,5,Ontime,long,d,1,2.057,6,0,24,0,1,,,,,
,1.82,,,,,,,,,f,blue,5fde82a1dd8cf15d19961474,2021-09-27_16h13.52.144,forced_choiceRT_color,2021.2.3,Win32,59.97361161,,,,,,,,5,Slow,long,k,0,2.2141,6,1,25,1,1,,,,,
,1.71,,,,,,,,,k,purple,5fde82a1dd8cf15d19961474,2021-09-27_16h13.52.144,forced_choiceRT_color,2021.2.3,Win32,59.97361161,,,,,,,,5,Slow,long,k,1,2.3504,6,2,26,3,1,,,,,
,0.97,,,,,,,,,j,red,5fde82a1dd8cf15d19961474,2021-09-27_16h13.52.144,forced_choiceRT_color,2021.2.3,Win32,59.97361161,,,,,,,,5,Ontime,long,j,1,2.0565,6,3,27,2,1,,,,,
,0.53,,,,,,,,,j,red,5fde82a1dd8cf15d19961474,2021-09-27_16h13.52.144,forced_choiceRT_color,2021.2.3,Win32,59.97361161,,,,,,,,5,Slow,long,j,1,2.1253,7,0,28,2,1,,,,,
,1.04,,,,,,,,,k,purple,5fde82a1dd8cf15d19961474,2021-09-27_16h13.52.144,forced_choiceRT_color,2021.2.3,Win32,59.97361161,,,,,,,,5,Ontime,long,k,1,2.0264,7,1,29,3,1,,,,,
,1.13,,,,,,,,,k,purple,5fde82a1dd8cf15d19961474,2021-09-27_16h13.52.144,forced_choiceRT_color,2021.2.3,Win32,59.97361161,,,,,,,,5,Ontime,long,k,1,2.0629,7,2,30,3,1,,,,,
,0.81,,,,,,,,,f,blue,5fde82a1dd8cf15d19961474,2021-09-27_16h13.52.144,forced_choiceRT_color,2021.2.3,Win32,59.97361161,,,,,,,,5,Ontime,long,f,1,2.007,7,3,31,1,1,,,,,
,0.77,,,,,,,,,d,orange,5fde82a1dd8cf15d19961474,2021-09-27_16h13.52.144,forced_choiceRT_color,2021.2.3,Win32,59.97361161,,,,,,,,5,Slow,long,d,1,2.1589,8,0,32,0,1,,,,,
,1.17,,,,,,,,,d,orange,5fde82a1dd8cf15d19961474,2021-09-27_16h13.52.144,forced_choiceRT_color,2021.2.3,Win32,59.97361161,,,,,,,,5,Ontime,long,d,1,2.0758,8,1,33,0,1,,,,,
,0.03,,,,,,,,,f,blue,5fde82a1dd8cf15d19961474,2021-09-27_16h13.52.144,forced_choiceRT_color,2021.2.3,Win32,59.97361161,,,,,,,,5,Fast,long,f,1,1.7072,8,2,34,1,1,,,,,
,0.12,,,,,,,,,f,blue,5fde82a1dd8cf15d19961474,2021-09-27_16h13.52.144,forced_choiceRT_color,2021.2.3,Win32,59.97361161,,,,,,,,5,Ontime,long,f,1,1.9302,8,3,35,1,1,,,,,
,1.7,,,,,,,,,f,blue,5fde82a1dd8cf15d19961474,2021-09-27_16h13.52.144,forced_choiceRT_color,2021.2.3,Win32,59.97361161,,,,,,,,5,Slow,long,f,1,2.3016,9,0,36,1,1,,,,,
,1.87,,,,,,,,,f,blue,5fde82a1dd8cf15d19961474,2021-09-27_16h13.52.144,forced_choiceRT_color,2021.2.3,Win32,59.97361161,,,,,,,,5,Slow,long,f,1,2.2907,9,1,37,1,1,,,,,
,1.11,,,,,,,,,j,red,5fde82a1dd8cf15d19961474,2021-09-27_16h13.52.144,forced_choiceRT_color,2021.2.3,Win32,59.97361161,,,,,,,,5,Ontime,long,j,1,2.0113,9,2,38,2,1,,,,,
,0.72,,,,,,,,,k,purple,5fde82a1dd8cf15d19961474,2021-09-27_16h13.52.144,forced_choiceRT_color,2021.2.3,Win32,59.97361161,,,,,,,,5,Ontime,long,k,1,1.9046,9,3,39,3,1,,,,,
,,,,,,,,,,,,5fde82a1dd8cf15d19961474,2021-09-27_16h13.52.144,forced_choiceRT_color,2021.2.3,Win32,59.97361161,,,,,,,,,,,,,,,,,,,4,0,4,0,1
,0.61,,,,,,,,,d,orange,5fde82a1dd8cf15d19961474,2021-09-27_16h13.52.144,forced_choiceRT_color,2021.2.3,Win32,59.97361161,,,,,,,,6,Ontime,long,d,1,2.0832,0,0,0,0,1,,,,,
,1.11,,,,,,,,,f,blue,5fde82a1dd8cf15d19961474,2021-09-27_16h13.52.144,forced_choiceRT_color,2021.2.3,Win32,59.97361161,,,,,,,,6,Ontime,long,f,1,2.0215,0,1,1,1,1,,,,,
,1.39,,,,,,,,,j,red,5fde82a1dd8cf15d19961474,2021-09-27_16h13.52.144,forced_choiceRT_color,2021.2.3,Win32,59.97361161,,,,,,,,6,Ontime,long,j,1,1.9876,0,2,2,2,1,,,,,
,1.55,,,,,,,,,d,orange,5fde82a1dd8cf15d19961474,2021-09-27_16h13.52.144,forced_choiceRT_color,2021.2.3,Win32,59.97361161,,,,,,,,6,Slow,long,d,1,2.1525,0,3,3,0,1,,,,,
,0.17,,,,,,,,,d,orange,5fde82a1dd8cf15d19961474,2021-09-27_16h13.52.144,forced_choiceRT_color,2021.2.3,Win32,59.97361161,,,,,,,,6,Slow,long,d,1,2.246,1,0,4,0,1,,,,,
,0.02,,,,,,,,,k,purple,5fde82a1dd8cf15d19961474,2021-09-27_16h13.52.144,forced_choiceRT_color,2021.2.3,Win32,59.97361161,,,,,,,,6,Fast,long,j,0,1.7914,1,1,5,3,1,,,,,
,1.92,,,,,,,,,j,red,5fde82a1dd8cf15d19961474,2021-09-27_16h13.52.144,forced_choiceRT_color,2021.2.3,Win32,59.97361161,,,,,,,,6,Slow,long,j,1,2.5969,1,2,6,2,1,,,,,
,0.03,,,,,,,,,d,orange,5fde82a1dd8cf15d19961474,2021-09-27_16h13.52.144,forced_choiceRT_color,2021.2.3,Win32,59.97361161,,,,,,,,6,Ontime,long,d,1,2.0147,1,3,7,0,1,,,,,
,1.94,,,,,,,,,d,orange,5fde82a1dd8cf15d19961474,2021-09-27_16h13.52.144,forced_choiceRT_color,2021.2.3,Win32,59.97361161,,,,,,,,6,Slow,long,d,1,2.4611,2,0,8,0,1,,,,,
,1.91,,,,,,,,,f,blue,5fde82a1dd8cf15d19961474,2021-09-27_16h13.52.144,forced_choiceRT_color,2021.2.3,Win32,59.97361161,,,,,,,,6,Slow,long,j,0,2.3316,2,1,9,1,1,,,,,
,0.53,,,,,,,,,f,blue,5fde82a1dd8cf15d19961474,2021-09-27_16h13.52.144,forced_choiceRT_color,2021.2.3,Win32,59.97361161,,,,,,,,6,Ontime,long,f,1,2.07,2,2,10,1,1,,,,,
,0.35,,,,,,,,,j,red,5fde82a1dd8cf15d19961474,2021-09-27_16h13.52.144,forced_choiceRT_color,2021.2.3,Win32,59.97361161,,,,,,,,6,Ontime,long,j,1,2.057,2,3,11,2,1,,,,,
,0.34,,,,,,,,,j,red,5fde82a1dd8cf15d19961474,2021-09-27_16h13.52.144,forced_choiceRT_color,2021.2.3,Win32,59.97361161,,,,,,,,6,Ontime,long,j,1,2.0177,3,0,12,2,1,,,,,
,0.57,,,,,,,,,f,blue,5fde82a1dd8cf15d19961474,2021-09-27_16h13.52.144,forced_choiceRT_color,2021.2.3,Win32,59.97361161,,,,,,,,6,Ontime,long,f,1,2.0815,3,1,13,1,1,,,,,
,1.04,,,,,,,,,k,purple,5fde82a1dd8cf15d19961474,2021-09-27_16h13.52.144,forced_choiceRT_color,2021.2.3,Win32,59.97361161,,,,,,,,6,Ontime,long,k,1,2.0889,3,2,14,3,1,,,,,
,0.03,,,,,,,,,k,purple,5fde82a1dd8cf15d19961474,2021-09-27_16h13.52.144,forced_choiceRT_color,2021.2.3,Win32,59.97361161,,,,,,,,6,Ontime,long,k,1,2.0299,3,3,15,3,1,,,,,
,1.92,,,,,,,,,f,blue,5fde82a1dd8cf15d19961474,2021-09-27_16h13.52.144,forced_choiceRT_color,2021.2.3,Win32,59.97361161,,,,,,,,6,Slow,long,j,0,2.2911,4,0,16,1,1,,,,,
,0.06,,,,,,,,,f,blue,5fde82a1dd8cf15d19961474,2021-09-27_16h13.52.144,forced_choiceRT_color,2021.2.3,Win32,59.97361161,,,,,,,,6,Fast,long,f,1,1.6969,4,1,17,1,1,,,,,
,1.41,,,,,,,,,j,red,5fde82a1dd8cf15d19961474,2021-09-27_16h13.52.144,forced_choiceRT_color,2021.2.3,Win32,59.97361161,,,,,,,,6,Ontime,long,j,1,2.0513,4,2,18,2,1,,,,,
,1.98,,,,,,,,,f,blue,5fde82a1dd8cf15d19961474,2021-09-27_16h13.52.144,forced_choiceRT_color,2021.2.3,Win32,59.97361161,,,,,,,,6,Slow,long,j,0,2.1937,4,3,19,1,1,,,,,
,0.16,,,,,,,,,j,red,5fde82a1dd8cf15d19961474,2021-09-27_16h13.52.144,forced_choiceRT_color,2021.2.3,Win32,59.97361161,,,,,,,,6,Ontime,long,j,1,1.9451,5,0,20,2,1,,,,,
,0.92,,,,,,,,,j,red,5fde82a1dd8cf15d19961474,2021-09-27_16h13.52.144,forced_choiceRT_color,2021.2.3,Win32,59.97361161,,,,,,,,6,Ontime,long,j,1,2.0264,5,1,21,2,1,,,,,
,0.7,,,,,,,,,k,purple,5fde82a1dd8cf15d19961474,2021-09-27_16h13.52.144,forced_choiceRT_color,2021.2.3,Win32,59.97361161,,,,,,,,6,Ontime,long,k,1,2.062,5,2,22,3,1,,,,,
,1.69,,,,,,,,,j,red,5fde82a1dd8cf15d19961474,2021-09-27_16h13.52.144,forced_choiceRT_color,2021.2.3,Win32,59.97361161,,,,,,,,6,Slow,long,j,1,2.2554,5,3,23,2,1,,,,,
,1.73,,,,,,,,,k,purple,5fde82a1dd8cf15d19961474,2021-09-27_16h13.52.144,forced_choiceRT_color,2021.2.3,Win32,59.97361161,,,,,,,,6,Slow,long,k,1,2.2486,6,0,24,3,1,,,,,
,1.81,,,,,,,,,j,red,5fde82a1dd8cf15d19961474,2021-09-27_16h13.52.144,forced_choiceRT_color,2021.2.3,Win32,59.97361161,,,,,,,,6,Slow,long,k,0,2.2622,6,1,25,2,1,,,,,
,1.56,,,,,,,,,d,orange,5fde82a1dd8cf15d19961474,2021-09-27_16h13.52.144,forced_choiceRT_color,2021.2.3,Win32,59.97361161,,,,,,,,6,Ontime,long,f,0,2.0698,6,2,26,0,1,,,,,
,0.81,,,,,,,,,f,blue,5fde82a1dd8cf15d19961474,2021-09-27_16h13.52.144,forced_choiceRT_color,2021.2.3,Win32,59.97361161,,,,,,,,6,Ontime,long,f,1,2.0487,6,3,27,1,1,,,,,
,1.8,,,,,,,,,k,purple,5fde82a1dd8cf15d19961474,2021-09-27_16h13.52.144,forced_choiceRT_color,2021.2.3,Win32,59.97361161,,,,,,,,6,Ontime,long,d,0,2.0325,7,0,28,3,1,,,,,
,0.78,,,,,,,,,k,purple,5fde82a1dd8cf15d19961474,2021-09-27_16h13.52.144,forced_choiceRT_color,2021.2.3,Win32,59.97361161,,,,,,,,6,Slow,long,k,1,2.1376,7,1,29,3,1,,,,,
,0.46,,,,,,,,,k,purple,5fde82a1dd8cf15d19961474,2021-09-27_16h13.52.144,forced_choiceRT_color,2021.2.3,Win32,59.97361161,,,,,,,,6,Ontime,long,k,1,1.9831,7,2,30,3,1,,,,,
,0.41,,,,,,,,,k,purple,5fde82a1dd8cf15d19961474,2021-09-27_16h13.52.144,forced_choiceRT_color,2021.2.3,Win32,59.97361161,,,,,,,,6,Ontime,long,k,1,2.076,7,3,31,3,1,,,,,
,1.3,,,,,,,,,f,blue,5fde82a1dd8cf15d19961474,2021-09-27_16h13.52.144,forced_choiceRT_color,2021.2.3,Win32,59.97361161,,,,,,,,6,Ontime,long,f,1,1.9812,8,0,32,1,1,,,,,
,1.32,,,,,,,,,j,red,5fde82a1dd8cf15d19961474,2021-09-27_16h13.52.144,forced_choiceRT_color,2021.2.3,Win32,59.97361161,,,,,,,,6,Ontime,long,j,1,1.9777,8,1,33,2,1,,,,,
,1.43,,,,,,,,,f,blue,5fde82a1dd8cf15d19961474,2021-09-27_16h13.52.144,forced_choiceRT_color,2021.2.3,Win32,59.97361161,,,,,,,,6,Slow,long,f,1,2.2437,8,2,34,1,1,,,,,
,0.72,,,,,,,,,d,orange,5fde82a1dd8cf15d19961474,2021-09-27_16h13.52.144,forced_choiceRT_color,2021.2.3,Win32,59.97361161,,,,,,,,6,Ontime,long,d,1,2.0556,8,3,35,0,1,,,,,
,1.11,,,,,,,,,k,purple,5fde82a1dd8cf15d19961474,2021-09-27_16h13.52.144,forced_choiceRT_color,2021.2.3,Win32,59.97361161,,,,,,,,6,Ontime,long,k,1,2.0362,9,0,36,3,1,,,,,
,0.69,,,,,,,,,d,orange,5fde82a1dd8cf15d19961474,2021-09-27_16h13.52.144,forced_choiceRT_color,2021.2.3,Win32,59.97361161,,,,,,,,6,Fast,long,d,1,1.8203,9,1,37,0,1,,,,,
,1.63,,,,,,,,,d,orange,5fde82a1dd8cf15d19961474,2021-09-27_16h13.52.144,forced_choiceRT_color,2021.2.3,Win32,59.97361161,,,,,,,,6,Slow,long,d,1,2.2181,9,2,38,0,1,,,,,
,1.52,,,,,,,,,d,orange,5fde82a1dd8cf15d19961474,2021-09-27_16h13.52.144,forced_choiceRT_color,2021.2.3,Win32,59.97361161,,,,,,,,6,Slow,long,d,1,2.1146,9,3,39,0,1,,,,,
,,,,,,,,,,,,5fde82a1dd8cf15d19961474,2021-09-27_16h13.52.144,forced_choiceRT_color,2021.2.3,Win32,59.97361161,,,,,,,,,,,,,,,,,,,5,0,5,0,1
,0.8,,,,,,,,,d,orange,5fde82a1dd8cf15d19961474,2021-09-27_16h13.52.144,forced_choiceRT_color,2021.2.3,Win32,59.97361161,,,,,,,,7,Ontime,long,d,1,2.0505,0,0,0,0,1,,,,,
,0.5,,,,,,,,,f,blue,5fde82a1dd8cf15d19961474,2021-09-27_16h13.52.144,forced_choiceRT_color,2021.2.3,Win32,59.97361161,,,,,,,,7,Ontime,long,j,0,2.0373,0,1,1,1,1,,,,,
,0.77,,,,,,,,,j,red,5fde82a1dd8cf15d19961474,2021-09-27_16h13.52.144,forced_choiceRT_color,2021.2.3,Win32,59.97361161,,,,,,,,7,Ontime,long,j,1,2.0732,0,2,2,2,1,,,,,
,1.42,,,,,,,,,j,red,5fde82a1dd8cf15d19961474,2021-09-27_16h13.52.144,forced_choiceRT_color,2021.2.3,Win32,59.97361161,,,,,,,,7,Slow,long,j,1,2.2729,0,3,3,2,1,,,,,
,0.6,,,,,,,,,d,orange,5fde82a1dd8cf15d19961474,2021-09-27_16h13.52.144,forced_choiceRT_color,2021.2.3,Win32,59.97361161,,,,,,,,7,Ontime,long,d,1,2.0708,1,0,4,0,1,,,,,
,0.96,,,,,,,,,d,orange,5fde82a1dd8cf15d19961474,2021-09-27_16h13.52.144,forced_choiceRT_color,2021.2.3,Win32,59.97361161,,,,,,,,7,Ontime,long,d,1,2.0365,1,1,5,0,1,,,,,
,1.93,,,,,,,,,k,purple,5fde82a1dd8cf15d19961474,2021-09-27_16h13.52.144,forced_choiceRT_color,2021.2.3,Win32,59.97361161,,,,,,,,7,Slow,long,j,0,2.407,1,2,6,3,1,,,,,
,0.64,,,,,,,,,f,blue,5fde82a1dd8cf15d19961474,2021-09-27_16h13.52.144,forced_choiceRT_color,2021.2.3,Win32,59.97361161,,,,,,,,7,Ontime,long,f,1,1.9701,1,3,7,1,1,,,,,
,0.33,,,,,,,,,j,red,5fde82a1dd8cf15d19961474,2021-09-27_16h13.52.144,forced_choiceRT_color,2021.2.3,Win32,59.97361161,,,,,,,,7,Ontime,long,j,1,1.9944,2,0,8,2,1,,,,,
,0.69,,,,,,,,,d,orange,5fde82a1dd8cf15d19961474,2021-09-27_16h13.52.144,forced_choiceRT_color,2021.2.3,Win32,59.97361161,,,,,,,,7,Ontime,long,f,0,2.0771,2,1,9,0,1,,,,,
,0.66,,,,,,,,,j,red,5fde82a1dd8cf15d19961474,2021-09-27_16h13.52.144,forced_choiceRT_color,2021.2.3,Win32,59.97361161,,,,,,,,7,Ontime,long,j,1,2.0773,2,2,10,2,1,,,,,
,0.04,,,,,,,,,d,orange,5fde82a1dd8cf15d19961474,2021-09-27_16h13.52.144,forced_choiceRT_color,2021.2.3,Win32,59.97361161,,,,,,,,7,Ontime,long,d,1,1.9688,2,3,11,0,1,,,,,
,0.3,,,,,,,,,j,red,5fde82a1dd8cf15d19961474,2021-09-27_16h13.52.144,forced_choiceRT_color,2021.2.3,Win32,59.97361161,,,,,,,,7,Fast,long,j,1,1.7738,3,0,12,2,1,,,,,
,0.76,,,,,,,,,k,purple,5fde82a1dd8cf15d19961474,2021-09-27_16h13.52.144,forced_choiceRT_color,2021.2.3,Win32,59.97361161,,,,,,,,7,Ontime,long,k,1,2.0904,3,1,13,3,1,,,,,
,0.14,,,,,,,,,k,purple,5fde82a1dd8cf15d19961474,2021-09-27_16h13.52.144,forced_choiceRT_color,2021.2.3,Win32,59.97361161,,,,,,,,7,Ontime,long,k,1,2.0061,3,2,14,3,1,,,,,
,1.4,,,,,,,,,k,purple,5fde82a1dd8cf15d19961474,2021-09-27_16h13.52.144,forced_choiceRT_color,2021.2.3,Win32,59.97361161,,,,,,,,7,Slow,long,k,1,2.2705,3,3,15,3,1,,,,,
,0.01,,,,,,,,,j,red,5fde82a1dd8cf15d19961474,2021-09-27_16h13.52.144,forced_choiceRT_color,2021.2.3,Win32,59.97361161,,,,,,,,7,Fast,long,j,1,1.6639,4,0,16,2,1,,,,,
,0.23,,,,,,,,,f,blue,5fde82a1dd8cf15d19961474,2021-09-27_16h13.52.144,forced_choiceRT_color,2021.2.3,Win32,59.97361161,,,,,,,,7,Fast,long,f,1,1.6962,4,1,17,1,1,,,,,
,1.63,,,,,,,,,k,purple,5fde82a1dd8cf15d19961474,2021-09-27_16h13.52.144,forced_choiceRT_color,2021.2.3,Win32,59.97361161,,,,,,,,7,Slow,long,k,1,2.693,4,2,18,3,1,,,,,
,1.65,,,,,,,,,f,blue,5fde82a1dd8cf15d19961474,2021-09-27_16h13.52.144,forced_choiceRT_color,2021.2.3,Win32,59.97361161,,,,,,,,7,Slow,long,f,1,2.1059,4,3,19,1,1,,,,,
,1.28,,,,,,,,,d,orange,5fde82a1dd8cf15d19961474,2021-09-27_16h13.52.144,forced_choiceRT_color,2021.2.3,Win32,59.97361161,,,,,,,,7,Ontime,long,d,1,1.9112,5,0,20,0,1,,,,,
,1.48,,,,,,,,,d,orange,5fde82a1dd8cf15d19961474,2021-09-27_16h13.52.144,forced_choiceRT_color,2021.2.3,Win32,59.97361161,,,,,,,,7,Ontime,long,d,1,2.0405,5,1,21,0,1,,,,,
,1.82,,,,,,,,,j,red,5fde82a1dd8cf15d19961474,2021-09-27_16h13.52.144,forced_choiceRT_color,2021.2.3,Win32,59.97361161,,,,,,,,7,Slow,long,k,0,2.2198,5,2,22,2,1,,,,,
,0.69,,,,,,,,,d,orange,5fde82a1dd8cf15d19961474,2021-09-27_16h13.52.144,forced_choiceRT_color,2021.2.3,Win32,59.97361161,,,,,,,,7,Ontime,long,d,1,1.9835,5,3,23,0,1,,,,,
,1.51,,,,,,,,,f,blue,5fde82a1dd8cf15d19961474,2021-09-27_16h13.52.144,forced_choiceRT_color,2021.2.3,Win32,59.97361161,,,,,,,,7,Slow,long,j,0,2.205,6,0,24,1,1,,,,,
,0.77,,,,,,,,,j,red,5fde82a1dd8cf15d19961474,2021-09-27_16h13.52.144,forced_choiceRT_color,2021.2.3,Win32,59.97361161,,,,,,,,7,Ontime,long,j,1,1.9644,6,1,25,2,1,,,,,
,0.22,,,,,,,,,k,purple,5fde82a1dd8cf15d19961474,2021-09-27_16h13.52.144,forced_choiceRT_color,2021.2.3,Win32,59.97361161,,,,,,,,7,Ontime,long,k,1,1.987,6,2,26,3,1,,,,,
,1.71,,,,,,,,,k,purple,5fde82a1dd8cf15d19961474,2021-09-27_16h13.52.144,forced_choiceRT_color,2021.2.3,Win32,59.97361161,,,,,,,,7,Slow,long,k,1,2.1871,6,3,27,3,1,,,,,
,0.57,,,,,,,,,k,purple,5fde82a1dd8cf15d19961474,2021-09-27_16h13.52.144,forced_choiceRT_color,2021.2.3,Win32,59.97361161,,,,,,,,7,Ontime,long,k,1,1.9628,7,0,28,3,1,,,,,
,1.64,,,,,,,,,d,orange,5fde82a1dd8cf15d19961474,2021-09-27_16h13.52.144,forced_choiceRT_color,2021.2.3,Win32,59.97361161,,,,,,,,7,Slow,long,d,1,2.1118,7,1,29,0,1,,,,,
,0.25,,,,,,,,,k,purple,5fde82a1dd8cf15d19961474,2021-09-27_16h13.52.144,forced_choiceRT_color,2021.2.3,Win32,59.97361161,,,,,,,,7,Ontime,long,k,1,2.0143,7,2,30,3,1,,,,,
,1.65,,,,,,,,,f,blue,5fde82a1dd8cf15d19961474,2021-09-27_16h13.52.144,forced_choiceRT_color,2021.2.3,Win32,59.97361161,,,,,,,,7,Slow,long,f,1,2.572,7,3,31,1,1,,,,,
,1.92,,,,,,,,,d,orange,5fde82a1dd8cf15d19961474,2021-09-27_16h13.52.144,forced_choiceRT_color,2021.2.3,Win32,59.97361161,,,,,,,,7,Slow,long,d,1,2.2151,8,0,32,0,1,,,,,
,1.48,,,,,,,,,f,blue,5fde82a1dd8cf15d19961474,2021-09-27_16h13.52.144,forced_choiceRT_color,2021.2.3,Win32,59.97361161,,,,,,,,7,Ontime,long,f,1,2.0879,8,1,33,1,1,,,,,
,1.49,,,,,,,,,j,red,5fde82a1dd8cf15d19961474,2021-09-27_16h13.52.144,forced_choiceRT_color,2021.2.3,Win32,59.97361161,,,,,,,,7,Slow,long,j,1,2.1066,8,2,34,2,1,,,,,
,1.79,,,,,,,,,f,blue,5fde82a1dd8cf15d19961474,2021-09-27_16h13.52.144,forced_choiceRT_color,2021.2.3,Win32,59.97361161,,,,,,,,7,Slow,long,j,0,2.324,8,3,35,1,1,,,,,
,0.39,,,,,,,,,j,red,5fde82a1dd8cf15d19961474,2021-09-27_16h13.52.144,forced_choiceRT_color,2021.2.3,Win32,59.97361161,,,,,,,,7,Ontime,long,j,1,2.0194,9,0,36,2,1,,,,,
,0.14,,,,,,,,,f,blue,5fde82a1dd8cf15d19961474,2021-09-27_16h13.52.144,forced_choiceRT_color,2021.2.3,Win32,59.97361161,,,,,,,,7,Ontime,long,f,1,2.013,9,1,37,1,1,,,,,
,1.5,,,,,,,,,k,purple,5fde82a1dd8cf15d19961474,2021-09-27_16h13.52.144,forced_choiceRT_color,2021.2.3,Win32,59.97361161,,,,,,,,7,Ontime,long,d,0,1.9477,9,2,38,3,1,,,,,
,1.76,,,,,,,,,f,blue,5fde82a1dd8cf15d19961474,2021-09-27_16h13.52.144,forced_choiceRT_color,2021.2.3,Win32,59.97361161,,,,,,,,7,Slow,long,f,1,2.1463,9,3,39,1,1,,,,,
,,,,,,,,,,,,5fde82a1dd8cf15d19961474,2021-09-27_16h13.52.144,forced_choiceRT_color,2021.2.3,Win32,59.97361161,,,,,,,,,,,,,,,,,,,6,0,6,0,1
,1.18,,,,,,,,,k,purple,5fde82a1dd8cf15d19961474,2021-09-27_16h13.52.144,forced_choiceRT_color,2021.2.3,Win32,59.97361161,,,,,,,,8,Ontime,long,k,1,2.0589,0,0,0,3,1,,,,,
,1.21,,,,,,,,,j,red,5fde82a1dd8cf15d19961474,2021-09-27_16h13.52.144,forced_choiceRT_color,2021.2.3,Win32,59.97361161,,,,,,,,8,Ontime,long,j,1,1.9954,0,1,1,2,1,,,,,
,1.87,,,,,,,,,j,red,5fde82a1dd8cf15d19961474,2021-09-27_16h13.52.144,forced_choiceRT_color,2021.2.3,Win32,59.97361161,,,,,,,,8,Slow,long,j,1,2.263,0,2,2,2,1,,,,,
,1.49,,,,,,,,,j,red,5fde82a1dd8cf15d19961474,2021-09-27_16h13.52.144,forced_choiceRT_color,2021.2.3,Win32,59.97361161,,,,,,,,8,Fast,long,j,1,1.8697,0,3,3,2,1,,,,,
,1.77,,,,,,,,,f,blue,5fde82a1dd8cf15d19961474,2021-09-27_16h13.52.144,forced_choiceRT_color,2021.2.3,Win32,59.97361161,,,,,,,,8,Slow,long,f,1,2.607,1,0,4,1,1,,,,,
,0.23,,,,,,,,,k,purple,5fde82a1dd8cf15d19961474,2021-09-27_16h13.52.144,forced_choiceRT_color,2021.2.3,Win32,59.97361161,,,,,,,,8,Ontime,long,k,1,2.0367,1,1,5,3,1,,,,,
,0.88,,,,,,,,,d,orange,5fde82a1dd8cf15d19961474,2021-09-27_16h13.52.144,forced_choiceRT_color,2021.2.3,Win32,59.97361161,,,,,,,,8,Ontime,long,d,1,2.0384,1,2,6,0,1,,,,,
,1.47,,,,,,,,,d,orange,5fde82a1dd8cf15d19961474,2021-09-27_16h13.52.144,forced_choiceRT_color,2021.2.3,Win32,59.97361161,,,,,,,,8,Slow,long,d,1,2.1241,1,3,7,0,1,,,,,
,0.55,,,,,,,,,f,blue,5fde82a1dd8cf15d19961474,2021-09-27_16h13.52.144,forced_choiceRT_color,2021.2.3,Win32,59.97361161,,,,,,,,8,Ontime,long,f,1,1.9454,2,0,8,1,1,,,,,
,1.12,,,,,,,,,f,blue,5fde82a1dd8cf15d19961474,2021-09-27_16h13.52.144,forced_choiceRT_color,2021.2.3,Win32,59.97361161,,,,,,,,8,Ontime,long,f,1,2.0325,2,1,9,1,1,,,,,
,0.56,,,,,,,,,j,red,5fde82a1dd8cf15d19961474,2021-09-27_16h13.52.144,forced_choiceRT_color,2021.2.3,Win32,59.97361161,,,,,,,,8,Ontime,long,j,1,2.0061,2,2,10,2,1,,,,,
,1.99,,,,,,,,,j,red,5fde82a1dd8cf15d19961474,2021-09-27_16h13.52.144,forced_choiceRT_color,2021.2.3,Win32,59.97361161,,,,,,,,8,Slow,long,f,0,2.4719,2,3,11,2,1,,,,,
,0.16,,,,,,,,,d,orange,5fde82a1dd8cf15d19961474,2021-09-27_16h13.52.144,forced_choiceRT_color,2021.2.3,Win32,59.97361161,,,,,,,,8,Ontime,long,d,1,1.992,3,0,12,0,1,,,,,
,1.1,,,,,,,,,j,red,5fde82a1dd8cf15d19961474,2021-09-27_16h13.52.144,forced_choiceRT_color,2021.2.3,Win32,59.97361161,,,,,,,,8,Ontime,long,j,1,1.9233,3,1,13,2,1,,,,,
,0.38,,,,,,,,,d,orange,5fde82a1dd8cf15d19961474,2021-09-27_16h13.52.144,forced_choiceRT_color,2021.2.3,Win32,59.97361161,,,,,,,,8,Ontime,long,d,1,2.0319,3,2,14,0,1,,,,,
,0.82,,,,,,,,,k,purple,5fde82a1dd8cf15d19961474,2021-09-27_16h13.52.144,forced_choiceRT_color,2021.2.3,Win32,59.97361161,,,,,,,,8,Slow,long,k,1,2.1395,3,3,15,3,1,,,,,
,0.44,,,,,,,,,f,blue,5fde82a1dd8cf15d19961474,2021-09-27_16h13.52.144,forced_choiceRT_color,2021.2.3,Win32,59.97361161,,,,,,,,8,Ontime,long,f,1,1.9737,4,0,16,1,1,,,,,
,1.62,,,,,,,,,k,purple,5fde82a1dd8cf15d19961474,2021-09-27_16h13.52.144,forced_choiceRT_color,2021.2.3,Win32,59.97361161,,,,,,,,8,Ontime,long,f,0,2.0911,4,1,17,3,1,,,,,
,1.37,,,,,,,,,d,orange,5fde82a1dd8cf15d19961474,2021-09-27_16h13.52.144,forced_choiceRT_color,2021.2.3,Win32,59.97361161,,,,,,,,8,Slow,long,d,1,2.1752,4,2,18,0,1,,,,,
,1.45,,,,,,,,,d,orange,5fde82a1dd8cf15d19961474,2021-09-27_16h13.52.144,forced_choiceRT_color,2021.2.3,Win32,59.97361161,,,,,,,,8,Ontime,long,d,1,2.0248,4,3,19,0,1,,,,,
,1.54,,,,,,,,,f,blue,5fde82a1dd8cf15d19961474,2021-09-27_16h13.52.144,forced_choiceRT_color,2021.2.3,Win32,59.97361161,,,,,,,,8,Slow,long,f,1,2.5385,5,0,20,1,1,,,,,
,0.64,,,,,,,,,f,blue,5fde82a1dd8cf15d19961474,2021-09-27_16h13.52.144,forced_choiceRT_color,2021.2.3,Win32,59.97361161,,,,,,,,8,Ontime,long,f,1,2.0514,5,1,21,1,1,,,,,
,0.42,,,,,,,,,d,orange,5fde82a1dd8cf15d19961474,2021-09-27_16h13.52.144,forced_choiceRT_color,2021.2.3,Win32,59.97361161,,,,,,,,8,Ontime,long,d,1,1.9415,5,2,22,0,1,,,,,
,1.85,,,,,,,,,f,blue,5fde82a1dd8cf15d19961474,2021-09-27_16h13.52.144,forced_choiceRT_color,2021.2.3,Win32,59.97361161,,,,,,,,8,Slow,long,f,1,2.2966,5,3,23,1,1,,,,,
,1.21,,,,,,,,,k,purple,5fde82a1dd8cf15d19961474,2021-09-27_16h13.52.144,forced_choiceRT_color,2021.2.3,Win32,59.97361161,,,,,,,,8,Ontime,long,k,1,2.0432,6,0,24,3,1,,,,,
,1.07,,,,,,,,,j,red,5fde82a1dd8cf15d19961474,2021-09-27_16h13.52.144,forced_choiceRT_color,2021.2.3,Win32,59.97361161,,,,,,,,8,Ontime,long,j,1,2.0471,6,1,25,2,1,,,,,
,1.84,,,,,,,,,f,blue,5fde82a1dd8cf15d19961474,2021-09-27_16h13.52.144,forced_choiceRT_color,2021.2.3,Win32,59.97361161,,,,,,,,8,Ontime,long,d,0,2.0926,6,2,26,1,1,,,,,
,1.85,,,,,,,,,f,blue,5fde82a1dd8cf15d19961474,2021-09-27_16h13.52.144,forced_choiceRT_color,2021.2.3,Win32,59.97361161,,,,,,,,8,Slow,long,j,0,2.1857,6,3,27,1,1,,,,,
,0.47,,,,,,,,,k,purple,5fde82a1dd8cf15d19961474,2021-09-27_16h13.52.144,forced_choiceRT_color,2021.2.3,Win32,59.97361161,,,,,,,,8,Ontime,long,k,1,1.9807,7,0,28,3,1,,,,,
,0.61,,,,,,,,,d,orange,5fde82a1dd8cf15d19961474,2021-09-27_16h13.52.144,forced_choiceRT_color,2021.2.3,Win32,59.97361161,,,,,,,,8,Slow,long,d,1,2.1311,7,1,29,0,1,,,,,
,1.48,,,,,,,,,j,red,5fde82a1dd8cf15d19961474,2021-09-27_16h13.52.144,forced_choiceRT_color,2021.2.3,Win32,59.97361161,,,,,,,,8,Slow,long,j,1,2.1119,7,2,30,2,1,,,,,
,1.09,,,,,,,,,j,red,5fde82a1dd8cf15d19961474,2021-09-27_16h13.52.144,forced_choiceRT_color,2021.2.3,Win32,59.97361161,,,,,,,,8,Ontime,long,j,1,2.0597,7,3,31,2,1,,,,,
,1.11,,,,,,,,,k,purple,5fde82a1dd8cf15d19961474,2021-09-27_16h13.52.144,forced_choiceRT_color,2021.2.3,Win32,59.97361161,,,,,,,,8,Slow,long,k,1,2.1508,8,0,32,3,1,,,,,
,0.25,,,,,,,,,j,red,5fde82a1dd8cf15d19961474,2021-09-27_16h13.52.144,forced_choiceRT_color,2021.2.3,Win32,59.97361161,,,,,,,,8,Fast,long,k,0,1.7135,8,1,33,2,1,,,,,
,1.67,,,,,,,,,k,purple,5fde82a1dd8cf15d19961474,2021-09-27_16h13.52.144,forced_choiceRT_color,2021.2.3,Win32,59.97361161,,,,,,,,8,Ontime,long,k,1,1.9908,8,2,34,3,1,,,,,
,1.26,,,,,,,,,d,orange,5fde82a1dd8cf15d19961474,2021-09-27_16h13.52.144,forced_choiceRT_color,2021.2.3,Win32,59.97361161,,,,,,,,8,Ontime,long,d,1,1.9715,8,3,35,0,1,,,,,
,0.14,,,,,,,,,k,purple,5fde82a1dd8cf15d19961474,2021-09-27_16h13.52.144,forced_choiceRT_color,2021.2.3,Win32,59.97361161,,,,,,,,8,Ontime,long,k,1,2.0461,9,0,36,3,1,,,,,
,0.08,,,,,,,,,f,blue,5fde82a1dd8cf15d19961474,2021-09-27_16h13.52.144,forced_choiceRT_color,2021.2.3,Win32,59.97361161,,,,,,,,8,Ontime,long,f,1,2.0361,9,1,37,1,1,,,,,
,1.74,,,,,,,,,k,purple,5fde82a1dd8cf15d19961474,2021-09-27_16h13.52.144,forced_choiceRT_color,2021.2.3,Win32,59.97361161,,,,,,,,8,Ontime,long,d,0,1.988,9,2,38,3,1,,,,,
,1.33,,,,,,,,,d,orange,5fde82a1dd8cf15d19961474,2021-09-27_16h13.52.144,forced_choiceRT_color,2021.2.3,Win32,59.97361161,,,,,,,,8,Slow,long,d,1,2.2556,9,3,39,0,1,,,,,
,,,,,,,,,,,,5fde82a1dd8cf15d19961474,2021-09-27_16h13.52.144,forced_choiceRT_color,2021.2.3,Win32,59.97361161,,,,,,,,,,,,,,,,,,,7,0,7,0,1
,0.71,,,,,,,,,j,red,5fde82a1dd8cf15d19961474,2021-09-27_16h13.52.144,forced_choiceRT_color,2021.2.3,Win32,59.97361161,,,,,,,,9,Slow,long,j,1,2.1029,0,0,0,2,1,,,,,
,0.39,,,,,,,,,j,red,5fde82a1dd8cf15d19961474,2021-09-27_16h13.52.144,forced_choiceRT_color,2021.2.3,Win32,59.97361161,,,,,,,,9,Ontime,long,j,1,2.0233,0,1,1,2,1,,,,,
,1.41,,,,,,,,,f,blue,5fde82a1dd8cf15d19961474,2021-09-27_16h13.52.144,forced_choiceRT_color,2021.2.3,Win32,59.97361161,,,,,,,,9,Slow,long,f,1,2.2561,0,2,2,1,1,,,,,
,0.73,,,,,,,,,j,red,5fde82a1dd8cf15d19961474,2021-09-27_16h13.52.144,forced_choiceRT_color,2021.2.3,Win32,59.97361161,,,,,,,,9,Ontime,long,j,1,2.056,0,3,3,2,1,,,,,
,1.54,,,,,,,,,j,red,5fde82a1dd8cf15d19961474,2021-09-27_16h13.52.144,forced_choiceRT_color,2021.2.3,Win32,59.97361161,,,,,,,,9,Ontime,long,j,1,2.0059,1,0,4,2,1,,,,,
,0.56,,,,,,,,,k,purple,5fde82a1dd8cf15d19961474,2021-09-27_16h13.52.144,forced_choiceRT_color,2021.2.3,Win32,59.97361161,,,,,,,,9,Ontime,long,k,1,2.0892,1,1,5,3,1,,,,,
,0.98,,,,,,,,,k,purple,5fde82a1dd8cf15d19961474,2021-09-27_16h13.52.144,forced_choiceRT_color,2021.2.3,Win32,59.97361161,,,,,,,,9,Ontime,long,k,1,2.0728,1,2,6,3,1,,,,,
,1.92,,,,,,,,,d,orange,5fde82a1dd8cf15d19961474,2021-09-27_16h13.52.144,forced_choiceRT_color,2021.2.3,Win32,59.97361161,,,,,,,,9,Slow,long,k,0,2.2743,1,3,7,0,1,,,,,
,1.53,,,,,,,,,j,red,5fde82a1dd8cf15d19961474,2021-09-27_16h13.52.144,forced_choiceRT_color,2021.2.3,Win32,59.97361161,,,,,,,,9,Ontime,long,k,0,2.0845,2,0,8,2,1,,,,,
,1.21,,,,,,,,,f,blue,5fde82a1dd8cf15d19961474,2021-09-27_16h13.52.144,forced_choiceRT_color,2021.2.3,Win32,59.97361161,,,,,,,,9,Ontime,long,f,1,1.9627,2,1,9,1,1,,,,,
,0.95,,,,,,,,,k,purple,5fde82a1dd8cf15d19961474,2021-09-27_16h13.52.144,forced_choiceRT_color,2021.2.3,Win32,59.97361161,,,,,,,,9,Fast,long,k,1,1.8997,2,2,10,3,1,,,,,
,0.27,,,,,,,,,f,blue,5fde82a1dd8cf15d19961474,2021-09-27_16h13.52.144,forced_choiceRT_color,2021.2.3,Win32,59.97361161,,,,,,,,9,Ontime,long,f,1,1.9585,2,3,11,1,1,,,,,
,0.11,,,,,,,,,d,orange,5fde82a1dd8cf15d19961474,2021-09-27_16h13.52.144,forced_choiceRT_color,2021.2.3,Win32,59.97361161,,,,,,,,9,Ontime,long,d,1,2.0402,3,0,12,0,1,,,,,
,1.8,,,,,,,,,k,purple,5fde82a1dd8cf15d19961474,2021-09-27_16h13.52.144,forced_choiceRT_color,2021.2.3,Win32,59.97361161,,,,,,,,9,Slow,long,d,0,2.1142,3,1,13,3,1,,,,,
,1.72,,,,,,,,,d,orange,5fde82a1dd8cf15d19961474,2021-09-27_16h13.52.144,forced_choiceRT_color,2021.2.3,Win32,59.97361161,,,,,,,,9,Ontime,long,k,0,1.9772,3,2,14,0,1,,,,,
,1.97,,,,,,,,,d,orange,5fde82a1dd8cf15d19961474,2021-09-27_16h13.52.144,forced_choiceRT_color,2021.2.3,Win32,59.97361161,,,,,,,,9,Ontime,long,k,0,2.0384,3,3,15,0,1,,,,,
,0.75,,,,,,,,,d,orange,5fde82a1dd8cf15d19961474,2021-09-27_16h13.52.144,forced_choiceRT_color,2021.2.3,Win32,59.97361161,,,,,,,,9,Ontime,long,d,1,2.042,4,0,16,0,1,,,,,
,1.23,,,,,,,,,j,red,5fde82a1dd8cf15d19961474,2021-09-27_16h13.52.144,forced_choiceRT_color,2021.2.3,Win32,59.97361161,,,,,,,,9,Fast,long,j,1,1.8708,4,1,17,2,1,,,,,
,0.65,,,,,,,,,k,purple,5fde82a1dd8cf15d19961474,2021-09-27_16h13.52.144,forced_choiceRT_color,2021.2.3,Win32,59.97361161,,,,,,,,9,Ontime,long,k,1,1.926,4,2,18,3,1,,,,,
,0.06,,,,,,,,,k,purple,5fde82a1dd8cf15d19961474,2021-09-27_16h13.52.144,forced_choiceRT_color,2021.2.3,Win32,59.97361161,,,,,,,,9,Ontime,long,k,1,2.0452,4,3,19,3,1,,,,,
,0,,,,,,,,,j,red,5fde82a1dd8cf15d19961474,2021-09-27_16h13.52.144,forced_choiceRT_color,2021.2.3,Win32,59.97361161,,,,,,,,9,Ontime,long,j,1,2.0269,5,0,20,2,1,,,,,
,0.68,,,,,,,,,f,blue,5fde82a1dd8cf15d19961474,2021-09-27_16h13.52.144,forced_choiceRT_color,2021.2.3,Win32,59.97361161,,,,,,,,9,Ontime,long,f,1,2.0915,5,1,21,1,1,,,,,
,1.62,,,,,,,,,j,red,5fde82a1dd8cf15d19961474,2021-09-27_16h13.52.144,forced_choiceRT_color,2021.2.3,Win32,59.97361161,,,,,,,,9,Slow,long,j,1,2.2153,5,2,22,2,1,,,,,
,0.61,,,,,,,,,f,blue,5fde82a1dd8cf15d19961474,2021-09-27_16h13.52.144,forced_choiceRT_color,2021.2.3,Win32,59.97361161,,,,,,,,9,Ontime,long,f,1,1.9376,5,3,23,1,1,,,,,
,1.71,,,,,,,,,j,red,5fde82a1dd8cf15d19961474,2021-09-27_16h13.52.144,forced_choiceRT_color,2021.2.3,Win32,59.97361161,,,,,,,,9,Ontime,long,f,0,2.0405,6,0,24,2,1,,,,,
,0.09,,,,,,,,,k,purple,5fde82a1dd8cf15d19961474,2021-09-27_16h13.52.144,forced_choiceRT_color,2021.2.3,Win32,59.97361161,,,,,,,,9,Ontime,long,k,1,1.9947,6,1,25,3,1,,,,,
,0.68,,,,,,,,,f,blue,5fde82a1dd8cf15d19961474,2021-09-27_16h13.52.144,forced_choiceRT_color,2021.2.3,Win32,59.97361161,,,,,,,,9,Ontime,long,f,1,2.0263,6,2,26,1,1,,,,,
,1.3,,,,,,,,,k,purple,5fde82a1dd8cf15d19961474,2021-09-27_16h13.52.144,forced_choiceRT_color,2021.2.3,Win32,59.97361161,,,,,,,,9,Ontime,long,k,1,2.0195,6,3,27,3,1,,,,,
,1.11,,,,,,,,,j,red,5fde82a1dd8cf15d19961474,2021-09-27_16h13.52.144,forced_choiceRT_color,2021.2.3,Win32,59.97361161,,,,,,,,9,Slow,long,j,1,2.1064,7,0,28,2,1,,,,,
,1.98,,,,,,,,,k,purple,5fde82a1dd8cf15d19961474,2021-09-27_16h13.52.144,forced_choiceRT_color,2021.2.3,Win32,59.97361161,,,,,,,,9,Slow,long,k,1,2.2138,7,1,29,3,1,,,,,
,1.19,,,,,,,,,d,orange,5fde82a1dd8cf15d19961474,2021-09-27_16h13.52.144,forced_choiceRT_color,2021.2.3,Win32,59.97361161,,,,,,,,9,Ontime,long,d,1,2.0784,7,2,30,0,1,,,,,
,1.38,,,,,,,,,d,orange,5fde82a1dd8cf15d19961474,2021-09-27_16h13.52.144,forced_choiceRT_color,2021.2.3,Win32,59.97361161,,,,,,,,9,Ontime,long,d,1,2.0556,7,3,31,0,1,,,,,
,1.71,,,,,,,,,f,blue,5fde82a1dd8cf15d19961474,2021-09-27_16h13.52.144,forced_choiceRT_color,2021.2.3,Win32,59.97361161,,,,,,,,9,Ontime,long,k,0,2.0176,8,0,32,1,1,,,,,
,1.82,,,,,,,,,f,blue,5fde82a1dd8cf15d19961474,2021-09-27_16h13.52.144,forced_choiceRT_color,2021.2.3,Win32,59.97361161,,,,,,,,9,Fast,long,j,0,1.8913,8,1,33,1,1,,,,,
,1.77,,,,,,,,,d,orange,5fde82a1dd8cf15d19961474,2021-09-27_16h13.52.144,forced_choiceRT_color,2021.2.3,Win32,59.97361161,,,,,,,,9,Ontime,long,d,1,2.0049,8,2,34,0,1,,,,,
,0.98,,,,,,,,,d,orange,5fde82a1dd8cf15d19961474,2021-09-27_16h13.52.144,forced_choiceRT_color,2021.2.3,Win32,59.97361161,,,,,,,,9,Ontime,long,d,1,2.0894,8,3,35,0,1,,,,,
,0.48,,,,,,,,,k,purple,5fde82a1dd8cf15d19961474,2021-09-27_16h13.52.144,forced_choiceRT_color,2021.2.3,Win32,59.97361161,,,,,,,,9,Ontime,long,k,1,1.9127,9,0,36,3,1,,,,,
,0.19,,,,,,,,,d,orange,5fde82a1dd8cf15d19961474,2021-09-27_16h13.52.144,forced_choiceRT_color,2021.2.3,Win32,59.97361161,,,,,,,,9,Ontime,long,j,0,1.9594,9,1,37,0,1,,,,,
,1.34,,,,,,,,,f,blue,5fde82a1dd8cf15d19961474,2021-09-27_16h13.52.144,forced_choiceRT_color,2021.2.3,Win32,59.97361161,,,,,,,,9,Ontime,long,f,1,2.0877,9,2,38,1,1,,,,,
,1.51,,,,,,,,,f,blue,5fde82a1dd8cf15d19961474,2021-09-27_16h13.52.144,forced_choiceRT_color,2021.2.3,Win32,59.97361161,,,,,,,,9,Slow,long,f,1,2.3671,9,3,39,1,1,,,,,
,,,,,,,,,,,,5fde82a1dd8cf15d19961474,2021-09-27_16h13.52.144,forced_choiceRT_color,2021.2.3,Win32,59.97361161,,,,,,,,,,,,,,,,,,,8,0,8,0,1
,0.59,,,,,,,,,k,purple,5fde82a1dd8cf15d19961474,2021-09-27_16h13.52.144,forced_choiceRT_color,2021.2.3,Win32,59.97361161,,,,,,,,10,Ontime,long,k,1,1.9478,0,0,0,3,1,,,,,
,1.48,,,,,,,,,j,red,5fde82a1dd8cf15d19961474,2021-09-27_16h13.52.144,forced_choiceRT_color,2021.2.3,Win32,59.97361161,,,,,,,,10,Ontime,long,j,1,2.0079,0,1,1,2,1,,,,,
,1.89,,,,,,,,,j,red,5fde82a1dd8cf15d19961474,2021-09-27_16h13.52.144,forced_choiceRT_color,2021.2.3,Win32,59.97361161,,,,,,,,10,Fast,long,f,0,1.8039,0,2,2,2,1,,,,,
,1.48,,,,,,,,,f,blue,5fde82a1dd8cf15d19961474,2021-09-27_16h13.52.144,forced_choiceRT_color,2021.2.3,Win32,59.97361161,,,,,,,,10,Ontime,long,f,1,2.0061,0,3,3,1,1,,,,,
,0.41,,,,,,,,,f,blue,5fde82a1dd8cf15d19961474,2021-09-27_16h13.52.144,forced_choiceRT_color,2021.2.3,Win32,59.97361161,,,,,,,,10,Ontime,long,f,1,2.0647,1,0,4,1,1,,,,,
,0.7,,,,,,,,,k,purple,5fde82a1dd8cf15d19961474,2021-09-27_16h13.52.144,forced_choiceRT_color,2021.2.3,Win32,59.97361161,,,,,,,,10,Slow,long,k,1,2.13,1,1,5,3,1,,,,,
,1.69,,,,,,,,,j,red,5fde82a1dd8cf15d19961474,2021-09-27_16h13.52.144,forced_choiceRT_color,2021.2.3,Win32,59.97361161,,,,,,,,10,Ontime,long,k,0,2.0477,1,2,6,2,1,,,,,
,1.9,,,,,,,,,j,red,5fde82a1dd8cf15d19961474,2021-09-27_16h13.52.144,forced_choiceRT_color,2021.2.3,Win32,59.97361161,,,,,,,,10,Ontime,long,f,0,2.0919,1,3,7,2,1,,,,,
,0.79,,,,,,,,,k,purple,5fde82a1dd8cf15d19961474,2021-09-27_16h13.52.144,forced_choiceRT_color,2021.2.3,Win32,59.97361161,,,,,,,,10,Ontime,long,k,1,2.0886,2,0,8,3,1,,,,,
,0.79,,,,,,,,,f,blue,5fde82a1dd8cf15d19961474,2021-09-27_16h13.52.144,forced_choiceRT_color,2021.2.3,Win32,59.97361161,,,,,,,,10,Ontime,long,f,1,1.9447,2,1,9,1,1,,,,,
,1.95,,,,,,,,,d,orange,5fde82a1dd8cf15d19961474,2021-09-27_16h13.52.144,forced_choiceRT_color,2021.2.3,Win32,59.97361161,,,,,,,,10,Slow,long,f,0,2.2146,2,2,10,0,1,,,,,
,1.77,,,,,,,,,k,purple,5fde82a1dd8cf15d19961474,2021-09-27_16h13.52.144,forced_choiceRT_color,2021.2.3,Win32,59.97361161,,,,,,,,10,Ontime,long,k,1,1.9914,2,3,11,3,1,,,,,
,0.17,,,,,,,,,d,orange,5fde82a1dd8cf15d19961474,2021-09-27_16h13.52.144,forced_choiceRT_color,2021.2.3,Win32,59.97361161,,,,,,,,10,Ontime,long,d,1,1.9977,3,0,12,0,1,,,,,
,0.33,,,,,,,,,f,blue,5fde82a1dd8cf15d19961474,2021-09-27_16h13.52.144,forced_choiceRT_color,2021.2.3,Win32,59.97361161,,,,,,,,10,Slow,long,f,1,2.1061,3,1,13,1,1,,,,,
,0.86,,,,,,,,,d,orange,5fde82a1dd8cf15d19961474,2021-09-27_16h13.52.144,forced_choiceRT_color,2021.2.3,Win32,59.97361161,,,,,,,,10,Ontime,long,d,1,1.9785,3,2,14,0,1,,,,,
,1.74,,,,,,,,,d,orange,5fde82a1dd8cf15d19961474,2021-09-27_16h13.52.144,forced_choiceRT_color,2021.2.3,Win32,59.97361161,,,,,,,,10,Ontime,long,f,0,1.9907,3,3,15,0,1,,,,,
,0.53,,,,,,,,,d,orange,5fde82a1dd8cf15d19961474,2021-09-27_16h13.52.144,forced_choiceRT_color,2021.2.3,Win32,59.97361161,,,,,,,,10,Fast,long,d,1,1.8913,4,0,16,0,1,,,,,
,0.84,,,,,,,,,f,blue,5fde82a1dd8cf15d19961474,2021-09-27_16h13.52.144,forced_choiceRT_color,2021.2.3,Win32,59.97361161,,,,,,,,10,Ontime,long,f,1,2.0677,4,1,17,1,1,,,,,
,0.23,,,,,,,,,k,purple,5fde82a1dd8cf15d19961474,2021-09-27_16h13.52.144,forced_choiceRT_color,2021.2.3,Win32,59.97361161,,,,,,,,10,Ontime,long,k,1,2.0455,4,2,18,3,1,,,,,
,0.59,,,,,,,,,k,purple,5fde82a1dd8cf15d19961474,2021-09-27_16h13.52.144,forced_choiceRT_color,2021.2.3,Win32,59.97361161,,,,,,,,10,Ontime,long,k,1,2.0912,4,3,19,3,1,,,,,
,0.81,,,,,,,,,j,red,5fde82a1dd8cf15d19961474,2021-09-27_16h13.52.144,forced_choiceRT_color,2021.2.3,Win32,59.97361161,,,,,,,,10,Ontime,long,j,1,1.9697,5,0,20,2,1,,,,,
,0.82,,,,,,,,,f,blue,5fde82a1dd8cf15d19961474,2021-09-27_16h13.52.144,forced_choiceRT_color,2021.2.3,Win32,59.97361161,,,,,,,,10,Ontime,long,f,1,2.0391,5,1,21,1,1,,,,,
,1.59,,,,,,,,,d,orange,5fde82a1dd8cf15d19961474,2021-09-27_16h13.52.144,forced_choiceRT_color,2021.2.3,Win32,59.97361161,,,,,,,,10,Ontime,long,d,1,2.0712,5,2,22,0,1,,,,,
,0.84,,,,,,,,,j,red,5fde82a1dd8cf15d19961474,2021-09-27_16h13.52.144,forced_choiceRT_color,2021.2.3,Win32,59.97361161,,,,,,,,10,Ontime,long,j,1,1.9764,5,3,23,2,1,,,,,
,0.02,,,,,,,,,k,purple,5fde82a1dd8cf15d19961474,2021-09-27_16h13.52.144,forced_choiceRT_color,2021.2.3,Win32,59.97361161,,,,,,,,10,Ontime,long,k,1,2.0288,6,0,24,3,1,,,,,
,0.21,,,,,,,,,f,blue,5fde82a1dd8cf15d19961474,2021-09-27_16h13.52.144,forced_choiceRT_color,2021.2.3,Win32,59.97361161,,,,,,,,10,Ontime,long,f,1,2.093,6,1,25,1,1,,,,,
,0.13,,,,,,,,,j,red,5fde82a1dd8cf15d19961474,2021-09-27_16h13.52.144,forced_choiceRT_color,2021.2.3,Win32,59.97361161,,,,,,,,10,Ontime,long,j,1,2.0727,6,2,26,2,1,,,,,
,1.72,,,,,,,,,j,red,5fde82a1dd8cf15d19961474,2021-09-27_16h13.52.144,forced_choiceRT_color,2021.2.3,Win32,59.97361161,,,,,,,,10,Ontime,long,j,1,1.976,6,3,27,2,1,,,,,
,1.55,,,,,,,,,j,red,5fde82a1dd8cf15d19961474,2021-09-27_16h13.52.144,forced_choiceRT_color,2021.2.3,Win32,59.97361161,,,,,,,,10,Slow,long,j,1,2.2379,7,0,28,2,1,,,,,
,1.69,,,,,,,,,f,blue,5fde82a1dd8cf15d19961474,2021-09-27_16h13.52.144,forced_choiceRT_color,2021.2.3,Win32,59.97361161,,,,,,,,10,Ontime,long,k,0,1.9497,7,1,29,1,1,,,,,
,1.57,,,,,,,,,d,orange,5fde82a1dd8cf15d19961474,2021-09-27_16h13.52.144,forced_choiceRT_color,2021.2.3,Win32,59.97361161,,,,,,,,10,Slow,long,d,1,2.2123,7,2,30,0,1,,,,,
,0.87,,,,,,,,,f,blue,5fde82a1dd8cf15d19961474,2021-09-27_16h13.52.144,forced_choiceRT_color,2021.2.3,Win32,59.97361161,,,,,,,,10,Ontime,long,f,1,2.013,7,3,31,1,1,,,,,
,1.94,,,,,,,,,d,orange,5fde82a1dd8cf15d19961474,2021-09-27_16h13.52.144,forced_choiceRT_color,2021.2.3,Win32,59.97361161,,,,,,,,10,Ontime,long,d,1,1.9451,8,0,32,0,1,,,,,
,0.3,,,,,,,,,d,orange,5fde82a1dd8cf15d19961474,2021-09-27_16h13.52.144,forced_choiceRT_color,2021.2.3,Win32,59.97361161,,,,,,,,10,Ontime,long,d,1,2.0324,8,1,33,0,1,,,,,
,1.58,,,,,,,,,f,blue,5fde82a1dd8cf15d19961474,2021-09-27_16h13.52.144,forced_choiceRT_color,2021.2.3,Win32,59.97361161,,,,,,,,10,Slow,long,f,1,2.1742,8,2,34,1,1,,,,,
,0.24,,,,,,,,,d,orange,5fde82a1dd8cf15d19961474,2021-09-27_16h13.52.144,forced_choiceRT_color,2021.2.3,Win32,59.97361161,,,,,,,,10,Ontime,long,d,1,2.0739,8,3,35,0,1,,,,,
,0.23,,,,,,,,,k,purple,5fde82a1dd8cf15d19961474,2021-09-27_16h13.52.144,forced_choiceRT_color,2021.2.3,Win32,59.97361161,,,,,,,,10,Ontime,long,k,1,1.9684,9,0,36,3,1,,,,,
,0.71,,,,,,,,,j,red,5fde82a1dd8cf15d19961474,2021-09-27_16h13.52.144,forced_choiceRT_color,2021.2.3,Win32,59.97361161,,,,,,,,10,Ontime,long,j,1,1.9625,9,1,37,2,1,,,,,
,0.42,,,,,,,,,k,purple,5fde82a1dd8cf15d19961474,2021-09-27_16h13.52.144,forced_choiceRT_color,2021.2.3,Win32,59.97361161,,,,,,,,10,Ontime,long,k,1,1.9772,9,2,38,3,1,,,,,
,0.71,,,,,,,,,k,purple,5fde82a1dd8cf15d19961474,2021-09-27_16h13.52.144,forced_choiceRT_color,2021.2.3,Win32,59.97361161,,,,,,,,10,Ontime,long,k,1,2.0858,9,3,39,3,1,,,,,
,,,,,,,,,,,,5fde82a1dd8cf15d19961474,2021-09-27_16h13.52.144,forced_choiceRT_color,2021.2.3,Win32,59.97361161,,,,,,,,,,,,,,,,,,,9,0,9,0,1
