IP_Addresss,target_onset,trial_resp_sp.keys,trial_resp_sp.corr,trial_resp_sp.rt,trials_train_loop.thisRepN,trials_train_loop.thisTrialN,trials_train_loop.thisN,trials_train_loop.thisIndex,trials_train_loop.ran,correct_key,color,participant,date,expName,psychopyVersion,OS,frameRate,trial_resp_timing.keys,trial_resp_timing.rt,trials_train_timing.thisRepN,trials_train_timing.thisTrialN,trials_train_timing.thisN,trials_train_timing.thisIndex,trials_train_timing.ran,block_id,ontime,feedback_cond,forcedRT_resp.keys,forcedRT_resp.corr,forcedRT_resp.rt,trials.thisRepN,trials.thisTrialN,trials.thisN,trials.thisIndex,trials.ran,blocks.thisRepN,blocks.thisTrialN,blocks.thisN,blocks.thisIndex,blocks.ran
99.5.244.213,0,f,1,1.9762,0,0,0,1,1,f,blue,6017c3b1a4e4aaa45656b73f,2021-09-27_16h15.42.653,forced_choiceRT_color,2021.2.3,Win32,60.06006006,,,,,,,,,,,,,,,,,,,,,,,
,0,d,1,1.0159,0,1,1,0,1,d,orange,6017c3b1a4e4aaa45656b73f,2021-09-27_16h15.42.653,forced_choiceRT_color,2021.2.3,Win32,60.06006006,,,,,,,,,,,,,,,,,,,,,,,
,0,d,1,0.6989,0,2,2,0,1,d,orange,6017c3b1a4e4aaa45656b73f,2021-09-27_16h15.42.653,forced_choiceRT_color,2021.2.3,Win32,60.06006006,,,,,,,,,,,,,,,,,,,,,,,
,0,j,1,0.6186,0,3,3,2,1,j,red,6017c3b1a4e4aaa45656b73f,2021-09-27_16h15.42.653,forced_choiceRT_color,2021.2.3,Win32,60.06006006,,,,,,,,,,,,,,,,,,,,,,,
,0,f,1,0.8214,1,0,4,1,1,f,blue,6017c3b1a4e4aaa45656b73f,2021-09-27_16h15.42.653,forced_choiceRT_color,2021.2.3,Win32,60.06006006,,,,,,,,,,,,,,,,,,,,,,,
,0,d,1,0.7183,1,1,5,0,1,d,orange,6017c3b1a4e4aaa45656b73f,2021-09-27_16h15.42.653,forced_choiceRT_color,2021.2.3,Win32,60.06006006,,,,,,,,,,,,,,,,,,,,,,,
,0,j,1,0.7823,1,2,6,2,1,j,red,6017c3b1a4e4aaa45656b73f,2021-09-27_16h15.42.653,forced_choiceRT_color,2021.2.3,Win32,60.06006006,,,,,,,,,,,,,,,,,,,,,,,
,0,k,1,0.5133,1,3,7,3,1,k,purple,6017c3b1a4e4aaa45656b73f,2021-09-27_16h15.42.653,forced_choiceRT_color,2021.2.3,Win32,60.06006006,,,,,,,,,,,,,,,,,,,,,,,
,0,j,1,0.563,2,0,8,2,1,j,red,6017c3b1a4e4aaa45656b73f,2021-09-27_16h15.42.653,forced_choiceRT_color,2021.2.3,Win32,60.06006006,,,,,,,,,,,,,,,,,,,,,,,
,0,k,1,0.8174,2,1,9,3,1,k,purple,6017c3b1a4e4aaa45656b73f,2021-09-27_16h15.42.653,forced_choiceRT_color,2021.2.3,Win32,60.06006006,,,,,,,,,,,,,,,,,,,,,,,
,0,j,1,0.5905,2,2,10,2,1,j,red,6017c3b1a4e4aaa45656b73f,2021-09-27_16h15.42.653,forced_choiceRT_color,2021.2.3,Win32,60.06006006,,,,,,,,,,,,,,,,,,,,,,,
,0,d,1,0.6512,2,3,11,0,1,d,orange,6017c3b1a4e4aaa45656b73f,2021-09-27_16h15.42.653,forced_choiceRT_color,2021.2.3,Win32,60.06006006,,,,,,,,,,,,,,,,,,,,,,,
,0,d,1,0.4498,3,0,12,0,1,d,orange,6017c3b1a4e4aaa45656b73f,2021-09-27_16h15.42.653,forced_choiceRT_color,2021.2.3,Win32,60.06006006,,,,,,,,,,,,,,,,,,,,,,,
,0,k,1,0.6849,3,1,13,3,1,k,purple,6017c3b1a4e4aaa45656b73f,2021-09-27_16h15.42.653,forced_choiceRT_color,2021.2.3,Win32,60.06006006,,,,,,,,,,,,,,,,,,,,,,,
,0,d,1,0.6758,3,2,14,0,1,d,orange,6017c3b1a4e4aaa45656b73f,2021-09-27_16h15.42.653,forced_choiceRT_color,2021.2.3,Win32,60.06006006,,,,,,,,,,,,,,,,,,,,,,,
,0,k,1,0.6041,3,3,15,3,1,k,purple,6017c3b1a4e4aaa45656b73f,2021-09-27_16h15.42.653,forced_choiceRT_color,2021.2.3,Win32,60.06006006,,,,,,,,,,,,,,,,,,,,,,,
,0,d,1,0.5076,4,0,16,0,1,d,orange,6017c3b1a4e4aaa45656b73f,2021-09-27_16h15.42.653,forced_choiceRT_color,2021.2.3,Win32,60.06006006,,,,,,,,,,,,,,,,,,,,,,,
,0,j,1,0.6075,4,1,17,2,1,j,red,6017c3b1a4e4aaa45656b73f,2021-09-27_16h15.42.653,forced_choiceRT_color,2021.2.3,Win32,60.06006006,,,,,,,,,,,,,,,,,,,,,,,
,0,f,1,0.6999,4,2,18,1,1,f,blue,6017c3b1a4e4aaa45656b73f,2021-09-27_16h15.42.653,forced_choiceRT_color,2021.2.3,Win32,60.06006006,,,,,,,,,,,,,,,,,,,,,,,
,0,j,1,0.5832,4,3,19,2,1,j,red,6017c3b1a4e4aaa45656b73f,2021-09-27_16h15.42.653,forced_choiceRT_color,2021.2.3,Win32,60.06006006,,,,,,,,,,,,,,,,,,,,,,,
,0,k,1,0.6378,5,0,20,3,1,k,purple,6017c3b1a4e4aaa45656b73f,2021-09-27_16h15.42.653,forced_choiceRT_color,2021.2.3,Win32,60.06006006,,,,,,,,,,,,,,,,,,,,,,,
,0,f,1,0.9825,5,1,21,1,1,f,blue,6017c3b1a4e4aaa45656b73f,2021-09-27_16h15.42.653,forced_choiceRT_color,2021.2.3,Win32,60.06006006,,,,,,,,,,,,,,,,,,,,,,,
,0,j,1,0.6872,5,2,22,2,1,j,red,6017c3b1a4e4aaa45656b73f,2021-09-27_16h15.42.653,forced_choiceRT_color,2021.2.3,Win32,60.06006006,,,,,,,,,,,,,,,,,,,,,,,
,0,f,1,0.6977,5,3,23,1,1,f,blue,6017c3b1a4e4aaa45656b73f,2021-09-27_16h15.42.653,forced_choiceRT_color,2021.2.3,Win32,60.06006006,,,,,,,,,,,,,,,,,,,,,,,
,0,k,1,0.7161,6,0,24,3,1,k,purple,6017c3b1a4e4aaa45656b73f,2021-09-27_16h15.42.653,forced_choiceRT_color,2021.2.3,Win32,60.06006006,,,,,,,,,,,,,,,,,,,,,,,
,0,k,1,0.5221,6,1,25,3,1,k,purple,6017c3b1a4e4aaa45656b73f,2021-09-27_16h15.42.653,forced_choiceRT_color,2021.2.3,Win32,60.06006006,,,,,,,,,,,,,,,,,,,,,,,
,0,d,1,0.6833,6,2,26,0,1,d,orange,6017c3b1a4e4aaa45656b73f,2021-09-27_16h15.42.653,forced_choiceRT_color,2021.2.3,Win32,60.06006006,,,,,,,,,,,,,,,,,,,,,,,
,0,j,1,0.6867,6,3,27,2,1,j,red,6017c3b1a4e4aaa45656b73f,2021-09-27_16h15.42.653,forced_choiceRT_color,2021.2.3,Win32,60.06006006,,,,,,,,,,,,,,,,,,,,,,,
,0,j,1,0.5224,7,0,28,2,1,j,red,6017c3b1a4e4aaa45656b73f,2021-09-27_16h15.42.653,forced_choiceRT_color,2021.2.3,Win32,60.06006006,,,,,,,,,,,,,,,,,,,,,,,
,0,d,1,0.7328,7,1,29,0,1,d,orange,6017c3b1a4e4aaa45656b73f,2021-09-27_16h15.42.653,forced_choiceRT_color,2021.2.3,Win32,60.06006006,,,,,,,,,,,,,,,,,,,,,,,
,0,j,1,0.7321,7,2,30,2,1,j,red,6017c3b1a4e4aaa45656b73f,2021-09-27_16h15.42.653,forced_choiceRT_color,2021.2.3,Win32,60.06006006,,,,,,,,,,,,,,,,,,,,,,,
,0,k,1,0.5412,7,3,31,3,1,k,purple,6017c3b1a4e4aaa45656b73f,2021-09-27_16h15.42.653,forced_choiceRT_color,2021.2.3,Win32,60.06006006,,,,,,,,,,,,,,,,,,,,,,,
,0,f,1,0.776,8,0,32,1,1,f,blue,6017c3b1a4e4aaa45656b73f,2021-09-27_16h15.42.653,forced_choiceRT_color,2021.2.3,Win32,60.06006006,,,,,,,,,,,,,,,,,,,,,,,
,0,k,1,0.8067,8,1,33,3,1,k,purple,6017c3b1a4e4aaa45656b73f,2021-09-27_16h15.42.653,forced_choiceRT_color,2021.2.3,Win32,60.06006006,,,,,,,,,,,,,,,,,,,,,,,
,0,d,1,0.7465,8,2,34,0,1,d,orange,6017c3b1a4e4aaa45656b73f,2021-09-27_16h15.42.653,forced_choiceRT_color,2021.2.3,Win32,60.06006006,,,,,,,,,,,,,,,,,,,,,,,
,0,d,1,0.5419,8,3,35,0,1,d,orange,6017c3b1a4e4aaa45656b73f,2021-09-27_16h15.42.653,forced_choiceRT_color,2021.2.3,Win32,60.06006006,,,,,,,,,,,,,,,,,,,,,,,
,0,k,1,0.6914,9,0,36,3,1,k,purple,6017c3b1a4e4aaa45656b73f,2021-09-27_16h15.42.653,forced_choiceRT_color,2021.2.3,Win32,60.06006006,,,,,,,,,,,,,,,,,,,,,,,
,0,f,1,0.6994,9,1,37,1,1,f,blue,6017c3b1a4e4aaa45656b73f,2021-09-27_16h15.42.653,forced_choiceRT_color,2021.2.3,Win32,60.06006006,,,,,,,,,,,,,,,,,,,,,,,
,0,d,1,0.5652,9,2,38,0,1,d,orange,6017c3b1a4e4aaa45656b73f,2021-09-27_16h15.42.653,forced_choiceRT_color,2021.2.3,Win32,60.06006006,,,,,,,,,,,,,,,,,,,,,,,
,0,f,1,0.7682,9,3,39,1,1,f,blue,6017c3b1a4e4aaa45656b73f,2021-09-27_16h15.42.653,forced_choiceRT_color,2021.2.3,Win32,60.06006006,,,,,,,,,,,,,,,,,,,,,,,
,0,k,1,0.7566,10,0,40,3,1,k,purple,6017c3b1a4e4aaa45656b73f,2021-09-27_16h15.42.653,forced_choiceRT_color,2021.2.3,Win32,60.06006006,,,,,,,,,,,,,,,,,,,,,,,
,0,f,1,0.6801,10,1,41,1,1,f,blue,6017c3b1a4e4aaa45656b73f,2021-09-27_16h15.42.653,forced_choiceRT_color,2021.2.3,Win32,60.06006006,,,,,,,,,,,,,,,,,,,,,,,
,0,f,1,0.6649,10,2,42,1,1,f,blue,6017c3b1a4e4aaa45656b73f,2021-09-27_16h15.42.653,forced_choiceRT_color,2021.2.3,Win32,60.06006006,,,,,,,,,,,,,,,,,,,,,,,
,0,d,1,0.5753,10,3,43,0,1,d,orange,6017c3b1a4e4aaa45656b73f,2021-09-27_16h15.42.653,forced_choiceRT_color,2021.2.3,Win32,60.06006006,,,,,,,,,,,,,,,,,,,,,,,
,0,k,1,0.683,11,0,44,3,1,k,purple,6017c3b1a4e4aaa45656b73f,2021-09-27_16h15.42.653,forced_choiceRT_color,2021.2.3,Win32,60.06006006,,,,,,,,,,,,,,,,,,,,,,,
,0,j,1,0.6156,11,1,45,2,1,j,red,6017c3b1a4e4aaa45656b73f,2021-09-27_16h15.42.653,forced_choiceRT_color,2021.2.3,Win32,60.06006006,,,,,,,,,,,,,,,,,,,,,,,
,0,d,1,0.6803,11,2,46,0,1,d,orange,6017c3b1a4e4aaa45656b73f,2021-09-27_16h15.42.653,forced_choiceRT_color,2021.2.3,Win32,60.06006006,,,,,,,,,,,,,,,,,,,,,,,
,0,k,1,0.5907,11,3,47,3,1,k,purple,6017c3b1a4e4aaa45656b73f,2021-09-27_16h15.42.653,forced_choiceRT_color,2021.2.3,Win32,60.06006006,,,,,,,,,,,,,,,,,,,,,,,
,0,f,1,0.9252,12,0,48,1,1,f,blue,6017c3b1a4e4aaa45656b73f,2021-09-27_16h15.42.653,forced_choiceRT_color,2021.2.3,Win32,60.06006006,,,,,,,,,,,,,,,,,,,,,,,
,0,k,1,0.684,12,1,49,3,1,k,purple,6017c3b1a4e4aaa45656b73f,2021-09-27_16h15.42.653,forced_choiceRT_color,2021.2.3,Win32,60.06006006,,,,,,,,,,,,,,,,,,,,,,,
,0,f,1,1.0315,12,2,50,1,1,f,blue,6017c3b1a4e4aaa45656b73f,2021-09-27_16h15.42.653,forced_choiceRT_color,2021.2.3,Win32,60.06006006,,,,,,,,,,,,,,,,,,,,,,,
,0,j,1,0.6495,12,3,51,2,1,j,red,6017c3b1a4e4aaa45656b73f,2021-09-27_16h15.42.653,forced_choiceRT_color,2021.2.3,Win32,60.06006006,,,,,,,,,,,,,,,,,,,,,,,
,0,j,1,0.57,13,0,52,2,1,j,red,6017c3b1a4e4aaa45656b73f,2021-09-27_16h15.42.653,forced_choiceRT_color,2021.2.3,Win32,60.06006006,,,,,,,,,,,,,,,,,,,,,,,
,0,f,1,0.6508,13,1,53,1,1,f,blue,6017c3b1a4e4aaa45656b73f,2021-09-27_16h15.42.653,forced_choiceRT_color,2021.2.3,Win32,60.06006006,,,,,,,,,,,,,,,,,,,,,,,
,0,f,0,0.4745,13,2,54,2,1,j,red,6017c3b1a4e4aaa45656b73f,2021-09-27_16h15.42.653,forced_choiceRT_color,2021.2.3,Win32,60.06006006,,,,,,,,,,,,,,,,,,,,,,,
,0,f,1,0.9368,13,3,55,1,1,f,blue,6017c3b1a4e4aaa45656b73f,2021-09-27_16h15.42.653,forced_choiceRT_color,2021.2.3,Win32,60.06006006,,,,,,,,,,,,,,,,,,,,,,,
,0,d,1,0.6262,14,0,56,0,1,d,orange,6017c3b1a4e4aaa45656b73f,2021-09-27_16h15.42.653,forced_choiceRT_color,2021.2.3,Win32,60.06006006,,,,,,,,,,,,,,,,,,,,,,,
,0,j,1,0.6666,14,1,57,2,1,j,red,6017c3b1a4e4aaa45656b73f,2021-09-27_16h15.42.653,forced_choiceRT_color,2021.2.3,Win32,60.06006006,,,,,,,,,,,,,,,,,,,,,,,
,0,k,1,0.5535,14,2,58,3,1,k,purple,6017c3b1a4e4aaa45656b73f,2021-09-27_16h15.42.653,forced_choiceRT_color,2021.2.3,Win32,60.06006006,,,,,,,,,,,,,,,,,,,,,,,
,0,f,1,0.7401,14,3,59,1,1,f,blue,6017c3b1a4e4aaa45656b73f,2021-09-27_16h15.42.653,forced_choiceRT_color,2021.2.3,Win32,60.06006006,,,,,,,,,,,,,,,,,,,,,,,
,,,,,,,,,,,,6017c3b1a4e4aaa45656b73f,2021-09-27_16h15.42.653,forced_choiceRT_color,2021.2.3,Win32,60.06006006,d,2.2909,0,0,0,0,1,,,,,,,,,,,,,,,,
,,,,,,,,,,,,6017c3b1a4e4aaa45656b73f,2021-09-27_16h15.42.653,forced_choiceRT_color,2021.2.3,Win32,60.06006006,d,1.9162,1,0,1,0,1,,,,,,,,,,,,,,,,
,,,,,,,,,,,,6017c3b1a4e4aaa45656b73f,2021-09-27_16h15.42.653,forced_choiceRT_color,2021.2.3,Win32,60.06006006,f,1.6656,2,0,2,0,1,,,,,,,,,,,,,,,,
,,,,,,,,,,,,6017c3b1a4e4aaa45656b73f,2021-09-27_16h15.42.653,forced_choiceRT_color,2021.2.3,Win32,60.06006006,k,1.6169,3,0,3,0,1,,,,,,,,,,,,,,,,
,,,,,,,,,,,,6017c3b1a4e4aaa45656b73f,2021-09-27_16h15.42.653,forced_choiceRT_color,2021.2.3,Win32,60.06006006,k,2.1148,4,0,4,0,1,,,,,,,,,,,,,,,,
,,,,,,,,,,,,6017c3b1a4e4aaa45656b73f,2021-09-27_16h15.42.653,forced_choiceRT_color,2021.2.3,Win32,60.06006006,j,1.9296,5,0,5,0,1,,,,,,,,,,,,,,,,
,,,,,,,,,,,,6017c3b1a4e4aaa45656b73f,2021-09-27_16h15.42.653,forced_choiceRT_color,2021.2.3,Win32,60.06006006,f,1.8662,6,0,6,0,1,,,,,,,,,,,,,,,,
,,,,,,,,,,,,6017c3b1a4e4aaa45656b73f,2021-09-27_16h15.42.653,forced_choiceRT_color,2021.2.3,Win32,60.06006006,d,1.9995,7,0,7,0,1,,,,,,,,,,,,,,,,
,,,,,,,,,,,,6017c3b1a4e4aaa45656b73f,2021-09-27_16h15.42.653,forced_choiceRT_color,2021.2.3,Win32,60.06006006,k,1.9663,8,0,8,0,1,,,,,,,,,,,,,,,,
,,,,,,,,,,,,6017c3b1a4e4aaa45656b73f,2021-09-27_16h15.42.653,forced_choiceRT_color,2021.2.3,Win32,60.06006006,j,1.8491,9,0,9,0,1,,,,,,,,,,,,,,,,
,,,,,,,,,,,,6017c3b1a4e4aaa45656b73f,2021-09-27_16h15.42.653,forced_choiceRT_color,2021.2.3,Win32,60.06006006,f,1.9576,10,0,10,0,1,,,,,,,,,,,,,,,,
,,,,,,,,,,,,6017c3b1a4e4aaa45656b73f,2021-09-27_16h15.42.653,forced_choiceRT_color,2021.2.3,Win32,60.06006006,d,1.9826,11,0,11,0,1,,,,,,,,,,,,,,,,
,,,,,,,,,,,,6017c3b1a4e4aaa45656b73f,2021-09-27_16h15.42.653,forced_choiceRT_color,2021.2.3,Win32,60.06006006,d,2.0056,12,0,12,0,1,,,,,,,,,,,,,,,,
,,,,,,,,,,,,6017c3b1a4e4aaa45656b73f,2021-09-27_16h15.42.653,forced_choiceRT_color,2021.2.3,Win32,60.06006006,f,2.1755,13,0,13,0,1,,,,,,,,,,,,,,,,
,,,,,,,,,,,,6017c3b1a4e4aaa45656b73f,2021-09-27_16h15.42.653,forced_choiceRT_color,2021.2.3,Win32,60.06006006,j,2.0584,14,0,14,0,1,,,,,,,,,,,,,,,,
,,,,,,,,,,,,6017c3b1a4e4aaa45656b73f,2021-09-27_16h15.42.653,forced_choiceRT_color,2021.2.3,Win32,60.06006006,k,2.016,15,0,15,0,1,,,,,,,,,,,,,,,,
,,,,,,,,,,,,6017c3b1a4e4aaa45656b73f,2021-09-27_16h15.42.653,forced_choiceRT_color,2021.2.3,Win32,60.06006006,k,2.016,16,0,16,0,1,,,,,,,,,,,,,,,,
,,,,,,,,,,,,6017c3b1a4e4aaa45656b73f,2021-09-27_16h15.42.653,forced_choiceRT_color,2021.2.3,Win32,60.06006006,j,1.9828,17,0,17,0,1,,,,,,,,,,,,,,,,
,,,,,,,,,,,,6017c3b1a4e4aaa45656b73f,2021-09-27_16h15.42.653,forced_choiceRT_color,2021.2.3,Win32,60.06006006,f,2.0384,18,0,18,0,1,,,,,,,,,,,,,,,,
,,,,,,,,,,,,6017c3b1a4e4aaa45656b73f,2021-09-27_16h15.42.653,forced_choiceRT_color,2021.2.3,Win32,60.06006006,d,1.9853,19,0,19,0,1,,,,,,,,,,,,,,,,
,1.7,,,,,,,,,f,blue,6017c3b1a4e4aaa45656b73f,2021-09-27_16h15.42.653,forced_choiceRT_color,2021.2.3,Win32,60.06006006,,,,,,,,1,Slow,long,f,1,2.3761,0,0,0,1,1,,,,,
,0.72,,,,,,,,,d,orange,6017c3b1a4e4aaa45656b73f,2021-09-27_16h15.42.653,forced_choiceRT_color,2021.2.3,Win32,60.06006006,,,,,,,,1,Ontime,long,d,1,2.0686,0,1,1,0,1,,,,,
,0.49,,,,,,,,,k,purple,6017c3b1a4e4aaa45656b73f,2021-09-27_16h15.42.653,forced_choiceRT_color,2021.2.3,Win32,60.06006006,,,,,,,,1,Ontime,long,k,1,2.0709,0,2,2,3,1,,,,,
,1.45,,,,,,,,,d,orange,6017c3b1a4e4aaa45656b73f,2021-09-27_16h15.42.653,forced_choiceRT_color,2021.2.3,Win32,60.06006006,,,,,,,,1,Ontime,long,d,1,2.0554,0,3,3,0,1,,,,,
,0.93,,,,,,,,,j,red,6017c3b1a4e4aaa45656b73f,2021-09-27_16h15.42.653,forced_choiceRT_color,2021.2.3,Win32,60.06006006,,,,,,,,1,Ontime,long,j,1,2.0807,1,0,4,2,1,,,,,
,0.25,,,,,,,,,k,purple,6017c3b1a4e4aaa45656b73f,2021-09-27_16h15.42.653,forced_choiceRT_color,2021.2.3,Win32,60.06006006,,,,,,,,1,Ontime,long,k,1,2.0966,1,1,5,3,1,,,,,
,0.14,,,,,,,,,f,blue,6017c3b1a4e4aaa45656b73f,2021-09-27_16h15.42.653,forced_choiceRT_color,2021.2.3,Win32,60.06006006,,,,,,,,1,Fast,long,f,1,1.7742,1,2,6,1,1,,,,,
,1.74,,,,,,,,,d,orange,6017c3b1a4e4aaa45656b73f,2021-09-27_16h15.42.653,forced_choiceRT_color,2021.2.3,Win32,60.06006006,,,,,,,,1,Slow,long,d,1,2.2238,1,3,7,0,1,,,,,
,1.07,,,,,,,,,k,purple,6017c3b1a4e4aaa45656b73f,2021-09-27_16h15.42.653,forced_choiceRT_color,2021.2.3,Win32,60.06006006,,,,,,,,1,Slow,long,k,1,2.1829,2,0,8,3,1,,,,,
,1.91,,,,,,,,,k,purple,6017c3b1a4e4aaa45656b73f,2021-09-27_16h15.42.653,forced_choiceRT_color,2021.2.3,Win32,60.06006006,,,,,,,,1,Slow,long,k,1,3.4353,2,1,9,3,1,,,,,
,0.71,,,,,,,,,k,purple,6017c3b1a4e4aaa45656b73f,2021-09-27_16h15.42.653,forced_choiceRT_color,2021.2.3,Win32,60.06006006,,,,,,,,1,Ontime,long,k,1,2.0076,2,2,10,3,1,,,,,
,1.73,,,,,,,,,d,orange,6017c3b1a4e4aaa45656b73f,2021-09-27_16h15.42.653,forced_choiceRT_color,2021.2.3,Win32,60.06006006,,,,,,,,1,Slow,long,d,1,2.214,2,3,11,0,1,,,,,
,0.56,,,,,,,,,d,orange,6017c3b1a4e4aaa45656b73f,2021-09-27_16h15.42.653,forced_choiceRT_color,2021.2.3,Win32,60.06006006,,,,,,,,1,Ontime,long,d,1,2.0724,3,0,12,0,1,,,,,
,0.32,,,,,,,,,f,blue,6017c3b1a4e4aaa45656b73f,2021-09-27_16h15.42.653,forced_choiceRT_color,2021.2.3,Win32,60.06006006,,,,,,,,1,Fast,long,f,1,1.8386,3,1,13,1,1,,,,,
,1.33,,,,,,,,,k,purple,6017c3b1a4e4aaa45656b73f,2021-09-27_16h15.42.653,forced_choiceRT_color,2021.2.3,Win32,60.06006006,,,,,,,,1,Ontime,long,k,1,1.9011,3,2,14,3,1,,,,,
,0.12,,,,,,,,,k,purple,6017c3b1a4e4aaa45656b73f,2021-09-27_16h15.42.653,forced_choiceRT_color,2021.2.3,Win32,60.06006006,,,,,,,,1,Fast,long,k,1,1.842,3,3,15,3,1,,,,,
,1.99,,,,,,,,,d,orange,6017c3b1a4e4aaa45656b73f,2021-09-27_16h15.42.653,forced_choiceRT_color,2021.2.3,Win32,60.06006006,,,,,,,,1,Slow,long,d,1,2.6318,4,0,16,0,1,,,,,
,0.77,,,,,,,,,d,orange,6017c3b1a4e4aaa45656b73f,2021-09-27_16h15.42.653,forced_choiceRT_color,2021.2.3,Win32,60.06006006,,,,,,,,1,Ontime,long,d,1,2.0014,4,1,17,0,1,,,,,
,0.76,,,,,,,,,j,red,6017c3b1a4e4aaa45656b73f,2021-09-27_16h15.42.653,forced_choiceRT_color,2021.2.3,Win32,60.06006006,,,,,,,,1,Ontime,long,j,1,2.0691,4,2,18,2,1,,,,,
,0.8,,,,,,,,,f,blue,6017c3b1a4e4aaa45656b73f,2021-09-27_16h15.42.653,forced_choiceRT_color,2021.2.3,Win32,60.06006006,,,,,,,,1,Fast,long,f,1,1.8239,4,3,19,1,1,,,,,
,0.91,,,,,,,,,j,red,6017c3b1a4e4aaa45656b73f,2021-09-27_16h15.42.653,forced_choiceRT_color,2021.2.3,Win32,60.06006006,,,,,,,,1,Ontime,long,j,1,2.0604,5,0,20,2,1,,,,,
,1.74,,,,,,,,,f,blue,6017c3b1a4e4aaa45656b73f,2021-09-27_16h15.42.653,forced_choiceRT_color,2021.2.3,Win32,60.06006006,,,,,,,,1,Slow,long,d,0,2.2459,5,1,21,1,1,,,,,
,0.23,,,,,,,,,f,blue,6017c3b1a4e4aaa45656b73f,2021-09-27_16h15.42.653,forced_choiceRT_color,2021.2.3,Win32,60.06006006,,,,,,,,1,Ontime,long,f,1,2.0071,5,2,22,1,1,,,,,
,0.97,,,,,,,,,j,red,6017c3b1a4e4aaa45656b73f,2021-09-27_16h15.42.653,forced_choiceRT_color,2021.2.3,Win32,60.06006006,,,,,,,,1,Ontime,long,j,1,2.0895,5,3,23,2,1,,,,,
,0.58,,,,,,,,,k,purple,6017c3b1a4e4aaa45656b73f,2021-09-27_16h15.42.653,forced_choiceRT_color,2021.2.3,Win32,60.06006006,,,,,,,,1,Slow,long,k,1,2.1212,6,0,24,3,1,,,,,
,1.97,,,,,,,,,f,blue,6017c3b1a4e4aaa45656b73f,2021-09-27_16h15.42.653,forced_choiceRT_color,2021.2.3,Win32,60.06006006,,,,,,,,1,Slow,long,j,0,2.3246,6,1,25,1,1,,,,,
,0.79,,,,,,,,,j,red,6017c3b1a4e4aaa45656b73f,2021-09-27_16h15.42.653,forced_choiceRT_color,2021.2.3,Win32,60.06006006,,,,,,,,1,Ontime,long,j,1,2.0917,6,2,26,2,1,,,,,
,1.35,,,,,,,,,k,purple,6017c3b1a4e4aaa45656b73f,2021-09-27_16h15.42.653,forced_choiceRT_color,2021.2.3,Win32,60.06006006,,,,,,,,1,Slow,long,k,1,2.1396,6,3,27,3,1,,,,,
,0.29,,,,,,,,,j,red,6017c3b1a4e4aaa45656b73f,2021-09-27_16h15.42.653,forced_choiceRT_color,2021.2.3,Win32,60.06006006,,,,,,,,1,Fast,long,j,1,1.8347,7,0,28,2,1,,,,,
,1.02,,,,,,,,,d,orange,6017c3b1a4e4aaa45656b73f,2021-09-27_16h15.42.653,forced_choiceRT_color,2021.2.3,Win32,60.06006006,,,,,,,,1,Slow,long,d,1,2.1075,7,1,29,0,1,,,,,
,1.13,,,,,,,,,f,blue,6017c3b1a4e4aaa45656b73f,2021-09-27_16h15.42.653,forced_choiceRT_color,2021.2.3,Win32,60.06006006,,,,,,,,1,Ontime,long,f,1,1.9706,7,2,30,1,1,,,,,
,0.97,,,,,,,,,j,red,6017c3b1a4e4aaa45656b73f,2021-09-27_16h15.42.653,forced_choiceRT_color,2021.2.3,Win32,60.06006006,,,,,,,,1,Ontime,long,j,1,2.0934,7,3,31,2,1,,,,,
,1,,,,,,,,,d,orange,6017c3b1a4e4aaa45656b73f,2021-09-27_16h15.42.653,forced_choiceRT_color,2021.2.3,Win32,60.06006006,,,,,,,,1,Ontime,long,d,1,2.0416,8,0,32,0,1,,,,,
,1.87,,,,,,,,,f,blue,6017c3b1a4e4aaa45656b73f,2021-09-27_16h15.42.653,forced_choiceRT_color,2021.2.3,Win32,60.06006006,,,,,,,,1,Slow,long,f,1,2.4058,8,1,33,1,1,,,,,
,1.2,,,,,,,,,j,red,6017c3b1a4e4aaa45656b73f,2021-09-27_16h15.42.653,forced_choiceRT_color,2021.2.3,Win32,60.06006006,,,,,,,,1,Slow,long,j,1,2.1401,8,2,34,2,1,,,,,
,0.43,,,,,,,,,d,orange,6017c3b1a4e4aaa45656b73f,2021-09-27_16h15.42.653,forced_choiceRT_color,2021.2.3,Win32,60.06006006,,,,,,,,1,Ontime,long,d,1,2.0564,8,3,35,0,1,,,,,
,1.99,,,,,,,,,k,purple,6017c3b1a4e4aaa45656b73f,2021-09-27_16h15.42.653,forced_choiceRT_color,2021.2.3,Win32,60.06006006,,,,,,,,1,Slow,long,k,1,2.3713,9,0,36,3,1,,,,,
,1.13,,,,,,,,,j,red,6017c3b1a4e4aaa45656b73f,2021-09-27_16h15.42.653,forced_choiceRT_color,2021.2.3,Win32,60.06006006,,,,,,,,1,Ontime,long,j,1,2.022,9,1,37,2,1,,,,,
,0.19,,,,,,,,,j,red,6017c3b1a4e4aaa45656b73f,2021-09-27_16h15.42.653,forced_choiceRT_color,2021.2.3,Win32,60.06006006,,,,,,,,1,Slow,long,j,1,2.1217,9,2,38,2,1,,,,,
,0.8,,,,,,,,,f,blue,6017c3b1a4e4aaa45656b73f,2021-09-27_16h15.42.653,forced_choiceRT_color,2021.2.3,Win32,60.06006006,,,,,,,,1,Slow,long,f,1,2.1543,9,3,39,1,1,,,,,
,,,,,,,,,,,,6017c3b1a4e4aaa45656b73f,2021-09-27_16h15.42.653,forced_choiceRT_color,2021.2.3,Win32,60.06006006,,,,,,,,,,,,,,,,,,,0,0,0,0,1
,0.99,,,,,,,,,f,blue,6017c3b1a4e4aaa45656b73f,2021-09-27_16h15.42.653,forced_choiceRT_color,2021.2.3,Win32,60.06006006,,,,,,,,2,Ontime,long,f,1,2.0737,0,0,0,1,1,,,,,
,1.35,,,,,,,,,f,blue,6017c3b1a4e4aaa45656b73f,2021-09-27_16h15.42.653,forced_choiceRT_color,2021.2.3,Win32,60.06006006,,,,,,,,2,Ontime,long,f,1,2.0424,0,1,1,1,1,,,,,
,0.05,,,,,,,,,f,blue,6017c3b1a4e4aaa45656b73f,2021-09-27_16h15.42.653,forced_choiceRT_color,2021.2.3,Win32,60.06006006,,,,,,,,2,Slow,long,f,1,2.1054,0,2,2,1,1,,,,,
,1.38,,,,,,,,,f,blue,6017c3b1a4e4aaa45656b73f,2021-09-27_16h15.42.653,forced_choiceRT_color,2021.2.3,Win32,60.06006006,,,,,,,,2,Ontime,long,f,1,2.0548,0,3,3,1,1,,,,,
,0.54,,,,,,,,,j,red,6017c3b1a4e4aaa45656b73f,2021-09-27_16h15.42.653,forced_choiceRT_color,2021.2.3,Win32,60.06006006,,,,,,,,2,Slow,long,j,1,2.1043,1,0,4,2,1,,,,,
,0.41,,,,,,,,,f,blue,6017c3b1a4e4aaa45656b73f,2021-09-27_16h15.42.653,forced_choiceRT_color,2021.2.3,Win32,60.06006006,,,,,,,,2,Ontime,long,f,1,2.0215,1,1,5,1,1,,,,,
,1.06,,,,,,,,,j,red,6017c3b1a4e4aaa45656b73f,2021-09-27_16h15.42.653,forced_choiceRT_color,2021.2.3,Win32,60.06006006,,,,,,,,2,Ontime,long,j,1,2.0539,1,2,6,2,1,,,,,
,0.82,,,,,,,,,k,purple,6017c3b1a4e4aaa45656b73f,2021-09-27_16h15.42.653,forced_choiceRT_color,2021.2.3,Win32,60.06006006,,,,,,,,2,Ontime,long,k,1,1.9717,1,3,7,3,1,,,,,
,1.28,,,,,,,,,d,orange,6017c3b1a4e4aaa45656b73f,2021-09-27_16h15.42.653,forced_choiceRT_color,2021.2.3,Win32,60.06006006,,,,,,,,2,Ontime,long,d,1,2.0215,2,0,8,0,1,,,,,
,0.61,,,,,,,,,d,orange,6017c3b1a4e4aaa45656b73f,2021-09-27_16h15.42.653,forced_choiceRT_color,2021.2.3,Win32,60.06006006,,,,,,,,2,Ontime,long,d,1,1.9924,2,1,9,0,1,,,,,
,1.34,,,,,,,,,f,blue,6017c3b1a4e4aaa45656b73f,2021-09-27_16h15.42.653,forced_choiceRT_color,2021.2.3,Win32,60.06006006,,,,,,,,2,Slow,long,j,0,2.2224,2,2,10,1,1,,,,,
,0.68,,,,,,,,,d,orange,6017c3b1a4e4aaa45656b73f,2021-09-27_16h15.42.653,forced_choiceRT_color,2021.2.3,Win32,60.06006006,,,,,,,,2,Ontime,long,d,1,2.0588,2,3,11,0,1,,,,,
,1.15,,,,,,,,,j,red,6017c3b1a4e4aaa45656b73f,2021-09-27_16h15.42.653,forced_choiceRT_color,2021.2.3,Win32,60.06006006,,,,,,,,2,Slow,long,j,1,2.1141,3,0,12,2,1,,,,,
,1.29,,,,,,,,,f,blue,6017c3b1a4e4aaa45656b73f,2021-09-27_16h15.42.653,forced_choiceRT_color,2021.2.3,Win32,60.06006006,,,,,,,,2,Slow,long,f,1,2.2716,3,1,13,1,1,,,,,
,1.51,,,,,,,,,j,red,6017c3b1a4e4aaa45656b73f,2021-09-27_16h15.42.653,forced_choiceRT_color,2021.2.3,Win32,60.06006006,,,,,,,,2,Slow,long,j,1,2.1416,3,2,14,2,1,,,,,
,0.55,,,,,,,,,k,purple,6017c3b1a4e4aaa45656b73f,2021-09-27_16h15.42.653,forced_choiceRT_color,2021.2.3,Win32,60.06006006,,,,,,,,2,Ontime,long,k,1,2.0754,3,3,15,3,1,,,,,
,0.84,,,,,,,,,j,red,6017c3b1a4e4aaa45656b73f,2021-09-27_16h15.42.653,forced_choiceRT_color,2021.2.3,Win32,60.06006006,,,,,,,,2,Ontime,long,j,1,2.0541,4,0,16,2,1,,,,,
,0.85,,,,,,,,,d,orange,6017c3b1a4e4aaa45656b73f,2021-09-27_16h15.42.653,forced_choiceRT_color,2021.2.3,Win32,60.06006006,,,,,,,,2,Ontime,long,d,1,2.0581,4,1,17,0,1,,,,,
,0.66,,,,,,,,,j,red,6017c3b1a4e4aaa45656b73f,2021-09-27_16h15.42.653,forced_choiceRT_color,2021.2.3,Win32,60.06006006,,,,,,,,2,Ontime,long,j,1,2.0206,4,2,18,2,1,,,,,
,0.18,,,,,,,,,f,blue,6017c3b1a4e4aaa45656b73f,2021-09-27_16h15.42.653,forced_choiceRT_color,2021.2.3,Win32,60.06006006,,,,,,,,2,Ontime,long,f,1,2.0453,4,3,19,1,1,,,,,
,1.24,,,,,,,,,d,orange,6017c3b1a4e4aaa45656b73f,2021-09-27_16h15.42.653,forced_choiceRT_color,2021.2.3,Win32,60.06006006,,,,,,,,2,Ontime,long,d,1,2.037,5,0,20,0,1,,,,,
,1.84,,,,,,,,,k,purple,6017c3b1a4e4aaa45656b73f,2021-09-27_16h15.42.653,forced_choiceRT_color,2021.2.3,Win32,60.06006006,,,,,,,,2,Slow,long,k,1,2.258,5,1,21,3,1,,,,,
,0.36,,,,,,,,,d,orange,6017c3b1a4e4aaa45656b73f,2021-09-27_16h15.42.653,forced_choiceRT_color,2021.2.3,Win32,60.06006006,,,,,,,,2,Slow,long,d,1,2.1052,5,2,22,0,1,,,,,
,1.47,,,,,,,,,j,red,6017c3b1a4e4aaa45656b73f,2021-09-27_16h15.42.653,forced_choiceRT_color,2021.2.3,Win32,60.06006006,,,,,,,,2,Slow,long,j,1,2.1497,5,3,23,2,1,,,,,
,0.23,,,,,,,,,f,blue,6017c3b1a4e4aaa45656b73f,2021-09-27_16h15.42.653,forced_choiceRT_color,2021.2.3,Win32,60.06006006,,,,,,,,2,Slow,long,f,1,2.1043,6,0,24,1,1,,,,,
,0.78,,,,,,,,,j,red,6017c3b1a4e4aaa45656b73f,2021-09-27_16h15.42.653,forced_choiceRT_color,2021.2.3,Win32,60.06006006,,,,,,,,2,Ontime,long,j,1,2.0386,6,1,25,2,1,,,,,
,0.42,,,,,,,,,d,orange,6017c3b1a4e4aaa45656b73f,2021-09-27_16h15.42.653,forced_choiceRT_color,2021.2.3,Win32,60.06006006,,,,,,,,2,Ontime,long,d,1,2.0619,6,2,26,0,1,,,,,
,0.62,,,,,,,,,f,blue,6017c3b1a4e4aaa45656b73f,2021-09-27_16h15.42.653,forced_choiceRT_color,2021.2.3,Win32,60.06006006,,,,,,,,2,Ontime,long,f,1,2.024,6,3,27,1,1,,,,,
,1.57,,,,,,,,,k,purple,6017c3b1a4e4aaa45656b73f,2021-09-27_16h15.42.653,forced_choiceRT_color,2021.2.3,Win32,60.06006006,,,,,,,,2,Slow,long,k,1,2.1605,7,0,28,3,1,,,,,
,0.68,,,,,,,,,j,red,6017c3b1a4e4aaa45656b73f,2021-09-27_16h15.42.653,forced_choiceRT_color,2021.2.3,Win32,60.06006006,,,,,,,,2,Ontime,long,j,1,2.0741,7,1,29,2,1,,,,,
,1.55,,,,,,,,,k,purple,6017c3b1a4e4aaa45656b73f,2021-09-27_16h15.42.653,forced_choiceRT_color,2021.2.3,Win32,60.06006006,,,,,,,,2,Slow,long,k,1,2.1267,7,2,30,3,1,,,,,
,0.37,,,,,,,,,j,red,6017c3b1a4e4aaa45656b73f,2021-09-27_16h15.42.653,forced_choiceRT_color,2021.2.3,Win32,60.06006006,,,,,,,,2,Ontime,long,j,1,2.0162,7,3,31,2,1,,,,,
,0.41,,,,,,,,,d,orange,6017c3b1a4e4aaa45656b73f,2021-09-27_16h15.42.653,forced_choiceRT_color,2021.2.3,Win32,60.06006006,,,,,,,,2,Ontime,long,d,1,2.0652,8,0,32,0,1,,,,,
,0.96,,,,,,,,,k,purple,6017c3b1a4e4aaa45656b73f,2021-09-27_16h15.42.653,forced_choiceRT_color,2021.2.3,Win32,60.06006006,,,,,,,,2,Ontime,long,k,1,2.0315,8,1,33,3,1,,,,,
,0.19,,,,,,,,,d,orange,6017c3b1a4e4aaa45656b73f,2021-09-27_16h15.42.653,forced_choiceRT_color,2021.2.3,Win32,60.06006006,,,,,,,,2,Ontime,long,d,1,1.9479,8,2,34,0,1,,,,,
,0.34,,,,,,,,,k,purple,6017c3b1a4e4aaa45656b73f,2021-09-27_16h15.42.653,forced_choiceRT_color,2021.2.3,Win32,60.06006006,,,,,,,,2,Slow,long,k,1,2.1239,8,3,35,3,1,,,,,
,0.97,,,,,,,,,k,purple,6017c3b1a4e4aaa45656b73f,2021-09-27_16h15.42.653,forced_choiceRT_color,2021.2.3,Win32,60.06006006,,,,,,,,2,Slow,long,k,1,2.2432,9,0,36,3,1,,,,,
,1.98,,,,,,,,,k,purple,6017c3b1a4e4aaa45656b73f,2021-09-27_16h15.42.653,forced_choiceRT_color,2021.2.3,Win32,60.06006006,,,,,,,,2,Slow,long,k,1,2.4048,9,1,37,3,1,,,,,
,0.71,,,,,,,,,k,purple,6017c3b1a4e4aaa45656b73f,2021-09-27_16h15.42.653,forced_choiceRT_color,2021.2.3,Win32,60.06006006,,,,,,,,2,Ontime,long,k,1,2.0911,9,2,38,3,1,,,,,
,1.6,,,,,,,,,d,orange,6017c3b1a4e4aaa45656b73f,2021-09-27_16h15.42.653,forced_choiceRT_color,2021.2.3,Win32,60.06006006,,,,,,,,2,Slow,long,f,0,2.2422,9,3,39,0,1,,,,,
,,,,,,,,,,,,6017c3b1a4e4aaa45656b73f,2021-09-27_16h15.42.653,forced_choiceRT_color,2021.2.3,Win32,60.06006006,,,,,,,,,,,,,,,,,,,1,0,1,0,1
,0.86,,,,,,,,,f,blue,6017c3b1a4e4aaa45656b73f,2021-09-27_16h15.42.653,forced_choiceRT_color,2021.2.3,Win32,60.06006006,,,,,,,,3,Slow,long,f,1,2.1288,0,0,0,1,1,,,,,
,1.76,,,,,,,,,f,blue,6017c3b1a4e4aaa45656b73f,2021-09-27_16h15.42.653,forced_choiceRT_color,2021.2.3,Win32,60.06006006,,,,,,,,3,Slow,long,d,0,2.2589,0,1,1,1,1,,,,,
,1.19,,,,,,,,,j,red,6017c3b1a4e4aaa45656b73f,2021-09-27_16h15.42.653,forced_choiceRT_color,2021.2.3,Win32,60.06006006,,,,,,,,3,Fast,long,j,1,1.8228,0,2,2,2,1,,,,,
,0.79,,,,,,,,,f,blue,6017c3b1a4e4aaa45656b73f,2021-09-27_16h15.42.653,forced_choiceRT_color,2021.2.3,Win32,60.06006006,,,,,,,,3,Ontime,long,f,1,2.0387,0,3,3,1,1,,,,,
,0.77,,,,,,,,,j,red,6017c3b1a4e4aaa45656b73f,2021-09-27_16h15.42.653,forced_choiceRT_color,2021.2.3,Win32,60.06006006,,,,,,,,3,Ontime,long,j,1,1.972,1,0,4,2,1,,,,,
,0.71,,,,,,,,,d,orange,6017c3b1a4e4aaa45656b73f,2021-09-27_16h15.42.653,forced_choiceRT_color,2021.2.3,Win32,60.06006006,,,,,,,,3,Ontime,long,d,1,2.0048,1,1,5,0,1,,,,,
,1.8,,,,,,,,,k,purple,6017c3b1a4e4aaa45656b73f,2021-09-27_16h15.42.653,forced_choiceRT_color,2021.2.3,Win32,60.06006006,,,,,,,,3,Slow,long,k,1,2.4072,1,2,6,3,1,,,,,
,0.06,,,,,,,,,j,red,6017c3b1a4e4aaa45656b73f,2021-09-27_16h15.42.653,forced_choiceRT_color,2021.2.3,Win32,60.06006006,,,,,,,,3,Slow,long,j,1,2.112,1,3,7,2,1,,,,,
,0.3,,,,,,,,,k,purple,6017c3b1a4e4aaa45656b73f,2021-09-27_16h15.42.653,forced_choiceRT_color,2021.2.3,Win32,60.06006006,,,,,,,,3,Ontime,long,k,1,1.9235,2,0,8,3,1,,,,,
,0.03,,,,,,,,,k,purple,6017c3b1a4e4aaa45656b73f,2021-09-27_16h15.42.653,forced_choiceRT_color,2021.2.3,Win32,60.06006006,,,,,,,,3,Fast,long,k,1,1.8519,2,1,9,3,1,,,,,
,1.22,,,,,,,,,j,red,6017c3b1a4e4aaa45656b73f,2021-09-27_16h15.42.653,forced_choiceRT_color,2021.2.3,Win32,60.06006006,,,,,,,,3,Ontime,long,j,1,2.0859,2,2,10,2,1,,,,,
,1.8,,,,,,,,,k,purple,6017c3b1a4e4aaa45656b73f,2021-09-27_16h15.42.653,forced_choiceRT_color,2021.2.3,Win32,60.06006006,,,,,,,,3,Slow,long,k,1,2.1133,2,3,11,3,1,,,,,
,0.38,,,,,,,,,d,orange,6017c3b1a4e4aaa45656b73f,2021-09-27_16h15.42.653,forced_choiceRT_color,2021.2.3,Win32,60.06006006,,,,,,,,3,Ontime,long,d,1,1.9923,3,0,12,0,1,,,,,
,0.77,,,,,,,,,k,purple,6017c3b1a4e4aaa45656b73f,2021-09-27_16h15.42.653,forced_choiceRT_color,2021.2.3,Win32,60.06006006,,,,,,,,3,Ontime,long,k,1,2.0556,3,1,13,3,1,,,,,
,0.74,,,,,,,,,f,blue,6017c3b1a4e4aaa45656b73f,2021-09-27_16h15.42.653,forced_choiceRT_color,2021.2.3,Win32,60.06006006,,,,,,,,3,Ontime,long,f,1,1.9702,3,2,14,1,1,,,,,
,1.01,,,,,,,,,k,purple,6017c3b1a4e4aaa45656b73f,2021-09-27_16h15.42.653,forced_choiceRT_color,2021.2.3,Win32,60.06006006,,,,,,,,3,Slow,long,k,1,2.1502,3,3,15,3,1,,,,,
,0.61,,,,,,,,,k,purple,6017c3b1a4e4aaa45656b73f,2021-09-27_16h15.42.653,forced_choiceRT_color,2021.2.3,Win32,60.06006006,,,,,,,,3,Ontime,long,k,1,1.9513,4,0,16,3,1,,,,,
,1.58,,,,,,,,,j,red,6017c3b1a4e4aaa45656b73f,2021-09-27_16h15.42.653,forced_choiceRT_color,2021.2.3,Win32,60.06006006,,,,,,,,3,Slow,long,j,1,2.5298,4,1,17,2,1,,,,,
,1.29,,,,,,,,,j,red,6017c3b1a4e4aaa45656b73f,2021-09-27_16h15.42.653,forced_choiceRT_color,2021.2.3,Win32,60.06006006,,,,,,,,3,Ontime,long,j,1,1.9656,4,2,18,2,1,,,,,
,0.68,,,,,,,,,j,red,6017c3b1a4e4aaa45656b73f,2021-09-27_16h15.42.653,forced_choiceRT_color,2021.2.3,Win32,60.06006006,,,,,,,,3,Slow,long,j,1,2.1207,4,3,19,2,1,,,,,
,0.92,,,,,,,,,f,blue,6017c3b1a4e4aaa45656b73f,2021-09-27_16h15.42.653,forced_choiceRT_color,2021.2.3,Win32,60.06006006,,,,,,,,3,Ontime,long,f,1,1.9293,5,0,20,1,1,,,,,
,1.92,,,,,,,,,d,orange,6017c3b1a4e4aaa45656b73f,2021-09-27_16h15.42.653,forced_choiceRT_color,2021.2.3,Win32,60.06006006,,,,,,,,3,Slow,long,d,1,2.428,5,1,21,0,1,,,,,
,1.66,,,,,,,,,k,purple,6017c3b1a4e4aaa45656b73f,2021-09-27_16h15.42.653,forced_choiceRT_color,2021.2.3,Win32,60.06006006,,,,,,,,3,Slow,long,k,1,2.1506,5,2,22,3,1,,,,,
,0.86,,,,,,,,,d,orange,6017c3b1a4e4aaa45656b73f,2021-09-27_16h15.42.653,forced_choiceRT_color,2021.2.3,Win32,60.06006006,,,,,,,,3,Fast,long,d,1,1.8868,5,3,23,0,1,,,,,
,1.63,,,,,,,,,j,red,6017c3b1a4e4aaa45656b73f,2021-09-27_16h15.42.653,forced_choiceRT_color,2021.2.3,Win32,60.06006006,,,,,,,,3,Slow,long,j,1,2.1598,6,0,24,2,1,,,,,
,0.53,,,,,,,,,f,blue,6017c3b1a4e4aaa45656b73f,2021-09-27_16h15.42.653,forced_choiceRT_color,2021.2.3,Win32,60.06006006,,,,,,,,3,Ontime,long,f,1,2.0366,6,1,25,1,1,,,,,
,1.57,,,,,,,,,f,blue,6017c3b1a4e4aaa45656b73f,2021-09-27_16h15.42.653,forced_choiceRT_color,2021.2.3,Win32,60.06006006,,,,,,,,3,Slow,long,f,1,2.1421,6,2,26,1,1,,,,,
,1.29,,,,,,,,,d,orange,6017c3b1a4e4aaa45656b73f,2021-09-27_16h15.42.653,forced_choiceRT_color,2021.2.3,Win32,60.06006006,,,,,,,,3,Ontime,long,d,1,2.006,6,3,27,0,1,,,,,
,1.19,,,,,,,,,k,purple,6017c3b1a4e4aaa45656b73f,2021-09-27_16h15.42.653,forced_choiceRT_color,2021.2.3,Win32,60.06006006,,,,,,,,3,Ontime,long,k,1,2.014,7,0,28,3,1,,,,,
,0.55,,,,,,,,,f,blue,6017c3b1a4e4aaa45656b73f,2021-09-27_16h15.42.653,forced_choiceRT_color,2021.2.3,Win32,60.06006006,,,,,,,,3,Ontime,long,f,1,1.9621,7,1,29,1,1,,,,,
,1.62,,,,,,,,,j,red,6017c3b1a4e4aaa45656b73f,2021-09-27_16h15.42.653,forced_choiceRT_color,2021.2.3,Win32,60.06006006,,,,,,,,3,Slow,long,j,1,2.1584,7,2,30,2,1,,,,,
,1.86,,,,,,,,,f,blue,6017c3b1a4e4aaa45656b73f,2021-09-27_16h15.42.653,forced_choiceRT_color,2021.2.3,Win32,60.06006006,,,,,,,,3,Slow,long,f,1,4.0352,7,3,31,1,1,,,,,
,1.71,,,,,,,,,d,orange,6017c3b1a4e4aaa45656b73f,2021-09-27_16h15.42.653,forced_choiceRT_color,2021.2.3,Win32,60.06006006,,,,,,,,3,Slow,long,d,1,2.241,8,0,32,0,1,,,,,
,0.71,,,,,,,,,d,orange,6017c3b1a4e4aaa45656b73f,2021-09-27_16h15.42.653,forced_choiceRT_color,2021.2.3,Win32,60.06006006,,,,,,,,3,Ontime,long,d,1,2.0387,8,1,33,0,1,,,,,
,1.24,,,,,,,,,d,orange,6017c3b1a4e4aaa45656b73f,2021-09-27_16h15.42.653,forced_choiceRT_color,2021.2.3,Win32,60.06006006,,,,,,,,3,Ontime,long,d,1,2.0079,8,2,34,0,1,,,,,
,0.97,,,,,,,,,f,blue,6017c3b1a4e4aaa45656b73f,2021-09-27_16h15.42.653,forced_choiceRT_color,2021.2.3,Win32,60.06006006,,,,,,,,3,Slow,long,f,1,2.1382,8,3,35,1,1,,,,,
,1.56,,,,,,,,,k,purple,6017c3b1a4e4aaa45656b73f,2021-09-27_16h15.42.653,forced_choiceRT_color,2021.2.3,Win32,60.06006006,,,,,,,,3,Slow,long,k,1,2.1381,9,0,36,3,1,,,,,
,0.28,,,,,,,,,d,orange,6017c3b1a4e4aaa45656b73f,2021-09-27_16h15.42.653,forced_choiceRT_color,2021.2.3,Win32,60.06006006,,,,,,,,3,Slow,long,d,1,2.1613,9,1,37,0,1,,,,,
,1.71,,,,,,,,,j,red,6017c3b1a4e4aaa45656b73f,2021-09-27_16h15.42.653,forced_choiceRT_color,2021.2.3,Win32,60.06006006,,,,,,,,3,Ontime,long,k,0,1.9918,9,2,38,2,1,,,,,
,0.31,,,,,,,,,d,orange,6017c3b1a4e4aaa45656b73f,2021-09-27_16h15.42.653,forced_choiceRT_color,2021.2.3,Win32,60.06006006,,,,,,,,3,Ontime,long,d,1,2.0203,9,3,39,0,1,,,,,
,,,,,,,,,,,,6017c3b1a4e4aaa45656b73f,2021-09-27_16h15.42.653,forced_choiceRT_color,2021.2.3,Win32,60.06006006,,,,,,,,,,,,,,,,,,,2,0,2,0,1
,0.67,,,,,,,,,d,orange,6017c3b1a4e4aaa45656b73f,2021-09-27_16h15.42.653,forced_choiceRT_color,2021.2.3,Win32,60.06006006,,,,,,,,4,Slow,long,d,1,2.7703,0,0,0,0,1,,,,,
,1.62,,,,,,,,,k,purple,6017c3b1a4e4aaa45656b73f,2021-09-27_16h15.42.653,forced_choiceRT_color,2021.2.3,Win32,60.06006006,,,,,,,,4,Ontime,long,k,1,2.0899,0,1,1,3,1,,,,,
,1.68,,,,,,,,,d,orange,6017c3b1a4e4aaa45656b73f,2021-09-27_16h15.42.653,forced_choiceRT_color,2021.2.3,Win32,60.06006006,,,,,,,,4,Slow,long,d,1,2.2379,0,2,2,0,1,,,,,
,0.95,,,,,,,,,j,red,6017c3b1a4e4aaa45656b73f,2021-09-27_16h15.42.653,forced_choiceRT_color,2021.2.3,Win32,60.06006006,,,,,,,,4,Ontime,long,j,1,2.0581,0,3,3,2,1,,,,,
,0.72,,,,,,,,,d,orange,6017c3b1a4e4aaa45656b73f,2021-09-27_16h15.42.653,forced_choiceRT_color,2021.2.3,Win32,60.06006006,,,,,,,,4,Ontime,long,d,1,1.9951,1,0,4,0,1,,,,,
,1.39,,,,,,,,,j,red,6017c3b1a4e4aaa45656b73f,2021-09-27_16h15.42.653,forced_choiceRT_color,2021.2.3,Win32,60.06006006,,,,,,,,4,Ontime,long,j,1,1.9854,1,1,5,2,1,,,,,
,0.14,,,,,,,,,k,purple,6017c3b1a4e4aaa45656b73f,2021-09-27_16h15.42.653,forced_choiceRT_color,2021.2.3,Win32,60.06006006,,,,,,,,4,Fast,long,k,1,1.7742,1,2,6,3,1,,,,,
,0.25,,,,,,,,,f,blue,6017c3b1a4e4aaa45656b73f,2021-09-27_16h15.42.653,forced_choiceRT_color,2021.2.3,Win32,60.06006006,,,,,,,,4,Ontime,long,f,1,1.9896,1,3,7,1,1,,,,,
,1.18,,,,,,,,,d,orange,6017c3b1a4e4aaa45656b73f,2021-09-27_16h15.42.653,forced_choiceRT_color,2021.2.3,Win32,60.06006006,,,,,,,,4,Fast,long,d,1,1.8985,2,0,8,0,1,,,,,
,1.55,,,,,,,,,d,orange,6017c3b1a4e4aaa45656b73f,2021-09-27_16h15.42.653,forced_choiceRT_color,2021.2.3,Win32,60.06006006,,,,,,,,4,Slow,long,d,1,2.2684,2,1,9,0,1,,,,,
,1.19,,,,,,,,,d,orange,6017c3b1a4e4aaa45656b73f,2021-09-27_16h15.42.653,forced_choiceRT_color,2021.2.3,Win32,60.06006006,,,,,,,,4,Slow,long,d,1,2.1157,2,2,10,0,1,,,,,
,1.19,,,,,,,,,f,blue,6017c3b1a4e4aaa45656b73f,2021-09-27_16h15.42.653,forced_choiceRT_color,2021.2.3,Win32,60.06006006,,,,,,,,4,Ontime,long,f,1,2.0593,2,3,11,1,1,,,,,
,1.35,,,,,,,,,k,purple,6017c3b1a4e4aaa45656b73f,2021-09-27_16h15.42.653,forced_choiceRT_color,2021.2.3,Win32,60.06006006,,,,,,,,4,Ontime,long,k,1,1.9554,3,0,12,3,1,,,,,
,0.11,,,,,,,,,f,blue,6017c3b1a4e4aaa45656b73f,2021-09-27_16h15.42.653,forced_choiceRT_color,2021.2.3,Win32,60.06006006,,,,,,,,4,Ontime,long,f,1,2.0272,3,1,13,1,1,,,,,
,1.77,,,,,,,,,j,red,6017c3b1a4e4aaa45656b73f,2021-09-27_16h15.42.653,forced_choiceRT_color,2021.2.3,Win32,60.06006006,,,,,,,,4,Slow,long,j,1,2.2087,3,2,14,2,1,,,,,
,0.1,,,,,,,,,k,purple,6017c3b1a4e4aaa45656b73f,2021-09-27_16h15.42.653,forced_choiceRT_color,2021.2.3,Win32,60.06006006,,,,,,,,4,Slow,long,k,1,2.1053,3,3,15,3,1,,,,,
,0.09,,,,,,,,,d,orange,6017c3b1a4e4aaa45656b73f,2021-09-27_16h15.42.653,forced_choiceRT_color,2021.2.3,Win32,60.06006006,,,,,,,,4,Ontime,long,d,1,1.9923,4,0,16,0,1,,,,,
,0.43,,,,,,,,,d,orange,6017c3b1a4e4aaa45656b73f,2021-09-27_16h15.42.653,forced_choiceRT_color,2021.2.3,Win32,60.06006006,,,,,,,,4,Ontime,long,d,1,1.9498,4,1,17,0,1,,,,,
,1.82,,,,,,,,,k,purple,6017c3b1a4e4aaa45656b73f,2021-09-27_16h15.42.653,forced_choiceRT_color,2021.2.3,Win32,60.06006006,,,,,,,,4,Slow,long,k,1,2.2866,4,2,18,3,1,,,,,
,1.74,,,,,,,,,d,orange,6017c3b1a4e4aaa45656b73f,2021-09-27_16h15.42.653,forced_choiceRT_color,2021.2.3,Win32,60.06006006,,,,,,,,4,Slow,long,d,1,2.3214,4,3,19,0,1,,,,,
,1.49,,,,,,,,,j,red,6017c3b1a4e4aaa45656b73f,2021-09-27_16h15.42.653,forced_choiceRT_color,2021.2.3,Win32,60.06006006,,,,,,,,4,Slow,long,j,1,2.2224,5,0,20,2,1,,,,,
,1.3,,,,,,,,,f,blue,6017c3b1a4e4aaa45656b73f,2021-09-27_16h15.42.653,forced_choiceRT_color,2021.2.3,Win32,60.06006006,,,,,,,,4,Ontime,long,d,0,1.9906,5,1,21,1,1,,,,,
,0.34,,,,,,,,,f,blue,6017c3b1a4e4aaa45656b73f,2021-09-27_16h15.42.653,forced_choiceRT_color,2021.2.3,Win32,60.06006006,,,,,,,,4,Ontime,long,f,1,2.0205,5,2,22,1,1,,,,,
,1.26,,,,,,,,,k,purple,6017c3b1a4e4aaa45656b73f,2021-09-27_16h15.42.653,forced_choiceRT_color,2021.2.3,Win32,60.06006006,,,,,,,,4,Slow,long,k,1,2.1469,5,3,23,3,1,,,,,
,0.26,,,,,,,,,j,red,6017c3b1a4e4aaa45656b73f,2021-09-27_16h15.42.653,forced_choiceRT_color,2021.2.3,Win32,60.06006006,,,,,,,,4,Fast,long,j,1,1.6915,6,0,24,2,1,,,,,
,1.93,,,,,,,,,j,red,6017c3b1a4e4aaa45656b73f,2021-09-27_16h15.42.653,forced_choiceRT_color,2021.2.3,Win32,60.06006006,,,,,,,,4,Slow,long,j,1,2.4258,6,1,25,2,1,,,,,
,1.44,,,,,,,,,f,blue,6017c3b1a4e4aaa45656b73f,2021-09-27_16h15.42.653,forced_choiceRT_color,2021.2.3,Win32,60.06006006,,,,,,,,4,Ontime,long,f,1,2.0579,6,2,26,1,1,,,,,
,1.6,,,,,,,,,d,orange,6017c3b1a4e4aaa45656b73f,2021-09-27_16h15.42.653,forced_choiceRT_color,2021.2.3,Win32,60.06006006,,,,,,,,4,Slow,long,d,1,2.1218,6,3,27,0,1,,,,,
,0.28,,,,,,,,,k,purple,6017c3b1a4e4aaa45656b73f,2021-09-27_16h15.42.653,forced_choiceRT_color,2021.2.3,Win32,60.06006006,,,,,,,,4,Ontime,long,k,1,2.0882,7,0,28,3,1,,,,,
,1.08,,,,,,,,,j,red,6017c3b1a4e4aaa45656b73f,2021-09-27_16h15.42.653,forced_choiceRT_color,2021.2.3,Win32,60.06006006,,,,,,,,4,Slow,long,j,1,2.1015,7,1,29,2,1,,,,,
,0.38,,,,,,,,,j,red,6017c3b1a4e4aaa45656b73f,2021-09-27_16h15.42.653,forced_choiceRT_color,2021.2.3,Win32,60.06006006,,,,,,,,4,Ontime,long,j,1,2.0018,7,2,30,2,1,,,,,
,1.55,,,,,,,,,k,purple,6017c3b1a4e4aaa45656b73f,2021-09-27_16h15.42.653,forced_choiceRT_color,2021.2.3,Win32,60.06006006,,,,,,,,4,Slow,long,k,1,2.1618,7,3,31,3,1,,,,,
,1.75,,,,,,,,,f,blue,6017c3b1a4e4aaa45656b73f,2021-09-27_16h15.42.653,forced_choiceRT_color,2021.2.3,Win32,60.06006006,,,,,,,,4,Slow,long,d,0,2.1243,8,0,32,1,1,,,,,
,0.77,,,,,,,,,f,blue,6017c3b1a4e4aaa45656b73f,2021-09-27_16h15.42.653,forced_choiceRT_color,2021.2.3,Win32,60.06006006,,,,,,,,4,Ontime,long,f,1,2.0582,8,1,33,1,1,,,,,
,0.35,,,,,,,,,f,blue,6017c3b1a4e4aaa45656b73f,2021-09-27_16h15.42.653,forced_choiceRT_color,2021.2.3,Win32,60.06006006,,,,,,,,4,Ontime,long,f,1,2.0464,8,2,34,1,1,,,,,
,0.66,,,,,,,,,j,red,6017c3b1a4e4aaa45656b73f,2021-09-27_16h15.42.653,forced_choiceRT_color,2021.2.3,Win32,60.06006006,,,,,,,,4,Slow,long,j,1,2.1857,8,3,35,2,1,,,,,
,0.33,,,,,,,,,k,purple,6017c3b1a4e4aaa45656b73f,2021-09-27_16h15.42.653,forced_choiceRT_color,2021.2.3,Win32,60.06006006,,,,,,,,4,Fast,long,k,1,1.8226,9,0,36,3,1,,,,,
,0.49,,,,,,,,,j,red,6017c3b1a4e4aaa45656b73f,2021-09-27_16h15.42.653,forced_choiceRT_color,2021.2.3,Win32,60.06006006,,,,,,,,4,Ontime,long,j,1,2.0085,9,1,37,2,1,,,,,
,1.39,,,,,,,,,f,blue,6017c3b1a4e4aaa45656b73f,2021-09-27_16h15.42.653,forced_choiceRT_color,2021.2.3,Win32,60.06006006,,,,,,,,4,Ontime,long,f,1,2.0435,9,2,38,1,1,,,,,
,1.6,,,,,,,,,k,purple,6017c3b1a4e4aaa45656b73f,2021-09-27_16h15.42.653,forced_choiceRT_color,2021.2.3,Win32,60.06006006,,,,,,,,4,Slow,long,k,1,2.1252,9,3,39,3,1,,,,,
,,,,,,,,,,,,6017c3b1a4e4aaa45656b73f,2021-09-27_16h15.42.653,forced_choiceRT_color,2021.2.3,Win32,60.06006006,,,,,,,,,,,,,,,,,,,3,0,3,0,1
,0.75,,,,,,,,,f,blue,6017c3b1a4e4aaa45656b73f,2021-09-27_16h15.42.653,forced_choiceRT_color,2021.2.3,Win32,60.06006006,,,,,,,,5,Ontime,long,f,1,1.9744,0,0,0,1,1,,,,,
,1.23,,,,,,,,,f,blue,6017c3b1a4e4aaa45656b73f,2021-09-27_16h15.42.653,forced_choiceRT_color,2021.2.3,Win32,60.06006006,,,,,,,,5,Ontime,long,f,1,1.9558,0,1,1,1,1,,,,,
,0.44,,,,,,,,,k,purple,6017c3b1a4e4aaa45656b73f,2021-09-27_16h15.42.653,forced_choiceRT_color,2021.2.3,Win32,60.06006006,,,,,,,,5,Ontime,long,k,1,2.072,0,2,2,3,1,,,,,
,0.86,,,,,,,,,k,purple,6017c3b1a4e4aaa45656b73f,2021-09-27_16h15.42.653,forced_choiceRT_color,2021.2.3,Win32,60.06006006,,,,,,,,5,Ontime,long,k,1,1.9546,0,3,3,3,1,,,,,
,0.74,,,,,,,,,f,blue,6017c3b1a4e4aaa45656b73f,2021-09-27_16h15.42.653,forced_choiceRT_color,2021.2.3,Win32,60.06006006,,,,,,,,5,Ontime,long,f,1,2.0883,1,0,4,1,1,,,,,
,0.31,,,,,,,,,d,orange,6017c3b1a4e4aaa45656b73f,2021-09-27_16h15.42.653,forced_choiceRT_color,2021.2.3,Win32,60.06006006,,,,,,,,5,Ontime,long,d,1,1.9891,1,1,5,0,1,,,,,
,0.65,,,,,,,,,f,blue,6017c3b1a4e4aaa45656b73f,2021-09-27_16h15.42.653,forced_choiceRT_color,2021.2.3,Win32,60.06006006,,,,,,,,5,Slow,long,d,0,2.2045,1,2,6,1,1,,,,,
,0.32,,,,,,,,,f,blue,6017c3b1a4e4aaa45656b73f,2021-09-27_16h15.42.653,forced_choiceRT_color,2021.2.3,Win32,60.06006006,,,,,,,,5,Ontime,long,f,1,1.9094,1,3,7,1,1,,,,,
,0.05,,,,,,,,,k,purple,6017c3b1a4e4aaa45656b73f,2021-09-27_16h15.42.653,forced_choiceRT_color,2021.2.3,Win32,60.06006006,,,,,,,,5,Slow,long,k,1,2.1042,2,0,8,3,1,,,,,
,0.27,,,,,,,,,j,red,6017c3b1a4e4aaa45656b73f,2021-09-27_16h15.42.653,forced_choiceRT_color,2021.2.3,Win32,60.06006006,,,,,,,,5,Ontime,long,j,1,2.058,2,1,9,2,1,,,,,
,0.95,,,,,,,,,k,purple,6017c3b1a4e4aaa45656b73f,2021-09-27_16h15.42.653,forced_choiceRT_color,2021.2.3,Win32,60.06006006,,,,,,,,5,Slow,long,k,1,2.1084,2,2,10,3,1,,,,,
,1.1,,,,,,,,,d,orange,6017c3b1a4e4aaa45656b73f,2021-09-27_16h15.42.653,forced_choiceRT_color,2021.2.3,Win32,60.06006006,,,,,,,,5,Slow,long,d,1,2.2068,2,3,11,0,1,,,,,
,1.83,,,,,,,,,k,purple,6017c3b1a4e4aaa45656b73f,2021-09-27_16h15.42.653,forced_choiceRT_color,2021.2.3,Win32,60.06006006,,,,,,,,5,Slow,long,k,1,2.2044,3,0,12,3,1,,,,,
,1.54,,,,,,,,,j,red,6017c3b1a4e4aaa45656b73f,2021-09-27_16h15.42.653,forced_choiceRT_color,2021.2.3,Win32,60.06006006,,,,,,,,5,Slow,long,j,1,2.5712,3,1,13,2,1,,,,,
,1.29,,,,,,,,,j,red,6017c3b1a4e4aaa45656b73f,2021-09-27_16h15.42.653,forced_choiceRT_color,2021.2.3,Win32,60.06006006,,,,,,,,5,Ontime,long,j,1,2.038,3,2,14,2,1,,,,,
,0.86,,,,,,,,,f,blue,6017c3b1a4e4aaa45656b73f,2021-09-27_16h15.42.653,forced_choiceRT_color,2021.2.3,Win32,60.06006006,,,,,,,,5,Slow,long,f,1,2.1136,3,3,15,1,1,,,,,
,1.01,,,,,,,,,j,red,6017c3b1a4e4aaa45656b73f,2021-09-27_16h15.42.653,forced_choiceRT_color,2021.2.3,Win32,60.06006006,,,,,,,,5,Ontime,long,j,1,1.9228,4,0,16,2,1,,,,,
,0.54,,,,,,,,,k,purple,6017c3b1a4e4aaa45656b73f,2021-09-27_16h15.42.653,forced_choiceRT_color,2021.2.3,Win32,60.06006006,,,,,,,,5,Fast,long,k,1,1.7523,4,1,17,3,1,,,,,
,1.19,,,,,,,,,d,orange,6017c3b1a4e4aaa45656b73f,2021-09-27_16h15.42.653,forced_choiceRT_color,2021.2.3,Win32,60.06006006,,,,,,,,5,Ontime,long,d,1,2.0047,4,2,18,0,1,,,,,
,0.32,,,,,,,,,d,orange,6017c3b1a4e4aaa45656b73f,2021-09-27_16h15.42.653,forced_choiceRT_color,2021.2.3,Win32,60.06006006,,,,,,,,5,Ontime,long,d,1,2.0856,4,3,19,0,1,,,,,
,1.6,,,,,,,,,k,purple,6017c3b1a4e4aaa45656b73f,2021-09-27_16h15.42.653,forced_choiceRT_color,2021.2.3,Win32,60.06006006,,,,,,,,5,Slow,long,k,1,2.1518,5,0,20,3,1,,,,,
,1.6,,,,,,,,,k,purple,6017c3b1a4e4aaa45656b73f,2021-09-27_16h15.42.653,forced_choiceRT_color,2021.2.3,Win32,60.06006006,,,,,,,,5,Slow,long,k,1,2.1937,5,1,21,3,1,,,,,
,1.38,,,,,,,,,j,red,6017c3b1a4e4aaa45656b73f,2021-09-27_16h15.42.653,forced_choiceRT_color,2021.2.3,Win32,60.06006006,,,,,,,,5,Slow,long,j,1,2.1232,5,2,22,2,1,,,,,
,0.48,,,,,,,,,k,purple,6017c3b1a4e4aaa45656b73f,2021-09-27_16h15.42.653,forced_choiceRT_color,2021.2.3,Win32,60.06006006,,,,,,,,5,Ontime,long,k,1,1.9748,5,3,23,3,1,,,,,
,1.21,,,,,,,,,d,orange,6017c3b1a4e4aaa45656b73f,2021-09-27_16h15.42.653,forced_choiceRT_color,2021.2.3,Win32,60.06006006,,,,,,,,5,Ontime,long,d,1,2.0565,6,0,24,0,1,,,,,
,1.31,,,,,,,,,j,red,6017c3b1a4e4aaa45656b73f,2021-09-27_16h15.42.653,forced_choiceRT_color,2021.2.3,Win32,60.06006006,,,,,,,,5,Ontime,long,j,1,2.0113,6,1,25,2,1,,,,,
,1.12,,,,,,,,,d,orange,6017c3b1a4e4aaa45656b73f,2021-09-27_16h15.42.653,forced_choiceRT_color,2021.2.3,Win32,60.06006006,,,,,,,,5,Ontime,long,d,1,2.0296,6,2,26,0,1,,,,,
,1.93,,,,,,,,,f,blue,6017c3b1a4e4aaa45656b73f,2021-09-27_16h15.42.653,forced_choiceRT_color,2021.2.3,Win32,60.06006006,,,,,,,,5,Slow,long,k,0,2.3752,6,3,27,1,1,,,,,
,0.95,,,,,,,,,d,orange,6017c3b1a4e4aaa45656b73f,2021-09-27_16h15.42.653,forced_choiceRT_color,2021.2.3,Win32,60.06006006,,,,,,,,5,Slow,long,f,0,2.1103,7,0,28,0,1,,,,,
,1.94,,,,,,,,,d,orange,6017c3b1a4e4aaa45656b73f,2021-09-27_16h15.42.653,forced_choiceRT_color,2021.2.3,Win32,60.06006006,,,,,,,,5,Slow,long,d,1,2.4911,7,1,29,0,1,,,,,
,0.85,,,,,,,,,k,purple,6017c3b1a4e4aaa45656b73f,2021-09-27_16h15.42.653,forced_choiceRT_color,2021.2.3,Win32,60.06006006,,,,,,,,5,Ontime,long,k,1,2.0078,7,2,30,3,1,,,,,
,1.31,,,,,,,,,j,red,6017c3b1a4e4aaa45656b73f,2021-09-27_16h15.42.653,forced_choiceRT_color,2021.2.3,Win32,60.06006006,,,,,,,,5,Ontime,long,j,1,2.0571,7,3,31,2,1,,,,,
,0.58,,,,,,,,,f,blue,6017c3b1a4e4aaa45656b73f,2021-09-27_16h15.42.653,forced_choiceRT_color,2021.2.3,Win32,60.06006006,,,,,,,,5,Slow,long,f,1,2.1205,8,0,32,1,1,,,,,
,0.16,,,,,,,,,d,orange,6017c3b1a4e4aaa45656b73f,2021-09-27_16h15.42.653,forced_choiceRT_color,2021.2.3,Win32,60.06006006,,,,,,,,5,Ontime,long,d,1,2.0028,8,1,33,0,1,,,,,
,1.94,,,,,,,,,j,red,6017c3b1a4e4aaa45656b73f,2021-09-27_16h15.42.653,forced_choiceRT_color,2021.2.3,Win32,60.06006006,,,,,,,,5,Slow,long,f,0,2.5902,8,2,34,2,1,,,,,
,0.34,,,,,,,,,j,red,6017c3b1a4e4aaa45656b73f,2021-09-27_16h15.42.653,forced_choiceRT_color,2021.2.3,Win32,60.06006006,,,,,,,,5,Ontime,long,j,1,2.0498,8,3,35,2,1,,,,,
,1.58,,,,,,,,,d,orange,6017c3b1a4e4aaa45656b73f,2021-09-27_16h15.42.653,forced_choiceRT_color,2021.2.3,Win32,60.06006006,,,,,,,,5,Slow,long,d,1,2.2076,9,0,36,0,1,,,,,
,1.44,,,,,,,,,f,blue,6017c3b1a4e4aaa45656b73f,2021-09-27_16h15.42.653,forced_choiceRT_color,2021.2.3,Win32,60.06006006,,,,,,,,5,Slow,long,f,1,2.179,9,1,37,1,1,,,,,
,0.91,,,,,,,,,f,blue,6017c3b1a4e4aaa45656b73f,2021-09-27_16h15.42.653,forced_choiceRT_color,2021.2.3,Win32,60.06006006,,,,,,,,5,Ontime,long,f,1,2.0213,9,2,38,1,1,,,,,
,0.36,,,,,,,,,j,red,6017c3b1a4e4aaa45656b73f,2021-09-27_16h15.42.653,forced_choiceRT_color,2021.2.3,Win32,60.06006006,,,,,,,,5,Fast,long,j,1,1.7782,9,3,39,2,1,,,,,
,,,,,,,,,,,,6017c3b1a4e4aaa45656b73f,2021-09-27_16h15.42.653,forced_choiceRT_color,2021.2.3,Win32,60.06006006,,,,,,,,,,,,,,,,,,,4,0,4,0,1
,0.65,,,,,,,,,j,red,6017c3b1a4e4aaa45656b73f,2021-09-27_16h15.42.653,forced_choiceRT_color,2021.2.3,Win32,60.06006006,,,,,,,,6,Ontime,long,j,1,2.0138,0,0,0,2,1,,,,,
,0.95,,,,,,,,,j,red,6017c3b1a4e4aaa45656b73f,2021-09-27_16h15.42.653,forced_choiceRT_color,2021.2.3,Win32,60.06006006,,,,,,,,6,Fast,long,j,1,1.8475,0,1,1,2,1,,,,,
,1.19,,,,,,,,,j,red,6017c3b1a4e4aaa45656b73f,2021-09-27_16h15.42.653,forced_choiceRT_color,2021.2.3,Win32,60.06006006,,,,,,,,6,Ontime,long,j,1,2.0756,0,2,2,2,1,,,,,
,0.31,,,,,,,,,j,red,6017c3b1a4e4aaa45656b73f,2021-09-27_16h15.42.653,forced_choiceRT_color,2021.2.3,Win32,60.06006006,,,,,,,,6,Ontime,long,j,1,2.0882,0,3,3,2,1,,,,,
,0.08,,,,,,,,,k,purple,6017c3b1a4e4aaa45656b73f,2021-09-27_16h15.42.653,forced_choiceRT_color,2021.2.3,Win32,60.06006006,,,,,,,,6,Ontime,long,k,1,2.0879,1,0,4,3,1,,,,,
,1.45,,,,,,,,,j,red,6017c3b1a4e4aaa45656b73f,2021-09-27_16h15.42.653,forced_choiceRT_color,2021.2.3,Win32,60.06006006,,,,,,,,6,Slow,long,j,1,2.1162,1,1,5,2,1,,,,,
,1.13,,,,,,,,,d,orange,6017c3b1a4e4aaa45656b73f,2021-09-27_16h15.42.653,forced_choiceRT_color,2021.2.3,Win32,60.06006006,,,,,,,,6,Ontime,long,d,1,1.9226,1,2,6,0,1,,,,,
,0.71,,,,,,,,,k,purple,6017c3b1a4e4aaa45656b73f,2021-09-27_16h15.42.653,forced_choiceRT_color,2021.2.3,Win32,60.06006006,,,,,,,,6,Slow,long,k,1,2.1404,1,3,7,3,1,,,,,
,0.34,,,,,,,,,f,blue,6017c3b1a4e4aaa45656b73f,2021-09-27_16h15.42.653,forced_choiceRT_color,2021.2.3,Win32,60.06006006,,,,,,,,6,Ontime,long,f,1,2.038,2,0,8,1,1,,,,,
,0.12,,,,,,,,,k,purple,6017c3b1a4e4aaa45656b73f,2021-09-27_16h15.42.653,forced_choiceRT_color,2021.2.3,Win32,60.06006006,,,,,,,,6,Fast,long,k,1,1.7479,2,1,9,3,1,,,,,
,1.16,,,,,,,,,d,orange,6017c3b1a4e4aaa45656b73f,2021-09-27_16h15.42.653,forced_choiceRT_color,2021.2.3,Win32,60.06006006,,,,,,,,6,Ontime,long,d,1,2.0889,2,2,10,0,1,,,,,
,1.81,,,,,,,,,k,purple,6017c3b1a4e4aaa45656b73f,2021-09-27_16h15.42.653,forced_choiceRT_color,2021.2.3,Win32,60.06006006,,,,,,,,6,Slow,long,k,1,2.3481,2,3,11,3,1,,,,,
,1.44,,,,,,,,,j,red,6017c3b1a4e4aaa45656b73f,2021-09-27_16h15.42.653,forced_choiceRT_color,2021.2.3,Win32,60.06006006,,,,,,,,6,Ontime,long,j,1,2.057,3,0,12,2,1,,,,,
,1.27,,,,,,,,,d,orange,6017c3b1a4e4aaa45656b73f,2021-09-27_16h15.42.653,forced_choiceRT_color,2021.2.3,Win32,60.06006006,,,,,,,,6,Slow,long,d,1,2.1723,3,1,13,0,1,,,,,
,0.85,,,,,,,,,d,orange,6017c3b1a4e4aaa45656b73f,2021-09-27_16h15.42.653,forced_choiceRT_color,2021.2.3,Win32,60.06006006,,,,,,,,6,Ontime,long,d,1,2.0305,3,2,14,0,1,,,,,
,0.82,,,,,,,,,f,blue,6017c3b1a4e4aaa45656b73f,2021-09-27_16h15.42.653,forced_choiceRT_color,2021.2.3,Win32,60.06006006,,,,,,,,6,Ontime,long,f,1,2.0067,3,3,15,1,1,,,,,
,0.69,,,,,,,,,d,orange,6017c3b1a4e4aaa45656b73f,2021-09-27_16h15.42.653,forced_choiceRT_color,2021.2.3,Win32,60.06006006,,,,,,,,6,Ontime,long,d,1,2.0148,4,0,16,0,1,,,,,
,0.67,,,,,,,,,f,blue,6017c3b1a4e4aaa45656b73f,2021-09-27_16h15.42.653,forced_choiceRT_color,2021.2.3,Win32,60.06006006,,,,,,,,6,Slow,long,f,1,2.1093,4,1,17,1,1,,,,,
,1.65,,,,,,,,,f,blue,6017c3b1a4e4aaa45656b73f,2021-09-27_16h15.42.653,forced_choiceRT_color,2021.2.3,Win32,60.06006006,,,,,,,,6,Slow,long,f,1,2.3046,4,2,18,1,1,,,,,
,0.36,,,,,,,,,k,purple,6017c3b1a4e4aaa45656b73f,2021-09-27_16h15.42.653,forced_choiceRT_color,2021.2.3,Win32,60.06006006,,,,,,,,6,Slow,long,k,1,2.1224,4,3,19,3,1,,,,,
,1.08,,,,,,,,,f,blue,6017c3b1a4e4aaa45656b73f,2021-09-27_16h15.42.653,forced_choiceRT_color,2021.2.3,Win32,60.06006006,,,,,,,,6,Slow,long,f,1,2.1654,5,0,20,1,1,,,,,
,0.71,,,,,,,,,f,blue,6017c3b1a4e4aaa45656b73f,2021-09-27_16h15.42.653,forced_choiceRT_color,2021.2.3,Win32,60.06006006,,,,,,,,6,Ontime,long,f,1,1.9724,5,1,21,1,1,,,,,
,1.73,,,,,,,,,d,orange,6017c3b1a4e4aaa45656b73f,2021-09-27_16h15.42.653,forced_choiceRT_color,2021.2.3,Win32,60.06006006,,,,,,,,6,Slow,long,d,1,2.4642,5,2,22,0,1,,,,,
,1.25,,,,,,,,,k,purple,6017c3b1a4e4aaa45656b73f,2021-09-27_16h15.42.653,forced_choiceRT_color,2021.2.3,Win32,60.06006006,,,,,,,,6,Slow,long,k,1,2.1581,5,3,23,3,1,,,,,
,1.69,,,,,,,,,d,orange,6017c3b1a4e4aaa45656b73f,2021-09-27_16h15.42.653,forced_choiceRT_color,2021.2.3,Win32,60.06006006,,,,,,,,6,Slow,long,d,1,2.3746,6,0,24,0,1,,,,,
,1.78,,,,,,,,,d,orange,6017c3b1a4e4aaa45656b73f,2021-09-27_16h15.42.653,forced_choiceRT_color,2021.2.3,Win32,60.06006006,,,,,,,,6,Slow,long,d,1,2.2909,6,1,25,0,1,,,,,
,1.35,,,,,,,,,j,red,6017c3b1a4e4aaa45656b73f,2021-09-27_16h15.42.653,forced_choiceRT_color,2021.2.3,Win32,60.06006006,,,,,,,,6,Ontime,long,j,1,1.9575,6,2,26,2,1,,,,,
,1.35,,,,,,,,,k,purple,6017c3b1a4e4aaa45656b73f,2021-09-27_16h15.42.653,forced_choiceRT_color,2021.2.3,Win32,60.06006006,,,,,,,,6,Ontime,long,k,1,2.0507,6,3,27,3,1,,,,,
,0.56,,,,,,,,,j,red,6017c3b1a4e4aaa45656b73f,2021-09-27_16h15.42.653,forced_choiceRT_color,2021.2.3,Win32,60.06006006,,,,,,,,6,Ontime,long,j,1,2.0859,7,0,28,2,1,,,,,
,1.06,,,,,,,,,j,red,6017c3b1a4e4aaa45656b73f,2021-09-27_16h15.42.653,forced_choiceRT_color,2021.2.3,Win32,60.06006006,,,,,,,,6,Slow,long,j,1,2.2038,7,1,29,2,1,,,,,
,0.25,,,,,,,,,f,blue,6017c3b1a4e4aaa45656b73f,2021-09-27_16h15.42.653,forced_choiceRT_color,2021.2.3,Win32,60.06006006,,,,,,,,6,Ontime,long,f,1,2.0418,7,2,30,1,1,,,,,
,0.77,,,,,,,,,f,blue,6017c3b1a4e4aaa45656b73f,2021-09-27_16h15.42.653,forced_choiceRT_color,2021.2.3,Win32,60.06006006,,,,,,,,6,Ontime,long,f,1,2.0719,7,3,31,1,1,,,,,
,1.9,,,,,,,,,k,purple,6017c3b1a4e4aaa45656b73f,2021-09-27_16h15.42.653,forced_choiceRT_color,2021.2.3,Win32,60.06006006,,,,,,,,6,Slow,long,k,1,2.4232,8,0,32,3,1,,,,,
,0.98,,,,,,,,,f,blue,6017c3b1a4e4aaa45656b73f,2021-09-27_16h15.42.653,forced_choiceRT_color,2021.2.3,Win32,60.06006006,,,,,,,,6,Ontime,long,f,1,2.0556,8,1,33,1,1,,,,,
,0.82,,,,,,,,,d,orange,6017c3b1a4e4aaa45656b73f,2021-09-27_16h15.42.653,forced_choiceRT_color,2021.2.3,Win32,60.06006006,,,,,,,,6,Ontime,long,d,1,2.042,8,2,34,0,1,,,,,
,1.51,,,,,,,,,f,blue,6017c3b1a4e4aaa45656b73f,2021-09-27_16h15.42.653,forced_choiceRT_color,2021.2.3,Win32,60.06006006,,,,,,,,6,Slow,long,f,1,2.172,8,3,35,1,1,,,,,
,0.09,,,,,,,,,d,orange,6017c3b1a4e4aaa45656b73f,2021-09-27_16h15.42.653,forced_choiceRT_color,2021.2.3,Win32,60.06006006,,,,,,,,6,Ontime,long,d,1,2.0705,9,0,36,0,1,,,,,
,0.43,,,,,,,,,j,red,6017c3b1a4e4aaa45656b73f,2021-09-27_16h15.42.653,forced_choiceRT_color,2021.2.3,Win32,60.06006006,,,,,,,,6,Slow,long,j,1,2.1017,9,1,37,2,1,,,,,
,0.93,,,,,,,,,k,purple,6017c3b1a4e4aaa45656b73f,2021-09-27_16h15.42.653,forced_choiceRT_color,2021.2.3,Win32,60.06006006,,,,,,,,6,Slow,long,k,1,2.1919,9,2,38,3,1,,,,,
,1.1,,,,,,,,,k,purple,6017c3b1a4e4aaa45656b73f,2021-09-27_16h15.42.653,forced_choiceRT_color,2021.2.3,Win32,60.06006006,,,,,,,,6,Ontime,long,k,1,2.0658,9,3,39,3,1,,,,,
,,,,,,,,,,,,6017c3b1a4e4aaa45656b73f,2021-09-27_16h15.42.653,forced_choiceRT_color,2021.2.3,Win32,60.06006006,,,,,,,,,,,,,,,,,,,5,0,5,0,1
,1.29,,,,,,,,,d,orange,6017c3b1a4e4aaa45656b73f,2021-09-27_16h15.42.653,forced_choiceRT_color,2021.2.3,Win32,60.06006006,,,,,,,,7,Ontime,long,d,1,1.9862,0,0,0,0,1,,,,,
,1.52,,,,,,,,,d,orange,6017c3b1a4e4aaa45656b73f,2021-09-27_16h15.42.653,forced_choiceRT_color,2021.2.3,Win32,60.06006006,,,,,,,,7,Ontime,long,d,1,2.0754,0,1,1,0,1,,,,,
,0.32,,,,,,,,,f,blue,6017c3b1a4e4aaa45656b73f,2021-09-27_16h15.42.653,forced_choiceRT_color,2021.2.3,Win32,60.06006006,,,,,,,,7,Ontime,long,f,1,1.9952,0,2,2,1,1,,,,,
,0.18,,,,,,,,,d,orange,6017c3b1a4e4aaa45656b73f,2021-09-27_16h15.42.653,forced_choiceRT_color,2021.2.3,Win32,60.06006006,,,,,,,,7,Ontime,long,d,1,2.0592,0,3,3,0,1,,,,,
,1.45,,,,,,,,,j,red,6017c3b1a4e4aaa45656b73f,2021-09-27_16h15.42.653,forced_choiceRT_color,2021.2.3,Win32,60.06006006,,,,,,,,7,Ontime,long,j,1,2.0387,1,0,4,2,1,,,,,
,0.94,,,,,,,,,k,purple,6017c3b1a4e4aaa45656b73f,2021-09-27_16h15.42.653,forced_choiceRT_color,2021.2.3,Win32,60.06006006,,,,,,,,7,Ontime,long,k,1,2.0884,1,1,5,3,1,,,,,
,1.65,,,,,,,,,k,purple,6017c3b1a4e4aaa45656b73f,2021-09-27_16h15.42.653,forced_choiceRT_color,2021.2.3,Win32,60.06006006,,,,,,,,7,Slow,long,k,1,2.1217,1,2,6,3,1,,,,,
,0.46,,,,,,,,,j,red,6017c3b1a4e4aaa45656b73f,2021-09-27_16h15.42.653,forced_choiceRT_color,2021.2.3,Win32,60.06006006,,,,,,,,7,Ontime,long,j,1,2.0474,1,3,7,2,1,,,,,
,1.13,,,,,,,,,j,red,6017c3b1a4e4aaa45656b73f,2021-09-27_16h15.42.653,forced_choiceRT_color,2021.2.3,Win32,60.06006006,,,,,,,,7,Ontime,long,j,1,2.0356,2,0,8,2,1,,,,,
,1.46,,,,,,,,,f,blue,6017c3b1a4e4aaa45656b73f,2021-09-27_16h15.42.653,forced_choiceRT_color,2021.2.3,Win32,60.06006006,,,,,,,,7,Slow,long,f,1,2.1651,2,1,9,1,1,,,,,
,0.55,,,,,,,,,d,orange,6017c3b1a4e4aaa45656b73f,2021-09-27_16h15.42.653,forced_choiceRT_color,2021.2.3,Win32,60.06006006,,,,,,,,7,Slow,long,d,1,2.1548,2,2,10,0,1,,,,,
,1.88,,,,,,,,,d,orange,6017c3b1a4e4aaa45656b73f,2021-09-27_16h15.42.653,forced_choiceRT_color,2021.2.3,Win32,60.06006006,,,,,,,,7,Slow,long,d,1,2.3182,2,3,11,0,1,,,,,
,0.31,,,,,,,,,j,red,6017c3b1a4e4aaa45656b73f,2021-09-27_16h15.42.653,forced_choiceRT_color,2021.2.3,Win32,60.06006006,,,,,,,,7,Ontime,long,j,1,2.0675,3,0,12,2,1,,,,,
,0.29,,,,,,,,,j,red,6017c3b1a4e4aaa45656b73f,2021-09-27_16h15.42.653,forced_choiceRT_color,2021.2.3,Win32,60.06006006,,,,,,,,7,Ontime,long,j,1,2.0922,3,1,13,2,1,,,,,
,0.01,,,,,,,,,k,purple,6017c3b1a4e4aaa45656b73f,2021-09-27_16h15.42.653,forced_choiceRT_color,2021.2.3,Win32,60.06006006,,,,,,,,7,Ontime,long,k,1,2.0877,3,2,14,3,1,,,,,
,0.38,,,,,,,,,k,purple,6017c3b1a4e4aaa45656b73f,2021-09-27_16h15.42.653,forced_choiceRT_color,2021.2.3,Win32,60.06006006,,,,,,,,7,Ontime,long,k,1,2.0984,3,3,15,3,1,,,,,
,1.19,,,,,,,,,f,blue,6017c3b1a4e4aaa45656b73f,2021-09-27_16h15.42.653,forced_choiceRT_color,2021.2.3,Win32,60.06006006,,,,,,,,7,Ontime,long,f,1,2.0908,4,0,16,1,1,,,,,
,1.48,,,,,,,,,f,blue,6017c3b1a4e4aaa45656b73f,2021-09-27_16h15.42.653,forced_choiceRT_color,2021.2.3,Win32,60.06006006,,,,,,,,7,Slow,long,f,1,2.1229,4,1,17,1,1,,,,,
,1.33,,,,,,,,,f,blue,6017c3b1a4e4aaa45656b73f,2021-09-27_16h15.42.653,forced_choiceRT_color,2021.2.3,Win32,60.06006006,,,,,,,,7,Ontime,long,f,1,2.0394,4,2,18,1,1,,,,,
,0.4,,,,,,,,,k,purple,6017c3b1a4e4aaa45656b73f,2021-09-27_16h15.42.653,forced_choiceRT_color,2021.2.3,Win32,60.06006006,,,,,,,,7,Ontime,long,k,1,2.0725,4,3,19,3,1,,,,,
,1.74,,,,,,,,,f,blue,6017c3b1a4e4aaa45656b73f,2021-09-27_16h15.42.653,forced_choiceRT_color,2021.2.3,Win32,60.06006006,,,,,,,,7,Slow,long,f,1,2.3195,5,0,20,1,1,,,,,
,1.04,,,,,,,,,j,red,6017c3b1a4e4aaa45656b73f,2021-09-27_16h15.42.653,forced_choiceRT_color,2021.2.3,Win32,60.06006006,,,,,,,,7,Ontime,long,j,1,1.9993,5,1,21,2,1,,,,,
,1.78,,,,,,,,,d,orange,6017c3b1a4e4aaa45656b73f,2021-09-27_16h15.42.653,forced_choiceRT_color,2021.2.3,Win32,60.06006006,,,,,,,,7,Slow,long,d,1,2.7639,5,2,22,0,1,,,,,
,1.07,,,,,,,,,f,blue,6017c3b1a4e4aaa45656b73f,2021-09-27_16h15.42.653,forced_choiceRT_color,2021.2.3,Win32,60.06006006,,,,,,,,7,Ontime,long,f,1,2.0296,5,3,23,1,1,,,,,
,1.73,,,,,,,,,d,orange,6017c3b1a4e4aaa45656b73f,2021-09-27_16h15.42.653,forced_choiceRT_color,2021.2.3,Win32,60.06006006,,,,,,,,7,Slow,long,d,1,2.2924,6,0,24,0,1,,,,,
,0.99,,,,,,,,,j,red,6017c3b1a4e4aaa45656b73f,2021-09-27_16h15.42.653,forced_choiceRT_color,2021.2.3,Win32,60.06006006,,,,,,,,7,Slow,long,j,1,2.1044,6,1,25,2,1,,,,,
,1.8,,,,,,,,,k,purple,6017c3b1a4e4aaa45656b73f,2021-09-27_16h15.42.653,forced_choiceRT_color,2021.2.3,Win32,60.06006006,,,,,,,,7,Slow,long,k,1,2.3232,6,2,26,3,1,,,,,
,0.15,,,,,,,,,d,orange,6017c3b1a4e4aaa45656b73f,2021-09-27_16h15.42.653,forced_choiceRT_color,2021.2.3,Win32,60.06006006,,,,,,,,7,Ontime,long,d,1,2.0545,6,3,27,0,1,,,,,
,0.46,,,,,,,,,d,orange,6017c3b1a4e4aaa45656b73f,2021-09-27_16h15.42.653,forced_choiceRT_color,2021.2.3,Win32,60.06006006,,,,,,,,7,Ontime,long,d,1,2.0377,7,0,28,0,1,,,,,
,0.26,,,,,,,,,j,red,6017c3b1a4e4aaa45656b73f,2021-09-27_16h15.42.653,forced_choiceRT_color,2021.2.3,Win32,60.06006006,,,,,,,,7,Ontime,long,j,1,2.0332,7,1,29,2,1,,,,,
,0.97,,,,,,,,,j,red,6017c3b1a4e4aaa45656b73f,2021-09-27_16h15.42.653,forced_choiceRT_color,2021.2.3,Win32,60.06006006,,,,,,,,7,Slow,long,j,1,2.1209,7,2,30,2,1,,,,,
,0.83,,,,,,,,,k,purple,6017c3b1a4e4aaa45656b73f,2021-09-27_16h15.42.653,forced_choiceRT_color,2021.2.3,Win32,60.06006006,,,,,,,,7,Ontime,long,k,1,2.0543,7,3,31,3,1,,,,,
,1.55,,,,,,,,,j,red,6017c3b1a4e4aaa45656b73f,2021-09-27_16h15.42.653,forced_choiceRT_color,2021.2.3,Win32,60.06006006,,,,,,,,7,Slow,long,j,1,2.1437,8,0,32,2,1,,,,,
,0.4,,,,,,,,,f,blue,6017c3b1a4e4aaa45656b73f,2021-09-27_16h15.42.653,forced_choiceRT_color,2021.2.3,Win32,60.06006006,,,,,,,,7,Ontime,long,f,1,2.0364,8,1,33,1,1,,,,,
,1.3,,,,,,,,,k,purple,6017c3b1a4e4aaa45656b73f,2021-09-27_16h15.42.653,forced_choiceRT_color,2021.2.3,Win32,60.06006006,,,,,,,,7,Ontime,long,k,1,2.0751,8,2,34,3,1,,,,,
,0.77,,,,,,,,,f,blue,6017c3b1a4e4aaa45656b73f,2021-09-27_16h15.42.653,forced_choiceRT_color,2021.2.3,Win32,60.06006006,,,,,,,,7,Ontime,long,f,1,2.041,8,3,35,1,1,,,,,
,1.45,,,,,,,,,f,blue,6017c3b1a4e4aaa45656b73f,2021-09-27_16h15.42.653,forced_choiceRT_color,2021.2.3,Win32,60.06006006,,,,,,,,7,Slow,long,f,1,2.1721,9,0,36,1,1,,,,,
,1.8,,,,,,,,,k,purple,6017c3b1a4e4aaa45656b73f,2021-09-27_16h15.42.653,forced_choiceRT_color,2021.2.3,Win32,60.06006006,,,,,,,,7,Slow,long,k,1,2.1714,9,1,37,3,1,,,,,
,1.39,,,,,,,,,d,orange,6017c3b1a4e4aaa45656b73f,2021-09-27_16h15.42.653,forced_choiceRT_color,2021.2.3,Win32,60.06006006,,,,,,,,7,Slow,long,d,1,2.1744,9,2,38,0,1,,,,,
,1,,,,,,,,,k,purple,6017c3b1a4e4aaa45656b73f,2021-09-27_16h15.42.653,forced_choiceRT_color,2021.2.3,Win32,60.06006006,,,,,,,,7,Ontime,long,k,1,2.058,9,3,39,3,1,,,,,
,,,,,,,,,,,,6017c3b1a4e4aaa45656b73f,2021-09-27_16h15.42.653,forced_choiceRT_color,2021.2.3,Win32,60.06006006,,,,,,,,,,,,,,,,,,,6,0,6,0,1
,0.6,,,,,,,,,f,blue,6017c3b1a4e4aaa45656b73f,2021-09-27_16h15.42.653,forced_choiceRT_color,2021.2.3,Win32,60.06006006,,,,,,,,8,Ontime,long,f,1,2.0375,0,0,0,1,1,,,,,
,0.77,,,,,,,,,j,red,6017c3b1a4e4aaa45656b73f,2021-09-27_16h15.42.653,forced_choiceRT_color,2021.2.3,Win32,60.06006006,,,,,,,,8,Ontime,long,j,1,2.0632,0,1,1,2,1,,,,,
,0.89,,,,,,,,,d,orange,6017c3b1a4e4aaa45656b73f,2021-09-27_16h15.42.653,forced_choiceRT_color,2021.2.3,Win32,60.06006006,,,,,,,,8,Ontime,long,d,1,2.0754,0,2,2,0,1,,,,,
,1.78,,,,,,,,,j,red,6017c3b1a4e4aaa45656b73f,2021-09-27_16h15.42.653,forced_choiceRT_color,2021.2.3,Win32,60.06006006,,,,,,,,8,Slow,long,d,0,2.3377,0,3,3,2,1,,,,,
,1.29,,,,,,,,,f,blue,6017c3b1a4e4aaa45656b73f,2021-09-27_16h15.42.653,forced_choiceRT_color,2021.2.3,Win32,60.06006006,,,,,,,,8,Ontime,long,f,1,1.9242,1,0,4,1,1,,,,,
,0.98,,,,,,,,,k,purple,6017c3b1a4e4aaa45656b73f,2021-09-27_16h15.42.653,forced_choiceRT_color,2021.2.3,Win32,60.06006006,,,,,,,,8,Ontime,long,k,1,2.089,1,1,5,3,1,,,,,
,1.6,,,,,,,,,k,purple,6017c3b1a4e4aaa45656b73f,2021-09-27_16h15.42.653,forced_choiceRT_color,2021.2.3,Win32,60.06006006,,,,,,,,8,Slow,long,k,1,2.1721,1,2,6,3,1,,,,,
,1.57,,,,,,,,,k,purple,6017c3b1a4e4aaa45656b73f,2021-09-27_16h15.42.653,forced_choiceRT_color,2021.2.3,Win32,60.06006006,,,,,,,,8,Ontime,long,k,1,2.0131,1,3,7,3,1,,,,,
,1.41,,,,,,,,,f,blue,6017c3b1a4e4aaa45656b73f,2021-09-27_16h15.42.653,forced_choiceRT_color,2021.2.3,Win32,60.06006006,,,,,,,,8,Ontime,long,f,1,2.0576,2,0,8,1,1,,,,,
,1.76,,,,,,,,,f,blue,6017c3b1a4e4aaa45656b73f,2021-09-27_16h15.42.653,forced_choiceRT_color,2021.2.3,Win32,60.06006006,,,,,,,,8,Slow,long,f,1,2.5398,2,1,9,1,1,,,,,
,0.47,,,,,,,,,j,red,6017c3b1a4e4aaa45656b73f,2021-09-27_16h15.42.653,forced_choiceRT_color,2021.2.3,Win32,60.06006006,,,,,,,,8,Ontime,long,j,1,2.0884,2,2,10,2,1,,,,,
,1.09,,,,,,,,,k,purple,6017c3b1a4e4aaa45656b73f,2021-09-27_16h15.42.653,forced_choiceRT_color,2021.2.3,Win32,60.06006006,,,,,,,,8,Slow,long,k,1,2.1242,2,3,11,3,1,,,,,
,0.33,,,,,,,,,j,red,6017c3b1a4e4aaa45656b73f,2021-09-27_16h15.42.653,forced_choiceRT_color,2021.2.3,Win32,60.06006006,,,,,,,,8,Ontime,long,j,1,1.991,3,0,12,2,1,,,,,
,0.23,,,,,,,,,f,blue,6017c3b1a4e4aaa45656b73f,2021-09-27_16h15.42.653,forced_choiceRT_color,2021.2.3,Win32,60.06006006,,,,,,,,8,Ontime,long,f,1,2.0572,3,1,13,1,1,,,,,
,1.19,,,,,,,,,j,red,6017c3b1a4e4aaa45656b73f,2021-09-27_16h15.42.653,forced_choiceRT_color,2021.2.3,Win32,60.06006006,,,,,,,,8,Slow,long,j,1,2.1128,3,2,14,2,1,,,,,
,1.01,,,,,,,,,d,orange,6017c3b1a4e4aaa45656b73f,2021-09-27_16h15.42.653,forced_choiceRT_color,2021.2.3,Win32,60.06006006,,,,,,,,8,Ontime,long,d,1,2.0834,3,3,15,0,1,,,,,
,0.67,,,,,,,,,f,blue,6017c3b1a4e4aaa45656b73f,2021-09-27_16h15.42.653,forced_choiceRT_color,2021.2.3,Win32,60.06006006,,,,,,,,8,Ontime,long,f,1,2.0239,4,0,16,1,1,,,,,
,1.57,,,,,,,,,k,purple,6017c3b1a4e4aaa45656b73f,2021-09-27_16h15.42.653,forced_choiceRT_color,2021.2.3,Win32,60.06006006,,,,,,,,8,Slow,long,k,1,2.2904,4,1,17,3,1,,,,,
,0.03,,,,,,,,,f,blue,6017c3b1a4e4aaa45656b73f,2021-09-27_16h15.42.653,forced_choiceRT_color,2021.2.3,Win32,60.06006006,,,,,,,,8,Ontime,long,f,1,2.0065,4,2,18,1,1,,,,,
,1.32,,,,,,,,,d,orange,6017c3b1a4e4aaa45656b73f,2021-09-27_16h15.42.653,forced_choiceRT_color,2021.2.3,Win32,60.06006006,,,,,,,,8,Slow,long,d,1,2.1295,4,3,19,0,1,,,,,
,0.93,,,,,,,,,j,red,6017c3b1a4e4aaa45656b73f,2021-09-27_16h15.42.653,forced_choiceRT_color,2021.2.3,Win32,60.06006006,,,,,,,,8,Ontime,long,j,1,2.0557,5,0,20,2,1,,,,,
,1.48,,,,,,,,,k,purple,6017c3b1a4e4aaa45656b73f,2021-09-27_16h15.42.653,forced_choiceRT_color,2021.2.3,Win32,60.06006006,,,,,,,,8,Ontime,long,k,1,2.0555,5,1,21,3,1,,,,,
,0.77,,,,,,,,,d,orange,6017c3b1a4e4aaa45656b73f,2021-09-27_16h15.42.653,forced_choiceRT_color,2021.2.3,Win32,60.06006006,,,,,,,,8,Ontime,long,d,1,2.0606,5,2,22,0,1,,,,,
,1.73,,,,,,,,,d,orange,6017c3b1a4e4aaa45656b73f,2021-09-27_16h15.42.653,forced_choiceRT_color,2021.2.3,Win32,60.06006006,,,,,,,,8,Slow,long,d,1,2.2257,5,3,23,0,1,,,,,
,0.9,,,,,,,,,d,orange,6017c3b1a4e4aaa45656b73f,2021-09-27_16h15.42.653,forced_choiceRT_color,2021.2.3,Win32,60.06006006,,,,,,,,8,Ontime,long,d,1,2.0223,6,0,24,0,1,,,,,
,1.82,,,,,,,,,j,red,6017c3b1a4e4aaa45656b73f,2021-09-27_16h15.42.653,forced_choiceRT_color,2021.2.3,Win32,60.06006006,,,,,,,,8,Slow,long,j,1,2.5789,6,1,25,2,1,,,,,
,0.34,,,,,,,,,d,orange,6017c3b1a4e4aaa45656b73f,2021-09-27_16h15.42.653,forced_choiceRT_color,2021.2.3,Win32,60.06006006,,,,,,,,8,Ontime,long,d,1,1.9617,6,2,26,0,1,,,,,
,0.88,,,,,,,,,k,purple,6017c3b1a4e4aaa45656b73f,2021-09-27_16h15.42.653,forced_choiceRT_color,2021.2.3,Win32,60.06006006,,,,,,,,8,Ontime,long,k,1,2.0549,6,3,27,3,1,,,,,
,1.5,,,,,,,,,d,orange,6017c3b1a4e4aaa45656b73f,2021-09-27_16h15.42.653,forced_choiceRT_color,2021.2.3,Win32,60.06006006,,,,,,,,8,Ontime,long,d,1,2.0966,7,0,28,0,1,,,,,
,1.71,,,,,,,,,j,red,6017c3b1a4e4aaa45656b73f,2021-09-27_16h15.42.653,forced_choiceRT_color,2021.2.3,Win32,60.06006006,,,,,,,,8,Slow,long,j,1,2.2403,7,1,29,2,1,,,,,
,1.03,,,,,,,,,k,purple,6017c3b1a4e4aaa45656b73f,2021-09-27_16h15.42.653,forced_choiceRT_color,2021.2.3,Win32,60.06006006,,,,,,,,8,Ontime,long,k,1,2.0612,7,2,30,3,1,,,,,
,1.75,,,,,,,,,d,orange,6017c3b1a4e4aaa45656b73f,2021-09-27_16h15.42.653,forced_choiceRT_color,2021.2.3,Win32,60.06006006,,,,,,,,8,Slow,long,d,1,2.2918,7,3,31,0,1,,,,,
,0.72,,,,,,,,,j,red,6017c3b1a4e4aaa45656b73f,2021-09-27_16h15.42.653,forced_choiceRT_color,2021.2.3,Win32,60.06006006,,,,,,,,8,Ontime,long,j,1,2.0895,8,0,32,2,1,,,,,
,1.93,,,,,,,,,k,purple,6017c3b1a4e4aaa45656b73f,2021-09-27_16h15.42.653,forced_choiceRT_color,2021.2.3,Win32,60.06006006,,,,,,,,8,Slow,long,k,1,2.5907,8,1,33,3,1,,,,,
,1.05,,,,,,,,,f,blue,6017c3b1a4e4aaa45656b73f,2021-09-27_16h15.42.653,forced_choiceRT_color,2021.2.3,Win32,60.06006006,,,,,,,,8,Ontime,long,f,1,2.0898,8,2,34,1,1,,,,,
,1.31,,,,,,,,,k,purple,6017c3b1a4e4aaa45656b73f,2021-09-27_16h15.42.653,forced_choiceRT_color,2021.2.3,Win32,60.06006006,,,,,,,,8,Ontime,long,k,1,1.9039,8,3,35,3,1,,,,,
,0.72,,,,,,,,,d,orange,6017c3b1a4e4aaa45656b73f,2021-09-27_16h15.42.653,forced_choiceRT_color,2021.2.3,Win32,60.06006006,,,,,,,,8,Fast,long,d,1,1.865,9,0,36,0,1,,,,,
,1.01,,,,,,,,,f,blue,6017c3b1a4e4aaa45656b73f,2021-09-27_16h15.42.653,forced_choiceRT_color,2021.2.3,Win32,60.06006006,,,,,,,,8,Slow,long,f,1,2.1258,9,1,37,1,1,,,,,
,1.53,,,,,,,,,f,blue,6017c3b1a4e4aaa45656b73f,2021-09-27_16h15.42.653,forced_choiceRT_color,2021.2.3,Win32,60.06006006,,,,,,,,8,Slow,long,f,1,2.2035,9,2,38,1,1,,,,,
,0.09,,,,,,,,,j,red,6017c3b1a4e4aaa45656b73f,2021-09-27_16h15.42.653,forced_choiceRT_color,2021.2.3,Win32,60.06006006,,,,,,,,8,Ontime,long,j,1,2.0701,9,3,39,2,1,,,,,
,,,,,,,,,,,,6017c3b1a4e4aaa45656b73f,2021-09-27_16h15.42.653,forced_choiceRT_color,2021.2.3,Win32,60.06006006,,,,,,,,,,,,,,,,,,,7,0,7,0,1
,1.44,,,,,,,,,j,red,6017c3b1a4e4aaa45656b73f,2021-09-27_16h15.42.653,forced_choiceRT_color,2021.2.3,Win32,60.06006006,,,,,,,,9,Slow,long,j,1,2.2478,0,0,0,2,1,,,,,
,0.63,,,,,,,,,f,blue,6017c3b1a4e4aaa45656b73f,2021-09-27_16h15.42.653,forced_choiceRT_color,2021.2.3,Win32,60.06006006,,,,,,,,9,Ontime,long,f,1,2.0085,0,1,1,1,1,,,,,
,0.44,,,,,,,,,f,blue,6017c3b1a4e4aaa45656b73f,2021-09-27_16h15.42.653,forced_choiceRT_color,2021.2.3,Win32,60.06006006,,,,,,,,9,Ontime,long,f,1,2.0299,0,2,2,1,1,,,,,
,1.09,,,,,,,,,k,purple,6017c3b1a4e4aaa45656b73f,2021-09-27_16h15.42.653,forced_choiceRT_color,2021.2.3,Win32,60.06006006,,,,,,,,9,Ontime,long,k,1,2.0387,0,3,3,3,1,,,,,
,1.69,,,,,,,,,f,blue,6017c3b1a4e4aaa45656b73f,2021-09-27_16h15.42.653,forced_choiceRT_color,2021.2.3,Win32,60.06006006,,,,,,,,9,Slow,long,f,1,2.2899,1,0,4,1,1,,,,,
,0.7,,,,,,,,,j,red,6017c3b1a4e4aaa45656b73f,2021-09-27_16h15.42.653,forced_choiceRT_color,2021.2.3,Win32,60.06006006,,,,,,,,9,Ontime,long,j,1,2.092,1,1,5,2,1,,,,,
,1.81,,,,,,,,,f,blue,6017c3b1a4e4aaa45656b73f,2021-09-27_16h15.42.653,forced_choiceRT_color,2021.2.3,Win32,60.06006006,,,,,,,,9,Slow,long,f,1,2.6167,1,2,6,1,1,,,,,
,1.08,,,,,,,,,k,purple,6017c3b1a4e4aaa45656b73f,2021-09-27_16h15.42.653,forced_choiceRT_color,2021.2.3,Win32,60.06006006,,,,,,,,9,Ontime,long,k,1,2.0426,1,3,7,3,1,,,,,
,0.49,,,,,,,,,k,purple,6017c3b1a4e4aaa45656b73f,2021-09-27_16h15.42.653,forced_choiceRT_color,2021.2.3,Win32,60.06006006,,,,,,,,9,Ontime,long,k,1,2.0983,2,0,8,3,1,,,,,
,0.22,,,,,,,,,f,blue,6017c3b1a4e4aaa45656b73f,2021-09-27_16h15.42.653,forced_choiceRT_color,2021.2.3,Win32,60.06006006,,,,,,,,9,Slow,long,f,1,2.1249,2,1,9,1,1,,,,,
,1.84,,,,,,,,,d,orange,6017c3b1a4e4aaa45656b73f,2021-09-27_16h15.42.653,forced_choiceRT_color,2021.2.3,Win32,60.06006006,,,,,,,,9,Slow,long,d,1,2.5219,2,2,10,0,1,,,,,
,1.3,,,,,,,,,k,purple,6017c3b1a4e4aaa45656b73f,2021-09-27_16h15.42.653,forced_choiceRT_color,2021.2.3,Win32,60.06006006,,,,,,,,9,Slow,long,k,1,2.115,2,3,11,3,1,,,,,
,1.63,,,,,,,,,d,orange,6017c3b1a4e4aaa45656b73f,2021-09-27_16h15.42.653,forced_choiceRT_color,2021.2.3,Win32,60.06006006,,,,,,,,9,Slow,long,d,1,2.3019,3,0,12,0,1,,,,,
,0.22,,,,,,,,,j,red,6017c3b1a4e4aaa45656b73f,2021-09-27_16h15.42.653,forced_choiceRT_color,2021.2.3,Win32,60.06006006,,,,,,,,9,Fast,long,j,1,1.7249,3,1,13,2,1,,,,,
,0.81,,,,,,,,,d,orange,6017c3b1a4e4aaa45656b73f,2021-09-27_16h15.42.653,forced_choiceRT_color,2021.2.3,Win32,60.06006006,,,,,,,,9,Ontime,long,d,1,2.0283,3,2,14,0,1,,,,,
,1.47,,,,,,,,,d,orange,6017c3b1a4e4aaa45656b73f,2021-09-27_16h15.42.653,forced_choiceRT_color,2021.2.3,Win32,60.06006006,,,,,,,,9,Ontime,long,d,1,2.0907,3,3,15,0,1,,,,,
,0.88,,,,,,,,,j,red,6017c3b1a4e4aaa45656b73f,2021-09-27_16h15.42.653,forced_choiceRT_color,2021.2.3,Win32,60.06006006,,,,,,,,9,Slow,long,j,1,2.1047,4,0,16,2,1,,,,,
,0.13,,,,,,,,,j,red,6017c3b1a4e4aaa45656b73f,2021-09-27_16h15.42.653,forced_choiceRT_color,2021.2.3,Win32,60.06006006,,,,,,,,9,Fast,long,j,1,1.7211,4,1,17,2,1,,,,,
,0.79,,,,,,,,,d,orange,6017c3b1a4e4aaa45656b73f,2021-09-27_16h15.42.653,forced_choiceRT_color,2021.2.3,Win32,60.06006006,,,,,,,,9,Ontime,long,d,1,2.0466,4,2,18,0,1,,,,,
,1.71,,,,,,,,,j,red,6017c3b1a4e4aaa45656b73f,2021-09-27_16h15.42.653,forced_choiceRT_color,2021.2.3,Win32,60.06006006,,,,,,,,9,Slow,long,j,1,3.2046,4,3,19,2,1,,,,,
,1.89,,,,,,,,,f,blue,6017c3b1a4e4aaa45656b73f,2021-09-27_16h15.42.653,forced_choiceRT_color,2021.2.3,Win32,60.06006006,,,,,,,,9,Slow,long,f,1,2.5715,5,0,20,1,1,,,,,
,0.14,,,,,,,,,d,orange,6017c3b1a4e4aaa45656b73f,2021-09-27_16h15.42.653,forced_choiceRT_color,2021.2.3,Win32,60.06006006,,,,,,,,9,Fast,long,d,1,1.8761,5,1,21,0,1,,,,,
,0.42,,,,,,,,,f,blue,6017c3b1a4e4aaa45656b73f,2021-09-27_16h15.42.653,forced_choiceRT_color,2021.2.3,Win32,60.06006006,,,,,,,,9,Ontime,long,f,1,2.0293,5,2,22,1,1,,,,,
,1.48,,,,,,,,,k,purple,6017c3b1a4e4aaa45656b73f,2021-09-27_16h15.42.653,forced_choiceRT_color,2021.2.3,Win32,60.06006006,,,,,,,,9,Slow,long,k,1,2.1312,5,3,23,3,1,,,,,
,1.15,,,,,,,,,k,purple,6017c3b1a4e4aaa45656b73f,2021-09-27_16h15.42.653,forced_choiceRT_color,2021.2.3,Win32,60.06006006,,,,,,,,9,Ontime,long,k,1,1.9949,6,0,24,3,1,,,,,
,0.84,,,,,,,,,j,red,6017c3b1a4e4aaa45656b73f,2021-09-27_16h15.42.653,forced_choiceRT_color,2021.2.3,Win32,60.06006006,,,,,,,,9,Ontime,long,j,1,2.0907,6,1,25,2,1,,,,,
,0.45,,,,,,,,,d,orange,6017c3b1a4e4aaa45656b73f,2021-09-27_16h15.42.653,forced_choiceRT_color,2021.2.3,Win32,60.06006006,,,,,,,,9,Slow,long,d,1,5.5076,6,2,26,0,1,,,,,
,0.47,,,,,,,,,k,purple,6017c3b1a4e4aaa45656b73f,2021-09-27_16h15.42.653,forced_choiceRT_color,2021.2.3,Win32,60.06006006,,,,,,,,9,Ontime,long,k,1,1.9997,6,3,27,3,1,,,,,
,1.75,,,,,,,,,f,blue,6017c3b1a4e4aaa45656b73f,2021-09-27_16h15.42.653,forced_choiceRT_color,2021.2.3,Win32,60.06006006,,,,,,,,9,Slow,long,f,1,2.7645,7,0,28,1,1,,,,,
,1.58,,,,,,,,,d,orange,6017c3b1a4e4aaa45656b73f,2021-09-27_16h15.42.653,forced_choiceRT_color,2021.2.3,Win32,60.06006006,,,,,,,,9,Slow,long,d,1,2.1589,7,1,29,0,1,,,,,
,0.25,,,,,,,,,k,purple,6017c3b1a4e4aaa45656b73f,2021-09-27_16h15.42.653,forced_choiceRT_color,2021.2.3,Win32,60.06006006,,,,,,,,9,Slow,long,k,1,2.1041,7,2,30,3,1,,,,,
,0.64,,,,,,,,,f,blue,6017c3b1a4e4aaa45656b73f,2021-09-27_16h15.42.653,forced_choiceRT_color,2021.2.3,Win32,60.06006006,,,,,,,,9,Ontime,long,f,1,2.0242,7,3,31,1,1,,,,,
,0.03,,,,,,,,,j,red,6017c3b1a4e4aaa45656b73f,2021-09-27_16h15.42.653,forced_choiceRT_color,2021.2.3,Win32,60.06006006,,,,,,,,9,Slow,long,j,1,2.1554,8,0,32,2,1,,,,,
,1.53,,,,,,,,,k,purple,6017c3b1a4e4aaa45656b73f,2021-09-27_16h15.42.653,forced_choiceRT_color,2021.2.3,Win32,60.06006006,,,,,,,,9,Slow,long,k,1,2.1217,8,1,33,3,1,,,,,
,0.43,,,,,,,,,k,purple,6017c3b1a4e4aaa45656b73f,2021-09-27_16h15.42.653,forced_choiceRT_color,2021.2.3,Win32,60.06006006,,,,,,,,9,Ontime,long,k,1,2.072,8,2,34,3,1,,,,,
,0.25,,,,,,,,,j,red,6017c3b1a4e4aaa45656b73f,2021-09-27_16h15.42.653,forced_choiceRT_color,2021.2.3,Win32,60.06006006,,,,,,,,9,Ontime,long,j,1,2.051,8,3,35,2,1,,,,,
,1.58,,,,,,,,,d,orange,6017c3b1a4e4aaa45656b73f,2021-09-27_16h15.42.653,forced_choiceRT_color,2021.2.3,Win32,60.06006006,,,,,,,,9,Slow,long,d,1,4.9655,9,0,36,0,1,,,,,
,0.68,,,,,,,,,j,red,6017c3b1a4e4aaa45656b73f,2021-09-27_16h15.42.653,forced_choiceRT_color,2021.2.3,Win32,60.06006006,,,,,,,,9,Slow,long,j,1,2.1079,9,1,37,2,1,,,,,
,0.81,,,,,,,,,d,orange,6017c3b1a4e4aaa45656b73f,2021-09-27_16h15.42.653,forced_choiceRT_color,2021.2.3,Win32,60.06006006,,,,,,,,9,Ontime,long,d,1,2.0721,9,2,38,0,1,,,,,
,0.45,,,,,,,,,f,blue,6017c3b1a4e4aaa45656b73f,2021-09-27_16h15.42.653,forced_choiceRT_color,2021.2.3,Win32,60.06006006,,,,,,,,9,Ontime,long,f,1,2.089,9,3,39,1,1,,,,,
,,,,,,,,,,,,6017c3b1a4e4aaa45656b73f,2021-09-27_16h15.42.653,forced_choiceRT_color,2021.2.3,Win32,60.06006006,,,,,,,,,,,,,,,,,,,8,0,8,0,1
,1.22,,,,,,,,,d,orange,6017c3b1a4e4aaa45656b73f,2021-09-27_16h15.42.653,forced_choiceRT_color,2021.2.3,Win32,60.06006006,,,,,,,,10,Ontime,long,d,1,1.9346,0,0,0,0,1,,,,,
,1.1,,,,,,,,,k,purple,6017c3b1a4e4aaa45656b73f,2021-09-27_16h15.42.653,forced_choiceRT_color,2021.2.3,Win32,60.06006006,,,,,,,,10,Fast,long,k,1,1.7534,0,1,1,3,1,,,,,
,0.27,,,,,,,,,f,blue,6017c3b1a4e4aaa45656b73f,2021-09-27_16h15.42.653,forced_choiceRT_color,2021.2.3,Win32,60.06006006,,,,,,,,10,Ontime,long,f,1,2.0919,0,2,2,1,1,,,,,
,0.53,,,,,,,,,d,orange,6017c3b1a4e4aaa45656b73f,2021-09-27_16h15.42.653,forced_choiceRT_color,2021.2.3,Win32,60.06006006,,,,,,,,10,Ontime,long,d,1,2.08,0,3,3,0,1,,,,,
,1.12,,,,,,,,,d,orange,6017c3b1a4e4aaa45656b73f,2021-09-27_16h15.42.653,forced_choiceRT_color,2021.2.3,Win32,60.06006006,,,,,,,,10,Ontime,long,d,1,1.9143,1,0,4,0,1,,,,,
,0.34,,,,,,,,,j,red,6017c3b1a4e4aaa45656b73f,2021-09-27_16h15.42.653,forced_choiceRT_color,2021.2.3,Win32,60.06006006,,,,,,,,10,Ontime,long,j,1,2.0219,1,1,5,2,1,,,,,
,0.5,,,,,,,,,d,orange,6017c3b1a4e4aaa45656b73f,2021-09-27_16h15.42.653,forced_choiceRT_color,2021.2.3,Win32,60.06006006,,,,,,,,10,Slow,long,d,1,2.1309,1,2,6,0,1,,,,,
,1.24,,,,,,,,,j,red,6017c3b1a4e4aaa45656b73f,2021-09-27_16h15.42.653,forced_choiceRT_color,2021.2.3,Win32,60.06006006,,,,,,,,10,Ontime,long,j,1,2.0379,1,3,7,2,1,,,,,
,0.14,,,,,,,,,d,orange,6017c3b1a4e4aaa45656b73f,2021-09-27_16h15.42.653,forced_choiceRT_color,2021.2.3,Win32,60.06006006,,,,,,,,10,Fast,long,d,1,1.8131,2,0,8,0,1,,,,,
,0.06,,,,,,,,,k,purple,6017c3b1a4e4aaa45656b73f,2021-09-27_16h15.42.653,forced_choiceRT_color,2021.2.3,Win32,60.06006006,,,,,,,,10,Ontime,long,k,1,2.0711,2,1,9,3,1,,,,,
,0.33,,,,,,,,,k,purple,6017c3b1a4e4aaa45656b73f,2021-09-27_16h15.42.653,forced_choiceRT_color,2021.2.3,Win32,60.06006006,,,,,,,,10,Ontime,long,k,1,2.0385,2,2,10,3,1,,,,,
,0.02,,,,,,,,,f,blue,6017c3b1a4e4aaa45656b73f,2021-09-27_16h15.42.653,forced_choiceRT_color,2021.2.3,Win32,60.06006006,,,,,,,,10,Ontime,long,f,1,2.0462,2,3,11,1,1,,,,,
,1.86,,,,,,,,,f,blue,6017c3b1a4e4aaa45656b73f,2021-09-27_16h15.42.653,forced_choiceRT_color,2021.2.3,Win32,60.06006006,,,,,,,,10,Slow,long,f,1,2.3925,3,0,12,1,1,,,,,
,0.38,,,,,,,,,j,red,6017c3b1a4e4aaa45656b73f,2021-09-27_16h15.42.653,forced_choiceRT_color,2021.2.3,Win32,60.06006006,,,,,,,,10,Ontime,long,j,1,2.0909,3,1,13,2,1,,,,,
,0.22,,,,,,,,,j,red,6017c3b1a4e4aaa45656b73f,2021-09-27_16h15.42.653,forced_choiceRT_color,2021.2.3,Win32,60.06006006,,,,,,,,10,Slow,long,j,1,2.1016,3,2,14,2,1,,,,,
,0.87,,,,,,,,,f,blue,6017c3b1a4e4aaa45656b73f,2021-09-27_16h15.42.653,forced_choiceRT_color,2021.2.3,Win32,60.06006006,,,,,,,,10,Ontime,long,f,1,2.023,3,3,15,1,1,,,,,
,0.6,,,,,,,,,f,blue,6017c3b1a4e4aaa45656b73f,2021-09-27_16h15.42.653,forced_choiceRT_color,2021.2.3,Win32,60.06006006,,,,,,,,10,Slow,long,f,1,2.1052,4,0,16,1,1,,,,,
,1.86,,,,,,,,,d,orange,6017c3b1a4e4aaa45656b73f,2021-09-27_16h15.42.653,forced_choiceRT_color,2021.2.3,Win32,60.06006006,,,,,,,,10,Slow,long,d,1,2.414,4,1,17,0,1,,,,,
,0.53,,,,,,,,,j,red,6017c3b1a4e4aaa45656b73f,2021-09-27_16h15.42.653,forced_choiceRT_color,2021.2.3,Win32,60.06006006,,,,,,,,10,Ontime,long,j,1,2.0802,4,2,18,2,1,,,,,
,0.09,,,,,,,,,d,orange,6017c3b1a4e4aaa45656b73f,2021-09-27_16h15.42.653,forced_choiceRT_color,2021.2.3,Win32,60.06006006,,,,,,,,10,Ontime,long,d,1,1.9382,4,3,19,0,1,,,,,
,0.09,,,,,,,,,d,orange,6017c3b1a4e4aaa45656b73f,2021-09-27_16h15.42.653,forced_choiceRT_color,2021.2.3,Win32,60.06006006,,,,,,,,10,Ontime,long,d,1,2.0227,5,0,20,0,1,,,,,
,0.35,,,,,,,,,f,blue,6017c3b1a4e4aaa45656b73f,2021-09-27_16h15.42.653,forced_choiceRT_color,2021.2.3,Win32,60.06006006,,,,,,,,10,Fast,long,f,1,1.8208,5,1,21,1,1,,,,,
,1.81,,,,,,,,,f,blue,6017c3b1a4e4aaa45656b73f,2021-09-27_16h15.42.653,forced_choiceRT_color,2021.2.3,Win32,60.06006006,,,,,,,,10,Slow,long,f,1,2.3477,5,2,22,1,1,,,,,
,1.45,,,,,,,,,j,red,6017c3b1a4e4aaa45656b73f,2021-09-27_16h15.42.653,forced_choiceRT_color,2021.2.3,Win32,60.06006006,,,,,,,,10,Slow,long,j,1,2.2581,5,3,23,2,1,,,,,
,1.96,,,,,,,,,k,purple,6017c3b1a4e4aaa45656b73f,2021-09-27_16h15.42.653,forced_choiceRT_color,2021.2.3,Win32,60.06006006,,,,,,,,10,Slow,long,k,1,2.6055,6,0,24,3,1,,,,,
,1.79,,,,,,,,,k,purple,6017c3b1a4e4aaa45656b73f,2021-09-27_16h15.42.653,forced_choiceRT_color,2021.2.3,Win32,60.06006006,,,,,,,,10,Slow,long,k,1,2.3382,6,1,25,3,1,,,,,
,0.25,,,,,,,,,j,red,6017c3b1a4e4aaa45656b73f,2021-09-27_16h15.42.653,forced_choiceRT_color,2021.2.3,Win32,60.06006006,,,,,,,,10,Ontime,long,j,1,2.0131,6,2,26,2,1,,,,,
,1.09,,,,,,,,,d,orange,6017c3b1a4e4aaa45656b73f,2021-09-27_16h15.42.653,forced_choiceRT_color,2021.2.3,Win32,60.06006006,,,,,,,,10,Ontime,long,d,1,2.0304,6,3,27,0,1,,,,,
,1.4,,,,,,,,,j,red,6017c3b1a4e4aaa45656b73f,2021-09-27_16h15.42.653,forced_choiceRT_color,2021.2.3,Win32,60.06006006,,,,,,,,10,Slow,long,j,1,2.215,7,0,28,2,1,,,,,
,1.87,,,,,,,,,k,purple,6017c3b1a4e4aaa45656b73f,2021-09-27_16h15.42.653,forced_choiceRT_color,2021.2.3,Win32,60.06006006,,,,,,,,10,Slow,long,k,1,2.5797,7,1,29,3,1,,,,,
,0.99,,,,,,,,,k,purple,6017c3b1a4e4aaa45656b73f,2021-09-27_16h15.42.653,forced_choiceRT_color,2021.2.3,Win32,60.06006006,,,,,,,,10,Fast,long,k,1,1.8889,7,2,30,3,1,,,,,
,0.74,,,,,,,,,k,purple,6017c3b1a4e4aaa45656b73f,2021-09-27_16h15.42.653,forced_choiceRT_color,2021.2.3,Win32,60.06006006,,,,,,,,10,Ontime,long,k,1,2.089,7,3,31,3,1,,,,,
,1.57,,,,,,,,,f,blue,6017c3b1a4e4aaa45656b73f,2021-09-27_16h15.42.653,forced_choiceRT_color,2021.2.3,Win32,60.06006006,,,,,,,,10,Slow,long,f,1,2.1542,8,0,32,1,1,,,,,
,1.45,,,,,,,,,k,purple,6017c3b1a4e4aaa45656b73f,2021-09-27_16h15.42.653,forced_choiceRT_color,2021.2.3,Win32,60.06006006,,,,,,,,10,Ontime,long,k,1,2.0956,8,1,33,3,1,,,,,
,1.45,,,,,,,,,d,orange,6017c3b1a4e4aaa45656b73f,2021-09-27_16h15.42.653,forced_choiceRT_color,2021.2.3,Win32,60.06006006,,,,,,,,10,Slow,long,d,1,2.345,8,2,34,0,1,,,,,
,1.25,,,,,,,,,f,blue,6017c3b1a4e4aaa45656b73f,2021-09-27_16h15.42.653,forced_choiceRT_color,2021.2.3,Win32,60.06006006,,,,,,,,10,Fast,long,f,1,1.8706,8,3,35,1,1,,,,,
,0.16,,,,,,,,,j,red,6017c3b1a4e4aaa45656b73f,2021-09-27_16h15.42.653,forced_choiceRT_color,2021.2.3,Win32,60.06006006,,,,,,,,10,Ontime,long,j,1,2.0925,9,0,36,2,1,,,,,
,0.29,,,,,,,,,k,purple,6017c3b1a4e4aaa45656b73f,2021-09-27_16h15.42.653,forced_choiceRT_color,2021.2.3,Win32,60.06006006,,,,,,,,10,Ontime,long,k,1,2.0751,9,1,37,3,1,,,,,
,1.72,,,,,,,,,f,blue,6017c3b1a4e4aaa45656b73f,2021-09-27_16h15.42.653,forced_choiceRT_color,2021.2.3,Win32,60.06006006,,,,,,,,10,Slow,long,f,1,2.3533,9,2,38,1,1,,,,,
,1.29,,,,,,,,,j,red,6017c3b1a4e4aaa45656b73f,2021-09-27_16h15.42.653,forced_choiceRT_color,2021.2.3,Win32,60.06006006,,,,,,,,10,Slow,long,j,1,2.8766,9,3,39,2,1,,,,,
,,,,,,,,,,,,6017c3b1a4e4aaa45656b73f,2021-09-27_16h15.42.653,forced_choiceRT_color,2021.2.3,Win32,60.06006006,,,,,,,,,,,,,,,,,,,9,0,9,0,1
