IP_Addresss,target_onset,trial_resp_sp.keys,trial_resp_sp.corr,trial_resp_sp.rt,trials_train_loop.thisRepN,trials_train_loop.thisTrialN,trials_train_loop.thisN,trials_train_loop.thisIndex,trials_train_loop.ran,correct_key,color,participant,date,expName,psychopyVersion,OS,frameRate,trial_resp_timing.keys,trial_resp_timing.rt,trials_train_timing.thisRepN,trials_train_timing.thisTrialN,trials_train_timing.thisN,trials_train_timing.thisIndex,trials_train_timing.ran,block_id,ontime,feedback_cond,forcedRT_resp.keys,forcedRT_resp.corr,forcedRT_resp.rt,trials.thisRepN,trials.thisTrialN,trials.thisN,trials.thisIndex,trials.ran,blocks.thisRepN,blocks.thisTrialN,blocks.thisN,blocks.thisIndex,blocks.ran
99.34.145.32,0,d,1,1.4422,0,0,0,0,1,d,orange,602451f15e338c12534710d0,2021-09-27_16h09.01.451,forced_choiceRT_color,2021.2.3,MacIntel,60.0024001,,,,,,,,,,,,,,,,,,,,,,,
,0,f,1,2.5516,0,1,1,1,1,f,blue,602451f15e338c12534710d0,2021-09-27_16h09.01.451,forced_choiceRT_color,2021.2.3,MacIntel,60.0024001,,,,,,,,,,,,,,,,,,,,,,,
,0,k,1,0.9632,0,2,2,3,1,k,purple,602451f15e338c12534710d0,2021-09-27_16h09.01.451,forced_choiceRT_color,2021.2.3,MacIntel,60.0024001,,,,,,,,,,,,,,,,,,,,,,,
,0,f,1,0.8166,0,3,3,1,1,f,blue,602451f15e338c12534710d0,2021-09-27_16h09.01.451,forced_choiceRT_color,2021.2.3,MacIntel,60.0024001,,,,,,,,,,,,,,,,,,,,,,,
,0,j,1,0.7666,1,0,4,2,1,j,red,602451f15e338c12534710d0,2021-09-27_16h09.01.451,forced_choiceRT_color,2021.2.3,MacIntel,60.0024001,,,,,,,,,,,,,,,,,,,,,,,
,0,j,1,0.5701,1,1,5,2,1,j,red,602451f15e338c12534710d0,2021-09-27_16h09.01.451,forced_choiceRT_color,2021.2.3,MacIntel,60.0024001,,,,,,,,,,,,,,,,,,,,,,,
,0,k,1,0.6286,1,2,6,3,1,k,purple,602451f15e338c12534710d0,2021-09-27_16h09.01.451,forced_choiceRT_color,2021.2.3,MacIntel,60.0024001,,,,,,,,,,,,,,,,,,,,,,,
,0,f,1,0.8674,1,3,7,1,1,f,blue,602451f15e338c12534710d0,2021-09-27_16h09.01.451,forced_choiceRT_color,2021.2.3,MacIntel,60.0024001,,,,,,,,,,,,,,,,,,,,,,,
,0,j,1,0.6833,2,0,8,2,1,j,red,602451f15e338c12534710d0,2021-09-27_16h09.01.451,forced_choiceRT_color,2021.2.3,MacIntel,60.0024001,,,,,,,,,,,,,,,,,,,,,,,
,0,j,1,0.5168,2,1,9,2,1,j,red,602451f15e338c12534710d0,2021-09-27_16h09.01.451,forced_choiceRT_color,2021.2.3,MacIntel,60.0024001,,,,,,,,,,,,,,,,,,,,,,,
,0,d,1,0.5833,2,2,10,0,1,d,orange,602451f15e338c12534710d0,2021-09-27_16h09.01.451,forced_choiceRT_color,2021.2.3,MacIntel,60.0024001,,,,,,,,,,,,,,,,,,,,,,,
,0,d,1,0.5017,2,3,11,0,1,d,orange,602451f15e338c12534710d0,2021-09-27_16h09.01.451,forced_choiceRT_color,2021.2.3,MacIntel,60.0024001,,,,,,,,,,,,,,,,,,,,,,,
,0,d,1,0.5967,3,0,12,0,1,d,orange,602451f15e338c12534710d0,2021-09-27_16h09.01.451,forced_choiceRT_color,2021.2.3,MacIntel,60.0024001,,,,,,,,,,,,,,,,,,,,,,,
,0,k,1,0.5343,3,1,13,3,1,k,purple,602451f15e338c12534710d0,2021-09-27_16h09.01.451,forced_choiceRT_color,2021.2.3,MacIntel,60.0024001,,,,,,,,,,,,,,,,,,,,,,,
,0,k,1,0.5728,3,2,14,3,1,k,purple,602451f15e338c12534710d0,2021-09-27_16h09.01.451,forced_choiceRT_color,2021.2.3,MacIntel,60.0024001,,,,,,,,,,,,,,,,,,,,,,,
,0,d,1,0.5318,3,3,15,0,1,d,orange,602451f15e338c12534710d0,2021-09-27_16h09.01.451,forced_choiceRT_color,2021.2.3,MacIntel,60.0024001,,,,,,,,,,,,,,,,,,,,,,,
,0,f,1,0.7142,4,0,16,1,1,f,blue,602451f15e338c12534710d0,2021-09-27_16h09.01.451,forced_choiceRT_color,2021.2.3,MacIntel,60.0024001,,,,,,,,,,,,,,,,,,,,,,,
,0,f,1,0.5134,4,1,17,1,1,f,blue,602451f15e338c12534710d0,2021-09-27_16h09.01.451,forced_choiceRT_color,2021.2.3,MacIntel,60.0024001,,,,,,,,,,,,,,,,,,,,,,,
,0,k,1,0.5396,4,2,18,3,1,k,purple,602451f15e338c12534710d0,2021-09-27_16h09.01.451,forced_choiceRT_color,2021.2.3,MacIntel,60.0024001,,,,,,,,,,,,,,,,,,,,,,,
,0,j,1,0.48,4,3,19,2,1,j,red,602451f15e338c12534710d0,2021-09-27_16h09.01.451,forced_choiceRT_color,2021.2.3,MacIntel,60.0024001,,,,,,,,,,,,,,,,,,,,,,,
,0,f,1,0.7049,5,0,20,1,1,f,blue,602451f15e338c12534710d0,2021-09-27_16h09.01.451,forced_choiceRT_color,2021.2.3,MacIntel,60.0024001,,,,,,,,,,,,,,,,,,,,,,,
,0,f,1,0.5186,5,1,21,1,1,f,blue,602451f15e338c12534710d0,2021-09-27_16h09.01.451,forced_choiceRT_color,2021.2.3,MacIntel,60.0024001,,,,,,,,,,,,,,,,,,,,,,,
,0,d,1,0.5509,5,2,22,0,1,d,orange,602451f15e338c12534710d0,2021-09-27_16h09.01.451,forced_choiceRT_color,2021.2.3,MacIntel,60.0024001,,,,,,,,,,,,,,,,,,,,,,,
,0,f,1,0.5303,5,3,23,1,1,f,blue,602451f15e338c12534710d0,2021-09-27_16h09.01.451,forced_choiceRT_color,2021.2.3,MacIntel,60.0024001,,,,,,,,,,,,,,,,,,,,,,,
,0,f,1,0.5665,6,0,24,1,1,f,blue,602451f15e338c12534710d0,2021-09-27_16h09.01.451,forced_choiceRT_color,2021.2.3,MacIntel,60.0024001,,,,,,,,,,,,,,,,,,,,,,,
,0,f,1,0.5173,6,1,25,1,1,f,blue,602451f15e338c12534710d0,2021-09-27_16h09.01.451,forced_choiceRT_color,2021.2.3,MacIntel,60.0024001,,,,,,,,,,,,,,,,,,,,,,,
,0,j,1,0.4663,6,2,26,2,1,j,red,602451f15e338c12534710d0,2021-09-27_16h09.01.451,forced_choiceRT_color,2021.2.3,MacIntel,60.0024001,,,,,,,,,,,,,,,,,,,,,,,
,0,k,1,0.4486,6,3,27,3,1,k,purple,602451f15e338c12534710d0,2021-09-27_16h09.01.451,forced_choiceRT_color,2021.2.3,MacIntel,60.0024001,,,,,,,,,,,,,,,,,,,,,,,
,0,d,1,0.5201,7,0,28,0,1,d,orange,602451f15e338c12534710d0,2021-09-27_16h09.01.451,forced_choiceRT_color,2021.2.3,MacIntel,60.0024001,,,,,,,,,,,,,,,,,,,,,,,
,0,j,0,0.4816,7,1,29,3,1,k,purple,602451f15e338c12534710d0,2021-09-27_16h09.01.451,forced_choiceRT_color,2021.2.3,MacIntel,60.0024001,,,,,,,,,,,,,,,,,,,,,,,
,0,k,1,0.5626,7,2,30,3,1,k,purple,602451f15e338c12534710d0,2021-09-27_16h09.01.451,forced_choiceRT_color,2021.2.3,MacIntel,60.0024001,,,,,,,,,,,,,,,,,,,,,,,
,0,d,1,0.584,7,3,31,0,1,d,orange,602451f15e338c12534710d0,2021-09-27_16h09.01.451,forced_choiceRT_color,2021.2.3,MacIntel,60.0024001,,,,,,,,,,,,,,,,,,,,,,,
,0,j,1,0.5999,8,0,32,2,1,j,red,602451f15e338c12534710d0,2021-09-27_16h09.01.451,forced_choiceRT_color,2021.2.3,MacIntel,60.0024001,,,,,,,,,,,,,,,,,,,,,,,
,0,f,1,0.6007,8,1,33,1,1,f,blue,602451f15e338c12534710d0,2021-09-27_16h09.01.451,forced_choiceRT_color,2021.2.3,MacIntel,60.0024001,,,,,,,,,,,,,,,,,,,,,,,
,0,f,1,0.4536,8,2,34,1,1,f,blue,602451f15e338c12534710d0,2021-09-27_16h09.01.451,forced_choiceRT_color,2021.2.3,MacIntel,60.0024001,,,,,,,,,,,,,,,,,,,,,,,
,0,d,1,0.6632,8,3,35,0,1,d,orange,602451f15e338c12534710d0,2021-09-27_16h09.01.451,forced_choiceRT_color,2021.2.3,MacIntel,60.0024001,,,,,,,,,,,,,,,,,,,,,,,
,0,j,1,0.6006,9,0,36,2,1,j,red,602451f15e338c12534710d0,2021-09-27_16h09.01.451,forced_choiceRT_color,2021.2.3,MacIntel,60.0024001,,,,,,,,,,,,,,,,,,,,,,,
,0,k,1,1.6512,9,1,37,3,1,k,purple,602451f15e338c12534710d0,2021-09-27_16h09.01.451,forced_choiceRT_color,2021.2.3,MacIntel,60.0024001,,,,,,,,,,,,,,,,,,,,,,,
,0,j,1,0.6359,9,2,38,2,1,j,red,602451f15e338c12534710d0,2021-09-27_16h09.01.451,forced_choiceRT_color,2021.2.3,MacIntel,60.0024001,,,,,,,,,,,,,,,,,,,,,,,
,0,j,1,0.47,9,3,39,2,1,j,red,602451f15e338c12534710d0,2021-09-27_16h09.01.451,forced_choiceRT_color,2021.2.3,MacIntel,60.0024001,,,,,,,,,,,,,,,,,,,,,,,
,0,d,1,0.4998,10,0,40,0,1,d,orange,602451f15e338c12534710d0,2021-09-27_16h09.01.451,forced_choiceRT_color,2021.2.3,MacIntel,60.0024001,,,,,,,,,,,,,,,,,,,,,,,
,0,j,1,0.6186,10,1,41,2,1,j,red,602451f15e338c12534710d0,2021-09-27_16h09.01.451,forced_choiceRT_color,2021.2.3,MacIntel,60.0024001,,,,,,,,,,,,,,,,,,,,,,,
,0,d,1,0.5507,10,2,42,0,1,d,orange,602451f15e338c12534710d0,2021-09-27_16h09.01.451,forced_choiceRT_color,2021.2.3,MacIntel,60.0024001,,,,,,,,,,,,,,,,,,,,,,,
,0,k,1,0.5335,10,3,43,3,1,k,purple,602451f15e338c12534710d0,2021-09-27_16h09.01.451,forced_choiceRT_color,2021.2.3,MacIntel,60.0024001,,,,,,,,,,,,,,,,,,,,,,,
,0,d,1,0.6984,11,0,44,0,1,d,orange,602451f15e338c12534710d0,2021-09-27_16h09.01.451,forced_choiceRT_color,2021.2.3,MacIntel,60.0024001,,,,,,,,,,,,,,,,,,,,,,,
,0,k,1,0.5531,11,1,45,3,1,k,purple,602451f15e338c12534710d0,2021-09-27_16h09.01.451,forced_choiceRT_color,2021.2.3,MacIntel,60.0024001,,,,,,,,,,,,,,,,,,,,,,,
,0,k,1,0.5007,11,2,46,3,1,k,purple,602451f15e338c12534710d0,2021-09-27_16h09.01.451,forced_choiceRT_color,2021.2.3,MacIntel,60.0024001,,,,,,,,,,,,,,,,,,,,,,,
,0,j,1,0.4837,11,3,47,2,1,j,red,602451f15e338c12534710d0,2021-09-27_16h09.01.451,forced_choiceRT_color,2021.2.3,MacIntel,60.0024001,,,,,,,,,,,,,,,,,,,,,,,
,0,d,1,0.4783,12,0,48,0,1,d,orange,602451f15e338c12534710d0,2021-09-27_16h09.01.451,forced_choiceRT_color,2021.2.3,MacIntel,60.0024001,,,,,,,,,,,,,,,,,,,,,,,
,0,f,1,0.3316,12,1,49,1,1,f,blue,602451f15e338c12534710d0,2021-09-27_16h09.01.451,forced_choiceRT_color,2021.2.3,MacIntel,60.0024001,,,,,,,,,,,,,,,,,,,,,,,
,0,k,1,0.4979,12,2,50,3,1,k,purple,602451f15e338c12534710d0,2021-09-27_16h09.01.451,forced_choiceRT_color,2021.2.3,MacIntel,60.0024001,,,,,,,,,,,,,,,,,,,,,,,
,0,j,1,0.485,12,3,51,2,1,j,red,602451f15e338c12534710d0,2021-09-27_16h09.01.451,forced_choiceRT_color,2021.2.3,MacIntel,60.0024001,,,,,,,,,,,,,,,,,,,,,,,
,0,f,1,0.6664,13,0,52,1,1,f,blue,602451f15e338c12534710d0,2021-09-27_16h09.01.451,forced_choiceRT_color,2021.2.3,MacIntel,60.0024001,,,,,,,,,,,,,,,,,,,,,,,
,0,j,1,0.4467,13,1,53,2,1,j,red,602451f15e338c12534710d0,2021-09-27_16h09.01.451,forced_choiceRT_color,2021.2.3,MacIntel,60.0024001,,,,,,,,,,,,,,,,,,,,,,,
,0,k,1,0.6149,13,2,54,3,1,k,purple,602451f15e338c12534710d0,2021-09-27_16h09.01.451,forced_choiceRT_color,2021.2.3,MacIntel,60.0024001,,,,,,,,,,,,,,,,,,,,,,,
,0,d,1,0.4989,13,3,55,0,1,d,orange,602451f15e338c12534710d0,2021-09-27_16h09.01.451,forced_choiceRT_color,2021.2.3,MacIntel,60.0024001,,,,,,,,,,,,,,,,,,,,,,,
,0,d,0,0.3832,14,0,56,1,1,f,blue,602451f15e338c12534710d0,2021-09-27_16h09.01.451,forced_choiceRT_color,2021.2.3,MacIntel,60.0024001,,,,,,,,,,,,,,,,,,,,,,,
,0,k,1,0.5033,14,1,57,3,1,k,purple,602451f15e338c12534710d0,2021-09-27_16h09.01.451,forced_choiceRT_color,2021.2.3,MacIntel,60.0024001,,,,,,,,,,,,,,,,,,,,,,,
,0,j,1,0.5132,14,2,58,2,1,j,red,602451f15e338c12534710d0,2021-09-27_16h09.01.451,forced_choiceRT_color,2021.2.3,MacIntel,60.0024001,,,,,,,,,,,,,,,,,,,,,,,
,0,d,1,0.5491,14,3,59,0,1,d,orange,602451f15e338c12534710d0,2021-09-27_16h09.01.451,forced_choiceRT_color,2021.2.3,MacIntel,60.0024001,,,,,,,,,,,,,,,,,,,,,,,
,,,,,,,,,,,,602451f15e338c12534710d0,2021-09-27_16h09.01.451,forced_choiceRT_color,2021.2.3,MacIntel,60.0024001,j,2.3455,0,0,0,0,1,,,,,,,,,,,,,,,,
,,,,,,,,,,,,602451f15e338c12534710d0,2021-09-27_16h09.01.451,forced_choiceRT_color,2021.2.3,MacIntel,60.0024001,j,1.5786,1,0,1,0,1,,,,,,,,,,,,,,,,
,,,,,,,,,,,,602451f15e338c12534710d0,2021-09-27_16h09.01.451,forced_choiceRT_color,2021.2.3,MacIntel,60.0024001,j,2.0974,2,0,2,0,1,,,,,,,,,,,,,,,,
,,,,,,,,,,,,602451f15e338c12534710d0,2021-09-27_16h09.01.451,forced_choiceRT_color,2021.2.3,MacIntel,60.0024001,j,2.1057,3,0,3,0,1,,,,,,,,,,,,,,,,
,,,,,,,,,,,,602451f15e338c12534710d0,2021-09-27_16h09.01.451,forced_choiceRT_color,2021.2.3,MacIntel,60.0024001,j,2.047,4,0,4,0,1,,,,,,,,,,,,,,,,
,,,,,,,,,,,,602451f15e338c12534710d0,2021-09-27_16h09.01.451,forced_choiceRT_color,2021.2.3,MacIntel,60.0024001,j,2.083,5,0,5,0,1,,,,,,,,,,,,,,,,
,,,,,,,,,,,,602451f15e338c12534710d0,2021-09-27_16h09.01.451,forced_choiceRT_color,2021.2.3,MacIntel,60.0024001,j,2.0836,6,0,6,0,1,,,,,,,,,,,,,,,,
,,,,,,,,,,,,602451f15e338c12534710d0,2021-09-27_16h09.01.451,forced_choiceRT_color,2021.2.3,MacIntel,60.0024001,j,2.0962,7,0,7,0,1,,,,,,,,,,,,,,,,
,,,,,,,,,,,,602451f15e338c12534710d0,2021-09-27_16h09.01.451,forced_choiceRT_color,2021.2.3,MacIntel,60.0024001,j,2.0261,8,0,8,0,1,,,,,,,,,,,,,,,,
,,,,,,,,,,,,602451f15e338c12534710d0,2021-09-27_16h09.01.451,forced_choiceRT_color,2021.2.3,MacIntel,60.0024001,j,1.9638,9,0,9,0,1,,,,,,,,,,,,,,,,
,,,,,,,,,,,,602451f15e338c12534710d0,2021-09-27_16h09.01.451,forced_choiceRT_color,2021.2.3,MacIntel,60.0024001,j,2.0183,10,0,10,0,1,,,,,,,,,,,,,,,,
,,,,,,,,,,,,602451f15e338c12534710d0,2021-09-27_16h09.01.451,forced_choiceRT_color,2021.2.3,MacIntel,60.0024001,j,2.014,11,0,11,0,1,,,,,,,,,,,,,,,,
,,,,,,,,,,,,602451f15e338c12534710d0,2021-09-27_16h09.01.451,forced_choiceRT_color,2021.2.3,MacIntel,60.0024001,j,2.1173,12,0,12,0,1,,,,,,,,,,,,,,,,
,,,,,,,,,,,,602451f15e338c12534710d0,2021-09-27_16h09.01.451,forced_choiceRT_color,2021.2.3,MacIntel,60.0024001,j,1.9501,13,0,13,0,1,,,,,,,,,,,,,,,,
,,,,,,,,,,,,602451f15e338c12534710d0,2021-09-27_16h09.01.451,forced_choiceRT_color,2021.2.3,MacIntel,60.0024001,j,1.9187,14,0,14,0,1,,,,,,,,,,,,,,,,
,,,,,,,,,,,,602451f15e338c12534710d0,2021-09-27_16h09.01.451,forced_choiceRT_color,2021.2.3,MacIntel,60.0024001,j,1.8316,15,0,15,0,1,,,,,,,,,,,,,,,,
,,,,,,,,,,,,602451f15e338c12534710d0,2021-09-27_16h09.01.451,forced_choiceRT_color,2021.2.3,MacIntel,60.0024001,j,2.0546,16,0,16,0,1,,,,,,,,,,,,,,,,
,,,,,,,,,,,,602451f15e338c12534710d0,2021-09-27_16h09.01.451,forced_choiceRT_color,2021.2.3,MacIntel,60.0024001,j,2.0208,17,0,17,0,1,,,,,,,,,,,,,,,,
,,,,,,,,,,,,602451f15e338c12534710d0,2021-09-27_16h09.01.451,forced_choiceRT_color,2021.2.3,MacIntel,60.0024001,j,2.0658,18,0,18,0,1,,,,,,,,,,,,,,,,
,,,,,,,,,,,,602451f15e338c12534710d0,2021-09-27_16h09.01.451,forced_choiceRT_color,2021.2.3,MacIntel,60.0024001,j,2.0792,19,0,19,0,1,,,,,,,,,,,,,,,,
,1.95,,,,,,,,,f,blue,602451f15e338c12534710d0,2021-09-27_16h09.01.451,forced_choiceRT_color,2021.2.3,MacIntel,60.0024001,,,,,,,,1,Ontime,long,j,0,2.0495,0,0,0,1,1,,,,,
,0.34,,,,,,,,,j,red,602451f15e338c12534710d0,2021-09-27_16h09.01.451,forced_choiceRT_color,2021.2.3,MacIntel,60.0024001,,,,,,,,1,Ontime,long,j,1,2.0134,0,1,1,2,1,,,,,
,0.69,,,,,,,,,j,red,602451f15e338c12534710d0,2021-09-27_16h09.01.451,forced_choiceRT_color,2021.2.3,MacIntel,60.0024001,,,,,,,,1,Ontime,long,j,1,2.0459,0,2,2,2,1,,,,,
,1.7,,,,,,,,,f,blue,602451f15e338c12534710d0,2021-09-27_16h09.01.451,forced_choiceRT_color,2021.2.3,MacIntel,60.0024001,,,,,,,,1,Slow,long,d,0,2.1768,0,3,3,1,1,,,,,
,1.63,,,,,,,,,f,blue,602451f15e338c12534710d0,2021-09-27_16h09.01.451,forced_choiceRT_color,2021.2.3,MacIntel,60.0024001,,,,,,,,1,Ontime,long,f,1,2.0817,1,0,4,1,1,,,,,
,0.98,,,,,,,,,f,blue,602451f15e338c12534710d0,2021-09-27_16h09.01.451,forced_choiceRT_color,2021.2.3,MacIntel,60.0024001,,,,,,,,1,Ontime,long,f,1,1.9963,1,1,5,1,1,,,,,
,1.06,,,,,,,,,d,orange,602451f15e338c12534710d0,2021-09-27_16h09.01.451,forced_choiceRT_color,2021.2.3,MacIntel,60.0024001,,,,,,,,1,Ontime,long,d,1,1.948,1,2,6,0,1,,,,,
,0.65,,,,,,,,,j,red,602451f15e338c12534710d0,2021-09-27_16h09.01.451,forced_choiceRT_color,2021.2.3,MacIntel,60.0024001,,,,,,,,1,Ontime,long,j,1,2.0968,1,3,7,2,1,,,,,
,0.38,,,,,,,,,k,purple,602451f15e338c12534710d0,2021-09-27_16h09.01.451,forced_choiceRT_color,2021.2.3,MacIntel,60.0024001,,,,,,,,1,Ontime,long,k,1,2.0632,2,0,8,3,1,,,,,
,0.88,,,,,,,,,d,orange,602451f15e338c12534710d0,2021-09-27_16h09.01.451,forced_choiceRT_color,2021.2.3,MacIntel,60.0024001,,,,,,,,1,Ontime,long,d,1,2.0282,2,1,9,0,1,,,,,
,0.99,,,,,,,,,k,purple,602451f15e338c12534710d0,2021-09-27_16h09.01.451,forced_choiceRT_color,2021.2.3,MacIntel,60.0024001,,,,,,,,1,Slow,long,j,0,2.1093,2,2,10,3,1,,,,,
,1.98,,,,,,,,,k,purple,602451f15e338c12534710d0,2021-09-27_16h09.01.451,forced_choiceRT_color,2021.2.3,MacIntel,60.0024001,,,,,,,,1,Slow,long,k,1,2.2784,2,3,11,3,1,,,,,
,1.81,,,,,,,,,k,purple,602451f15e338c12534710d0,2021-09-27_16h09.01.451,forced_choiceRT_color,2021.2.3,MacIntel,60.0024001,,,,,,,,1,Ontime,long,j,0,2.0467,3,0,12,3,1,,,,,
,0,,,,,,,,,j,red,602451f15e338c12534710d0,2021-09-27_16h09.01.451,forced_choiceRT_color,2021.2.3,MacIntel,60.0024001,,,,,,,,1,Ontime,long,j,1,2.0144,3,1,13,2,1,,,,,
,0.33,,,,,,,,,j,red,602451f15e338c12534710d0,2021-09-27_16h09.01.451,forced_choiceRT_color,2021.2.3,MacIntel,60.0024001,,,,,,,,1,Ontime,long,j,1,1.913,3,2,14,2,1,,,,,
,1.18,,,,,,,,,j,red,602451f15e338c12534710d0,2021-09-27_16h09.01.451,forced_choiceRT_color,2021.2.3,MacIntel,60.0024001,,,,,,,,1,Ontime,long,j,1,2.0106,3,3,15,2,1,,,,,
,0.79,,,,,,,,,f,blue,602451f15e338c12534710d0,2021-09-27_16h09.01.451,forced_choiceRT_color,2021.2.3,MacIntel,60.0024001,,,,,,,,1,Ontime,long,f,1,1.9588,4,0,16,1,1,,,,,
,1.29,,,,,,,,,f,blue,602451f15e338c12534710d0,2021-09-27_16h09.01.451,forced_choiceRT_color,2021.2.3,MacIntel,60.0024001,,,,,,,,1,Ontime,long,f,1,2.0472,4,1,17,1,1,,,,,
,1.3,,,,,,,,,j,red,602451f15e338c12534710d0,2021-09-27_16h09.01.451,forced_choiceRT_color,2021.2.3,MacIntel,60.0024001,,,,,,,,1,Slow,long,j,1,2.1639,4,2,18,2,1,,,,,
,1.17,,,,,,,,,k,purple,602451f15e338c12534710d0,2021-09-27_16h09.01.451,forced_choiceRT_color,2021.2.3,MacIntel,60.0024001,,,,,,,,1,Ontime,long,k,1,1.9803,4,3,19,3,1,,,,,
,0.42,,,,,,,,,d,orange,602451f15e338c12534710d0,2021-09-27_16h09.01.451,forced_choiceRT_color,2021.2.3,MacIntel,60.0024001,,,,,,,,1,Ontime,long,d,1,1.9134,5,0,20,0,1,,,,,
,0.19,,,,,,,,,j,red,602451f15e338c12534710d0,2021-09-27_16h09.01.451,forced_choiceRT_color,2021.2.3,MacIntel,60.0024001,,,,,,,,1,Ontime,long,j,1,1.9636,5,1,21,2,1,,,,,
,1.85,,,,,,,,,k,purple,602451f15e338c12534710d0,2021-09-27_16h09.01.451,forced_choiceRT_color,2021.2.3,MacIntel,60.0024001,,,,,,,,1,Slow,long,k,1,2.241,5,2,22,3,1,,,,,
,0.29,,,,,,,,,f,blue,602451f15e338c12534710d0,2021-09-27_16h09.01.451,forced_choiceRT_color,2021.2.3,MacIntel,60.0024001,,,,,,,,1,Ontime,long,f,1,1.9641,5,3,23,1,1,,,,,
,0.24,,,,,,,,,k,purple,602451f15e338c12534710d0,2021-09-27_16h09.01.451,forced_choiceRT_color,2021.2.3,MacIntel,60.0024001,,,,,,,,1,Fast,long,k,1,1.269,6,0,24,3,1,,,,,
,1.54,,,,,,,,,k,purple,602451f15e338c12534710d0,2021-09-27_16h09.01.451,forced_choiceRT_color,2021.2.3,MacIntel,60.0024001,,,,,,,,1,Slow,long,k,1,2.18,6,1,25,3,1,,,,,
,0.26,,,,,,,,,d,orange,602451f15e338c12534710d0,2021-09-27_16h09.01.451,forced_choiceRT_color,2021.2.3,MacIntel,60.0024001,,,,,,,,1,Ontime,long,d,1,1.9928,6,2,26,0,1,,,,,
,0.49,,,,,,,,,d,orange,602451f15e338c12534710d0,2021-09-27_16h09.01.451,forced_choiceRT_color,2021.2.3,MacIntel,60.0024001,,,,,,,,1,Slow,long,d,1,2.1143,6,3,27,0,1,,,,,
,0.07,,,,,,,,,k,purple,602451f15e338c12534710d0,2021-09-27_16h09.01.451,forced_choiceRT_color,2021.2.3,MacIntel,60.0024001,,,,,,,,1,Ontime,long,k,1,1.9783,7,0,28,3,1,,,,,
,0.03,,,,,,,,,j,red,602451f15e338c12534710d0,2021-09-27_16h09.01.451,forced_choiceRT_color,2021.2.3,MacIntel,60.0024001,,,,,,,,1,Ontime,long,j,1,2.0802,7,1,29,2,1,,,,,
,1.09,,,,,,,,,f,blue,602451f15e338c12534710d0,2021-09-27_16h09.01.451,forced_choiceRT_color,2021.2.3,MacIntel,60.0024001,,,,,,,,1,Fast,long,f,1,1.8107,7,2,30,1,1,,,,,
,1.64,,,,,,,,,j,red,602451f15e338c12534710d0,2021-09-27_16h09.01.451,forced_choiceRT_color,2021.2.3,MacIntel,60.0024001,,,,,,,,1,Ontime,long,j,1,2.0476,7,3,31,2,1,,,,,
,0.2,,,,,,,,,f,blue,602451f15e338c12534710d0,2021-09-27_16h09.01.451,forced_choiceRT_color,2021.2.3,MacIntel,60.0024001,,,,,,,,1,Ontime,long,f,1,2.0132,8,0,32,1,1,,,,,
,1.14,,,,,,,,,d,orange,602451f15e338c12534710d0,2021-09-27_16h09.01.451,forced_choiceRT_color,2021.2.3,MacIntel,60.0024001,,,,,,,,1,Ontime,long,d,1,2.0117,8,1,33,0,1,,,,,
,1.07,,,,,,,,,d,orange,602451f15e338c12534710d0,2021-09-27_16h09.01.451,forced_choiceRT_color,2021.2.3,MacIntel,60.0024001,,,,,,,,1,Ontime,long,d,1,1.984,8,2,34,0,1,,,,,
,0.41,,,,,,,,,d,orange,602451f15e338c12534710d0,2021-09-27_16h09.01.451,forced_choiceRT_color,2021.2.3,MacIntel,60.0024001,,,,,,,,1,Ontime,long,d,1,2.0252,8,3,35,0,1,,,,,
,0.34,,,,,,,,,f,blue,602451f15e338c12534710d0,2021-09-27_16h09.01.451,forced_choiceRT_color,2021.2.3,MacIntel,60.0024001,,,,,,,,1,Fast,long,f,1,1.8967,9,0,36,1,1,,,,,
,1.14,,,,,,,,,d,orange,602451f15e338c12534710d0,2021-09-27_16h09.01.451,forced_choiceRT_color,2021.2.3,MacIntel,60.0024001,,,,,,,,1,Ontime,long,d,1,1.964,9,1,37,0,1,,,,,
,0.55,,,,,,,,,k,purple,602451f15e338c12534710d0,2021-09-27_16h09.01.451,forced_choiceRT_color,2021.2.3,MacIntel,60.0024001,,,,,,,,1,Ontime,long,k,1,1.9775,9,2,38,3,1,,,,,
,1.44,,,,,,,,,d,orange,602451f15e338c12534710d0,2021-09-27_16h09.01.451,forced_choiceRT_color,2021.2.3,MacIntel,60.0024001,,,,,,,,1,Ontime,long,k,0,2.0083,9,3,39,0,1,,,,,
,,,,,,,,,,,,602451f15e338c12534710d0,2021-09-27_16h09.01.451,forced_choiceRT_color,2021.2.3,MacIntel,60.0024001,,,,,,,,,,,,,,,,,,,0,0,0,0,1
,1.93,,,,,,,,,f,blue,602451f15e338c12534710d0,2021-09-27_16h09.01.451,forced_choiceRT_color,2021.2.3,MacIntel,60.0024001,,,,,,,,2,Slow,long,f,1,2.4552,0,0,0,1,1,,,,,
,1.19,,,,,,,,,d,orange,602451f15e338c12534710d0,2021-09-27_16h09.01.451,forced_choiceRT_color,2021.2.3,MacIntel,60.0024001,,,,,,,,2,Ontime,long,d,1,1.9615,0,1,1,0,1,,,,,
,0.71,,,,,,,,,d,orange,602451f15e338c12534710d0,2021-09-27_16h09.01.451,forced_choiceRT_color,2021.2.3,MacIntel,60.0024001,,,,,,,,2,Ontime,long,d,1,1.9622,0,2,2,0,1,,,,,
,1.59,,,,,,,,,d,orange,602451f15e338c12534710d0,2021-09-27_16h09.01.451,forced_choiceRT_color,2021.2.3,MacIntel,60.0024001,,,,,,,,2,Ontime,long,d,1,2.0478,0,3,3,0,1,,,,,
,0.95,,,,,,,,,j,red,602451f15e338c12534710d0,2021-09-27_16h09.01.451,forced_choiceRT_color,2021.2.3,MacIntel,60.0024001,,,,,,,,2,Ontime,long,j,1,1.9419,1,0,4,2,1,,,,,
,1.39,,,,,,,,,f,blue,602451f15e338c12534710d0,2021-09-27_16h09.01.451,forced_choiceRT_color,2021.2.3,MacIntel,60.0024001,,,,,,,,2,Ontime,long,k,0,2.0928,1,1,5,1,1,,,,,
,1.94,,,,,,,,,f,blue,602451f15e338c12534710d0,2021-09-27_16h09.01.451,forced_choiceRT_color,2021.2.3,MacIntel,60.0024001,,,,,,,,2,Slow,long,f,1,2.1405,1,2,6,1,1,,,,,
,0.45,,,,,,,,,k,purple,602451f15e338c12534710d0,2021-09-27_16h09.01.451,forced_choiceRT_color,2021.2.3,MacIntel,60.0024001,,,,,,,,2,Ontime,long,k,1,1.9136,1,3,7,3,1,,,,,
,0.55,,,,,,,,,k,purple,602451f15e338c12534710d0,2021-09-27_16h09.01.451,forced_choiceRT_color,2021.2.3,MacIntel,60.0024001,,,,,,,,2,Ontime,long,k,1,1.9657,2,0,8,3,1,,,,,
,1.64,,,,,,,,,k,purple,602451f15e338c12534710d0,2021-09-27_16h09.01.451,forced_choiceRT_color,2021.2.3,MacIntel,60.0024001,,,,,,,,2,Ontime,long,k,1,2.093,2,1,9,3,1,,,,,
,1.97,,,,,,,,,k,purple,602451f15e338c12534710d0,2021-09-27_16h09.01.451,forced_choiceRT_color,2021.2.3,MacIntel,60.0024001,,,,,,,,2,Slow,long,f,0,2.1635,2,2,10,3,1,,,,,
,1.09,,,,,,,,,j,red,602451f15e338c12534710d0,2021-09-27_16h09.01.451,forced_choiceRT_color,2021.2.3,MacIntel,60.0024001,,,,,,,,2,Ontime,long,j,1,1.9951,2,3,11,2,1,,,,,
,1.91,,,,,,,,,d,orange,602451f15e338c12534710d0,2021-09-27_16h09.01.451,forced_choiceRT_color,2021.2.3,MacIntel,60.0024001,,,,,,,,2,Slow,long,k,0,2.1129,3,0,12,0,1,,,,,
,1.46,,,,,,,,,j,red,602451f15e338c12534710d0,2021-09-27_16h09.01.451,forced_choiceRT_color,2021.2.3,MacIntel,60.0024001,,,,,,,,2,Ontime,long,j,1,1.959,3,1,13,2,1,,,,,
,0.65,,,,,,,,,k,purple,602451f15e338c12534710d0,2021-09-27_16h09.01.451,forced_choiceRT_color,2021.2.3,MacIntel,60.0024001,,,,,,,,2,Ontime,long,k,1,1.9266,3,2,14,3,1,,,,,
,1.41,,,,,,,,,j,red,602451f15e338c12534710d0,2021-09-27_16h09.01.451,forced_choiceRT_color,2021.2.3,MacIntel,60.0024001,,,,,,,,2,Ontime,long,j,1,2.0091,3,3,15,2,1,,,,,
,1.47,,,,,,,,,d,orange,602451f15e338c12534710d0,2021-09-27_16h09.01.451,forced_choiceRT_color,2021.2.3,MacIntel,60.0024001,,,,,,,,2,Ontime,long,f,0,2.0264,4,0,16,0,1,,,,,
,1.59,,,,,,,,,j,red,602451f15e338c12534710d0,2021-09-27_16h09.01.451,forced_choiceRT_color,2021.2.3,MacIntel,60.0024001,,,,,,,,2,Slow,long,j,1,2.1335,4,1,17,2,1,,,,,
,0.92,,,,,,,,,k,purple,602451f15e338c12534710d0,2021-09-27_16h09.01.451,forced_choiceRT_color,2021.2.3,MacIntel,60.0024001,,,,,,,,2,Fast,long,k,1,1.8603,4,2,18,3,1,,,,,
,0.27,,,,,,,,,k,purple,602451f15e338c12534710d0,2021-09-27_16h09.01.451,forced_choiceRT_color,2021.2.3,MacIntel,60.0024001,,,,,,,,2,Ontime,long,k,1,1.9097,4,3,19,3,1,,,,,
,1.35,,,,,,,,,f,blue,602451f15e338c12534710d0,2021-09-27_16h09.01.451,forced_choiceRT_color,2021.2.3,MacIntel,60.0024001,,,,,,,,2,Ontime,long,f,1,1.9583,5,0,20,1,1,,,,,
,0.68,,,,,,,,,f,blue,602451f15e338c12534710d0,2021-09-27_16h09.01.451,forced_choiceRT_color,2021.2.3,MacIntel,60.0024001,,,,,,,,2,Slow,long,f,1,2.1711,5,1,21,1,1,,,,,
,1.62,,,,,,,,,f,blue,602451f15e338c12534710d0,2021-09-27_16h09.01.451,forced_choiceRT_color,2021.2.3,MacIntel,60.0024001,,,,,,,,2,Ontime,long,f,1,2.0631,5,2,22,1,1,,,,,
,0.22,,,,,,,,,f,blue,602451f15e338c12534710d0,2021-09-27_16h09.01.451,forced_choiceRT_color,2021.2.3,MacIntel,60.0024001,,,,,,,,2,Ontime,long,f,1,2.0269,5,3,23,1,1,,,,,
,0.32,,,,,,,,,d,orange,602451f15e338c12534710d0,2021-09-27_16h09.01.451,forced_choiceRT_color,2021.2.3,MacIntel,60.0024001,,,,,,,,2,Ontime,long,d,1,1.9987,6,0,24,0,1,,,,,
,1.3,,,,,,,,,k,purple,602451f15e338c12534710d0,2021-09-27_16h09.01.451,forced_choiceRT_color,2021.2.3,MacIntel,60.0024001,,,,,,,,2,Ontime,long,k,1,2.0802,6,1,25,3,1,,,,,
,0.32,,,,,,,,,j,red,602451f15e338c12534710d0,2021-09-27_16h09.01.451,forced_choiceRT_color,2021.2.3,MacIntel,60.0024001,,,,,,,,2,Ontime,long,j,1,2.0296,6,2,26,2,1,,,,,
,0.56,,,,,,,,,d,orange,602451f15e338c12534710d0,2021-09-27_16h09.01.451,forced_choiceRT_color,2021.2.3,MacIntel,60.0024001,,,,,,,,2,Ontime,long,d,1,1.9961,6,3,27,0,1,,,,,
,0.19,,,,,,,,,d,orange,602451f15e338c12534710d0,2021-09-27_16h09.01.451,forced_choiceRT_color,2021.2.3,MacIntel,60.0024001,,,,,,,,2,Ontime,long,d,1,1.9825,7,0,28,0,1,,,,,
,0.17,,,,,,,,,f,blue,602451f15e338c12534710d0,2021-09-27_16h09.01.451,forced_choiceRT_color,2021.2.3,MacIntel,60.0024001,,,,,,,,2,Fast,long,j,0,1.6778,7,1,29,1,1,,,,,
,0.13,,,,,,,,,j,red,602451f15e338c12534710d0,2021-09-27_16h09.01.451,forced_choiceRT_color,2021.2.3,MacIntel,60.0024001,,,,,,,,2,Ontime,long,j,1,2.0487,7,2,30,2,1,,,,,
,1.35,,,,,,,,,j,red,602451f15e338c12534710d0,2021-09-27_16h09.01.451,forced_choiceRT_color,2021.2.3,MacIntel,60.0024001,,,,,,,,2,Ontime,long,j,1,2.0945,7,3,31,2,1,,,,,
,0.95,,,,,,,,,d,orange,602451f15e338c12534710d0,2021-09-27_16h09.01.451,forced_choiceRT_color,2021.2.3,MacIntel,60.0024001,,,,,,,,2,Ontime,long,d,1,1.9587,8,0,32,0,1,,,,,
,1.99,,,,,,,,,f,blue,602451f15e338c12534710d0,2021-09-27_16h09.01.451,forced_choiceRT_color,2021.2.3,MacIntel,60.0024001,,,,,,,,2,Slow,long,f,1,2.5578,8,1,33,1,1,,,,,
,1.25,,,,,,,,,j,red,602451f15e338c12534710d0,2021-09-27_16h09.01.451,forced_choiceRT_color,2021.2.3,MacIntel,60.0024001,,,,,,,,2,Fast,long,j,1,1.8751,8,2,34,2,1,,,,,
,1.15,,,,,,,,,k,purple,602451f15e338c12534710d0,2021-09-27_16h09.01.451,forced_choiceRT_color,2021.2.3,MacIntel,60.0024001,,,,,,,,2,Fast,long,k,1,1.8616,8,3,35,3,1,,,,,
,0.02,,,,,,,,,f,blue,602451f15e338c12534710d0,2021-09-27_16h09.01.451,forced_choiceRT_color,2021.2.3,MacIntel,60.0024001,,,,,,,,2,Ontime,long,j,0,1.9625,9,0,36,1,1,,,,,
,0.73,,,,,,,,,d,orange,602451f15e338c12534710d0,2021-09-27_16h09.01.451,forced_choiceRT_color,2021.2.3,MacIntel,60.0024001,,,,,,,,2,Ontime,long,d,1,2.0129,9,1,37,0,1,,,,,
,1.34,,,,,,,,,j,red,602451f15e338c12534710d0,2021-09-27_16h09.01.451,forced_choiceRT_color,2021.2.3,MacIntel,60.0024001,,,,,,,,2,Fast,long,j,1,1.8415,9,2,38,2,1,,,,,
,1.98,,,,,,,,,k,purple,602451f15e338c12534710d0,2021-09-27_16h09.01.451,forced_choiceRT_color,2021.2.3,MacIntel,60.0024001,,,,,,,,2,Slow,long,k,1,2.1411,9,3,39,3,1,,,,,
,,,,,,,,,,,,602451f15e338c12534710d0,2021-09-27_16h09.01.451,forced_choiceRT_color,2021.2.3,MacIntel,60.0024001,,,,,,,,,,,,,,,,,,,1,0,1,0,1
,0.06,,,,,,,,,k,purple,602451f15e338c12534710d0,2021-09-27_16h09.01.451,forced_choiceRT_color,2021.2.3,MacIntel,60.0024001,,,,,,,,3,Fast,long,k,1,1.8824,0,0,0,3,1,,,,,
,0.85,,,,,,,,,d,orange,602451f15e338c12534710d0,2021-09-27_16h09.01.451,forced_choiceRT_color,2021.2.3,MacIntel,60.0024001,,,,,,,,3,Ontime,long,d,1,1.9283,0,1,1,0,1,,,,,
,0.67,,,,,,,,,j,red,602451f15e338c12534710d0,2021-09-27_16h09.01.451,forced_choiceRT_color,2021.2.3,MacIntel,60.0024001,,,,,,,,3,Ontime,long,j,1,1.9277,0,2,2,2,1,,,,,
,0.03,,,,,,,,,j,red,602451f15e338c12534710d0,2021-09-27_16h09.01.451,forced_choiceRT_color,2021.2.3,MacIntel,60.0024001,,,,,,,,3,Ontime,long,f,0,1.9597,0,3,3,2,1,,,,,
,1.98,,,,,,,,,f,blue,602451f15e338c12534710d0,2021-09-27_16h09.01.451,forced_choiceRT_color,2021.2.3,MacIntel,60.0024001,,,,,,,,3,Slow,long,d,0,2.1406,1,0,4,1,1,,,,,
,1.43,,,,,,,,,d,orange,602451f15e338c12534710d0,2021-09-27_16h09.01.451,forced_choiceRT_color,2021.2.3,MacIntel,60.0024001,,,,,,,,3,Ontime,long,d,1,1.9636,1,1,5,0,1,,,,,
,1.44,,,,,,,,,d,orange,602451f15e338c12534710d0,2021-09-27_16h09.01.451,forced_choiceRT_color,2021.2.3,MacIntel,60.0024001,,,,,,,,3,Ontime,long,d,1,2.0607,1,2,6,0,1,,,,,
,0.91,,,,,,,,,j,red,602451f15e338c12534710d0,2021-09-27_16h09.01.451,forced_choiceRT_color,2021.2.3,MacIntel,60.0024001,,,,,,,,3,Ontime,long,f,0,2.0152,1,3,7,2,1,,,,,
,1.05,,,,,,,,,k,purple,602451f15e338c12534710d0,2021-09-27_16h09.01.451,forced_choiceRT_color,2021.2.3,MacIntel,60.0024001,,,,,,,,3,Ontime,long,k,1,1.9132,2,0,8,3,1,,,,,
,0.22,,,,,,,,,f,blue,602451f15e338c12534710d0,2021-09-27_16h09.01.451,forced_choiceRT_color,2021.2.3,MacIntel,60.0024001,,,,,,,,3,Ontime,long,j,0,2.0108,2,1,9,1,1,,,,,
,1.32,,,,,,,,,d,orange,602451f15e338c12534710d0,2021-09-27_16h09.01.451,forced_choiceRT_color,2021.2.3,MacIntel,60.0024001,,,,,,,,3,Ontime,long,d,1,2.014,2,2,10,0,1,,,,,
,1.94,,,,,,,,,f,blue,602451f15e338c12534710d0,2021-09-27_16h09.01.451,forced_choiceRT_color,2021.2.3,MacIntel,60.0024001,,,,,,,,3,Slow,long,f,1,2.3803,2,3,11,1,1,,,,,
,1.01,,,,,,,,,d,orange,602451f15e338c12534710d0,2021-09-27_16h09.01.451,forced_choiceRT_color,2021.2.3,MacIntel,60.0024001,,,,,,,,3,Fast,long,d,1,1.5636,3,0,12,0,1,,,,,
,1.48,,,,,,,,,k,purple,602451f15e338c12534710d0,2021-09-27_16h09.01.451,forced_choiceRT_color,2021.2.3,MacIntel,60.0024001,,,,,,,,3,Ontime,long,k,1,2.0259,3,1,13,3,1,,,,,
,0.01,,,,,,,,,f,blue,602451f15e338c12534710d0,2021-09-27_16h09.01.451,forced_choiceRT_color,2021.2.3,MacIntel,60.0024001,,,,,,,,3,Fast,long,f,1,1.3429,3,2,14,1,1,,,,,
,0.78,,,,,,,,,f,blue,602451f15e338c12534710d0,2021-09-27_16h09.01.451,forced_choiceRT_color,2021.2.3,MacIntel,60.0024001,,,,,,,,3,Fast,long,j,0,1.8011,3,3,15,1,1,,,,,
,0.6,,,,,,,,,f,blue,602451f15e338c12534710d0,2021-09-27_16h09.01.451,forced_choiceRT_color,2021.2.3,MacIntel,60.0024001,,,,,,,,3,Slow,long,f,1,22.8639,4,0,16,1,1,,,,,
,0.68,,,,,,,,,k,purple,602451f15e338c12534710d0,2021-09-27_16h09.01.451,forced_choiceRT_color,2021.2.3,MacIntel,60.0024001,,,,,,,,3,Fast,long,j,0,0.0004,4,1,17,3,1,,,,,
,0.46,,,,,,,,,j,red,602451f15e338c12534710d0,2021-09-27_16h09.01.451,forced_choiceRT_color,2021.2.3,MacIntel,60.0024001,,,,,,,,3,Fast,long,f,0,1.853,4,2,18,2,1,,,,,
,1.12,,,,,,,,,d,orange,602451f15e338c12534710d0,2021-09-27_16h09.01.451,forced_choiceRT_color,2021.2.3,MacIntel,60.0024001,,,,,,,,3,Fast,long,d,1,1.8754,4,3,19,0,1,,,,,
,1.43,,,,,,,,,k,purple,602451f15e338c12534710d0,2021-09-27_16h09.01.451,forced_choiceRT_color,2021.2.3,MacIntel,60.0024001,,,,,,,,3,Ontime,long,k,1,2.0109,5,0,20,3,1,,,,,
,0.51,,,,,,,,,d,orange,602451f15e338c12534710d0,2021-09-27_16h09.01.451,forced_choiceRT_color,2021.2.3,MacIntel,60.0024001,,,,,,,,3,Ontime,long,d,1,2.0307,5,1,21,0,1,,,,,
,1.52,,,,,,,,,d,orange,602451f15e338c12534710d0,2021-09-27_16h09.01.451,forced_choiceRT_color,2021.2.3,MacIntel,60.0024001,,,,,,,,3,Ontime,long,d,1,1.9978,5,2,22,0,1,,,,,
,1.56,,,,,,,,,d,orange,602451f15e338c12534710d0,2021-09-27_16h09.01.451,forced_choiceRT_color,2021.2.3,MacIntel,60.0024001,,,,,,,,3,Ontime,long,d,1,1.9961,5,3,23,0,1,,,,,
,1.72,,,,,,,,,j,red,602451f15e338c12534710d0,2021-09-27_16h09.01.451,forced_choiceRT_color,2021.2.3,MacIntel,60.0024001,,,,,,,,3,Slow,long,j,1,2.2305,6,0,24,2,1,,,,,
,0.55,,,,,,,,,j,red,602451f15e338c12534710d0,2021-09-27_16h09.01.451,forced_choiceRT_color,2021.2.3,MacIntel,60.0024001,,,,,,,,3,Ontime,long,j,1,1.9729,6,1,25,2,1,,,,,
,0.4,,,,,,,,,j,red,602451f15e338c12534710d0,2021-09-27_16h09.01.451,forced_choiceRT_color,2021.2.3,MacIntel,60.0024001,,,,,,,,3,Fast,long,j,1,1.8945,6,2,26,2,1,,,,,
,1.84,,,,,,,,,k,purple,602451f15e338c12534710d0,2021-09-27_16h09.01.451,forced_choiceRT_color,2021.2.3,MacIntel,60.0024001,,,,,,,,3,Ontime,long,j,0,2.0792,6,3,27,3,1,,,,,
,0.89,,,,,,,,,f,blue,602451f15e338c12534710d0,2021-09-27_16h09.01.451,forced_choiceRT_color,2021.2.3,MacIntel,60.0024001,,,,,,,,3,Fast,long,f,1,1.8312,7,0,28,1,1,,,,,
,0.15,,,,,,,,,j,red,602451f15e338c12534710d0,2021-09-27_16h09.01.451,forced_choiceRT_color,2021.2.3,MacIntel,60.0024001,,,,,,,,3,Fast,long,j,1,1.5411,7,1,29,2,1,,,,,
,0.43,,,,,,,,,f,blue,602451f15e338c12534710d0,2021-09-27_16h09.01.451,forced_choiceRT_color,2021.2.3,MacIntel,60.0024001,,,,,,,,3,Ontime,long,j,0,1.9308,7,2,30,1,1,,,,,
,0.21,,,,,,,,,j,red,602451f15e338c12534710d0,2021-09-27_16h09.01.451,forced_choiceRT_color,2021.2.3,MacIntel,60.0024001,,,,,,,,3,Fast,long,f,0,1.7764,7,3,31,2,1,,,,,
,1.63,,,,,,,,,j,red,602451f15e338c12534710d0,2021-09-27_16h09.01.451,forced_choiceRT_color,2021.2.3,MacIntel,60.0024001,,,,,,,,3,Ontime,long,f,0,1.9775,8,0,32,2,1,,,,,
,1.55,,,,,,,,,k,purple,602451f15e338c12534710d0,2021-09-27_16h09.01.451,forced_choiceRT_color,2021.2.3,MacIntel,60.0024001,,,,,,,,3,Ontime,long,d,0,1.994,8,1,33,3,1,,,,,
,1.6,,,,,,,,,k,purple,602451f15e338c12534710d0,2021-09-27_16h09.01.451,forced_choiceRT_color,2021.2.3,MacIntel,60.0024001,,,,,,,,3,Ontime,long,k,1,2.03,8,2,34,3,1,,,,,
,1.49,,,,,,,,,k,purple,602451f15e338c12534710d0,2021-09-27_16h09.01.451,forced_choiceRT_color,2021.2.3,MacIntel,60.0024001,,,,,,,,3,Ontime,long,k,1,1.9585,8,3,35,3,1,,,,,
,1.09,,,,,,,,,f,blue,602451f15e338c12534710d0,2021-09-27_16h09.01.451,forced_choiceRT_color,2021.2.3,MacIntel,60.0024001,,,,,,,,3,Ontime,long,f,1,1.9452,9,0,36,1,1,,,,,
,1.86,,,,,,,,,f,blue,602451f15e338c12534710d0,2021-09-27_16h09.01.451,forced_choiceRT_color,2021.2.3,MacIntel,60.0024001,,,,,,,,3,Slow,long,f,1,2.1967,9,1,37,1,1,,,,,
,0.6,,,,,,,,,k,purple,602451f15e338c12534710d0,2021-09-27_16h09.01.451,forced_choiceRT_color,2021.2.3,MacIntel,60.0024001,,,,,,,,3,Fast,long,k,1,1.597,9,2,38,3,1,,,,,
,0.71,,,,,,,,,d,orange,602451f15e338c12534710d0,2021-09-27_16h09.01.451,forced_choiceRT_color,2021.2.3,MacIntel,60.0024001,,,,,,,,3,Fast,long,d,1,1.827,9,3,39,0,1,,,,,
,,,,,,,,,,,,602451f15e338c12534710d0,2021-09-27_16h09.01.451,forced_choiceRT_color,2021.2.3,MacIntel,60.0024001,,,,,,,,,,,,,,,,,,,2,0,2,0,1
,1.67,,,,,,,,,d,orange,602451f15e338c12534710d0,2021-09-27_16h09.01.451,forced_choiceRT_color,2021.2.3,MacIntel,60.0024001,,,,,,,,4,Ontime,long,j,0,2.0545,0,0,0,0,1,,,,,
,1.13,,,,,,,,,k,purple,602451f15e338c12534710d0,2021-09-27_16h09.01.451,forced_choiceRT_color,2021.2.3,MacIntel,60.0024001,,,,,,,,4,Ontime,long,k,1,2.0131,0,1,1,3,1,,,,,
,0.44,,,,,,,,,k,purple,602451f15e338c12534710d0,2021-09-27_16h09.01.451,forced_choiceRT_color,2021.2.3,MacIntel,60.0024001,,,,,,,,4,Ontime,long,k,1,1.9112,0,2,2,3,1,,,,,
,0.75,,,,,,,,,d,orange,602451f15e338c12534710d0,2021-09-27_16h09.01.451,forced_choiceRT_color,2021.2.3,MacIntel,60.0024001,,,,,,,,4,Fast,long,d,1,1.7761,0,3,3,0,1,,,,,
,1.16,,,,,,,,,k,purple,602451f15e338c12534710d0,2021-09-27_16h09.01.451,forced_choiceRT_color,2021.2.3,MacIntel,60.0024001,,,,,,,,4,Ontime,long,k,1,1.9478,1,0,4,3,1,,,,,
,1.61,,,,,,,,,k,purple,602451f15e338c12534710d0,2021-09-27_16h09.01.451,forced_choiceRT_color,2021.2.3,MacIntel,60.0024001,,,,,,,,4,Ontime,long,k,1,2.0798,1,1,5,3,1,,,,,
,0.36,,,,,,,,,j,red,602451f15e338c12534710d0,2021-09-27_16h09.01.451,forced_choiceRT_color,2021.2.3,MacIntel,60.0024001,,,,,,,,4,Fast,long,f,0,1.6264,1,2,6,2,1,,,,,
,0.35,,,,,,,,,d,orange,602451f15e338c12534710d0,2021-09-27_16h09.01.451,forced_choiceRT_color,2021.2.3,MacIntel,60.0024001,,,,,,,,4,Ontime,long,d,1,1.9619,1,3,7,0,1,,,,,
,0.08,,,,,,,,,f,blue,602451f15e338c12534710d0,2021-09-27_16h09.01.451,forced_choiceRT_color,2021.2.3,MacIntel,60.0024001,,,,,,,,4,Ontime,long,j,0,2.0466,2,0,8,1,1,,,,,
,1.13,,,,,,,,,j,red,602451f15e338c12534710d0,2021-09-27_16h09.01.451,forced_choiceRT_color,2021.2.3,MacIntel,60.0024001,,,,,,,,4,Ontime,long,f,0,1.9638,2,1,9,2,1,,,,,
,0.57,,,,,,,,,f,blue,602451f15e338c12534710d0,2021-09-27_16h09.01.451,forced_choiceRT_color,2021.2.3,MacIntel,60.0024001,,,,,,,,4,Fast,long,j,0,1.7313,2,2,10,1,1,,,,,
,1.03,,,,,,,,,f,blue,602451f15e338c12534710d0,2021-09-27_16h09.01.451,forced_choiceRT_color,2021.2.3,MacIntel,60.0024001,,,,,,,,4,Slow,long,j,0,2.1756,2,3,11,1,1,,,,,
,0.65,,,,,,,,,j,red,602451f15e338c12534710d0,2021-09-27_16h09.01.451,forced_choiceRT_color,2021.2.3,MacIntel,60.0024001,,,,,,,,4,Fast,long,f,0,1.7959,3,0,12,2,1,,,,,
,0.74,,,,,,,,,k,purple,602451f15e338c12534710d0,2021-09-27_16h09.01.451,forced_choiceRT_color,2021.2.3,MacIntel,60.0024001,,,,,,,,4,Fast,long,k,1,1.7137,3,1,13,3,1,,,,,
,1.96,,,,,,,,,d,orange,602451f15e338c12534710d0,2021-09-27_16h09.01.451,forced_choiceRT_color,2021.2.3,MacIntel,60.0024001,,,,,,,,4,Slow,long,f,0,2.2632,3,2,14,0,1,,,,,
,0.7,,,,,,,,,f,blue,602451f15e338c12534710d0,2021-09-27_16h09.01.451,forced_choiceRT_color,2021.2.3,MacIntel,60.0024001,,,,,,,,4,Fast,long,j,0,1.7825,3,3,15,1,1,,,,,
,0.34,,,,,,,,,d,orange,602451f15e338c12534710d0,2021-09-27_16h09.01.451,forced_choiceRT_color,2021.2.3,MacIntel,60.0024001,,,,,,,,4,Ontime,long,d,1,1.9923,4,0,16,0,1,,,,,
,1.93,,,,,,,,,f,blue,602451f15e338c12534710d0,2021-09-27_16h09.01.451,forced_choiceRT_color,2021.2.3,MacIntel,60.0024001,,,,,,,,4,Slow,long,f,1,2.2497,4,1,17,1,1,,,,,
,1.88,,,,,,,,,d,orange,602451f15e338c12534710d0,2021-09-27_16h09.01.451,forced_choiceRT_color,2021.2.3,MacIntel,60.0024001,,,,,,,,4,Ontime,long,j,0,2.0582,4,2,18,0,1,,,,,
,0.72,,,,,,,,,j,red,602451f15e338c12534710d0,2021-09-27_16h09.01.451,forced_choiceRT_color,2021.2.3,MacIntel,60.0024001,,,,,,,,4,Fast,long,j,1,1.734,4,3,19,2,1,,,,,
,0.83,,,,,,,,,k,purple,602451f15e338c12534710d0,2021-09-27_16h09.01.451,forced_choiceRT_color,2021.2.3,MacIntel,60.0024001,,,,,,,,4,Ontime,long,k,1,1.9808,5,0,20,3,1,,,,,
,0.01,,,,,,,,,j,red,602451f15e338c12534710d0,2021-09-27_16h09.01.451,forced_choiceRT_color,2021.2.3,MacIntel,60.0024001,,,,,,,,4,Ontime,long,f,0,1.997,5,1,21,2,1,,,,,
,1.34,,,,,,,,,d,orange,602451f15e338c12534710d0,2021-09-27_16h09.01.451,forced_choiceRT_color,2021.2.3,MacIntel,60.0024001,,,,,,,,4,Ontime,long,d,1,1.996,5,2,22,0,1,,,,,
,0.52,,,,,,,,,k,purple,602451f15e338c12534710d0,2021-09-27_16h09.01.451,forced_choiceRT_color,2021.2.3,MacIntel,60.0024001,,,,,,,,4,Ontime,long,k,1,1.9157,5,3,23,3,1,,,,,
,1.89,,,,,,,,,j,red,602451f15e338c12534710d0,2021-09-27_16h09.01.451,forced_choiceRT_color,2021.2.3,MacIntel,60.0024001,,,,,,,,4,Slow,long,f,0,2.1467,6,0,24,2,1,,,,,
,0.31,,,,,,,,,f,blue,602451f15e338c12534710d0,2021-09-27_16h09.01.451,forced_choiceRT_color,2021.2.3,MacIntel,60.0024001,,,,,,,,4,Ontime,long,j,0,1.9612,6,1,25,1,1,,,,,
,1.86,,,,,,,,,d,orange,602451f15e338c12534710d0,2021-09-27_16h09.01.451,forced_choiceRT_color,2021.2.3,MacIntel,60.0024001,,,,,,,,4,Slow,long,j,0,2.2093,6,2,26,0,1,,,,,
,0.55,,,,,,,,,d,orange,602451f15e338c12534710d0,2021-09-27_16h09.01.451,forced_choiceRT_color,2021.2.3,MacIntel,60.0024001,,,,,,,,4,Ontime,long,f,0,2.0804,6,3,27,0,1,,,,,
,1.69,,,,,,,,,f,blue,602451f15e338c12534710d0,2021-09-27_16h09.01.451,forced_choiceRT_color,2021.2.3,MacIntel,60.0024001,,,,,,,,4,Ontime,long,f,1,2.0306,7,0,28,1,1,,,,,
,0.69,,,,,,,,,k,purple,602451f15e338c12534710d0,2021-09-27_16h09.01.451,forced_choiceRT_color,2021.2.3,MacIntel,60.0024001,,,,,,,,4,Ontime,long,k,1,1.9432,7,1,29,3,1,,,,,
,0.72,,,,,,,,,j,red,602451f15e338c12534710d0,2021-09-27_16h09.01.451,forced_choiceRT_color,2021.2.3,MacIntel,60.0024001,,,,,,,,4,Ontime,long,f,0,1.9131,7,2,30,2,1,,,,,
,1.82,,,,,,,,,k,purple,602451f15e338c12534710d0,2021-09-27_16h09.01.451,forced_choiceRT_color,2021.2.3,MacIntel,60.0024001,,,,,,,,4,Slow,long,f,0,2.1089,7,3,31,3,1,,,,,
,1.87,,,,,,,,,j,red,602451f15e338c12534710d0,2021-09-27_16h09.01.451,forced_choiceRT_color,2021.2.3,MacIntel,60.0024001,,,,,,,,4,Ontime,long,d,0,2.0454,8,0,32,2,1,,,,,
,1.08,,,,,,,,,k,purple,602451f15e338c12534710d0,2021-09-27_16h09.01.451,forced_choiceRT_color,2021.2.3,MacIntel,60.0024001,,,,,,,,4,Ontime,long,k,1,1.9291,8,1,33,3,1,,,,,
,1.55,,,,,,,,,f,blue,602451f15e338c12534710d0,2021-09-27_16h09.01.451,forced_choiceRT_color,2021.2.3,MacIntel,60.0024001,,,,,,,,4,Ontime,long,j,0,2.0609,8,2,34,1,1,,,,,
,1.87,,,,,,,,,f,blue,602451f15e338c12534710d0,2021-09-27_16h09.01.451,forced_choiceRT_color,2021.2.3,MacIntel,60.0024001,,,,,,,,4,Ontime,long,j,0,2.0762,8,3,35,1,1,,,,,
,1.56,,,,,,,,,f,blue,602451f15e338c12534710d0,2021-09-27_16h09.01.451,forced_choiceRT_color,2021.2.3,MacIntel,60.0024001,,,,,,,,4,Slow,long,j,0,2.4407,9,0,36,1,1,,,,,
,1.38,,,,,,,,,j,red,602451f15e338c12534710d0,2021-09-27_16h09.01.451,forced_choiceRT_color,2021.2.3,MacIntel,60.0024001,,,,,,,,4,Ontime,long,k,0,1.9311,9,1,37,2,1,,,,,
,0.61,,,,,,,,,j,red,602451f15e338c12534710d0,2021-09-27_16h09.01.451,forced_choiceRT_color,2021.2.3,MacIntel,60.0024001,,,,,,,,4,Fast,long,f,0,1.832,9,2,38,2,1,,,,,
,0.04,,,,,,,,,d,orange,602451f15e338c12534710d0,2021-09-27_16h09.01.451,forced_choiceRT_color,2021.2.3,MacIntel,60.0024001,,,,,,,,4,Fast,long,d,1,1.7766,9,3,39,0,1,,,,,
,,,,,,,,,,,,602451f15e338c12534710d0,2021-09-27_16h09.01.451,forced_choiceRT_color,2021.2.3,MacIntel,60.0024001,,,,,,,,,,,,,,,,,,,3,0,3,0,1
,1.98,,,,,,,,,f,blue,602451f15e338c12534710d0,2021-09-27_16h09.01.451,forced_choiceRT_color,2021.2.3,MacIntel,60.0024001,,,,,,,,5,Slow,long,j,0,2.1844,0,0,0,1,1,,,,,
,1.51,,,,,,,,,j,red,602451f15e338c12534710d0,2021-09-27_16h09.01.451,forced_choiceRT_color,2021.2.3,MacIntel,60.0024001,,,,,,,,5,Ontime,long,j,1,1.9327,0,1,1,2,1,,,,,
,0.09,,,,,,,,,j,red,602451f15e338c12534710d0,2021-09-27_16h09.01.451,forced_choiceRT_color,2021.2.3,MacIntel,60.0024001,,,,,,,,5,Ontime,long,j,1,1.9268,0,2,2,2,1,,,,,
,0.66,,,,,,,,,k,purple,602451f15e338c12534710d0,2021-09-27_16h09.01.451,forced_choiceRT_color,2021.2.3,MacIntel,60.0024001,,,,,,,,5,Fast,long,k,1,1.8797,0,3,3,3,1,,,,,
,1.16,,,,,,,,,d,orange,602451f15e338c12534710d0,2021-09-27_16h09.01.451,forced_choiceRT_color,2021.2.3,MacIntel,60.0024001,,,,,,,,5,Fast,long,d,1,1.6615,1,0,4,0,1,,,,,
,1.61,,,,,,,,,f,blue,602451f15e338c12534710d0,2021-09-27_16h09.01.451,forced_choiceRT_color,2021.2.3,MacIntel,60.0024001,,,,,,,,5,Ontime,long,j,0,2.0594,1,1,5,1,1,,,,,
,1.12,,,,,,,,,k,purple,602451f15e338c12534710d0,2021-09-27_16h09.01.451,forced_choiceRT_color,2021.2.3,MacIntel,60.0024001,,,,,,,,5,Ontime,long,k,1,2.076,1,2,6,3,1,,,,,
,0.69,,,,,,,,,j,red,602451f15e338c12534710d0,2021-09-27_16h09.01.451,forced_choiceRT_color,2021.2.3,MacIntel,60.0024001,,,,,,,,5,Ontime,long,j,1,1.9284,1,3,7,2,1,,,,,
,0.58,,,,,,,,,f,blue,602451f15e338c12534710d0,2021-09-27_16h09.01.451,forced_choiceRT_color,2021.2.3,MacIntel,60.0024001,,,,,,,,5,Ontime,long,f,1,1.9657,2,0,8,1,1,,,,,
,1.15,,,,,,,,,f,blue,602451f15e338c12534710d0,2021-09-27_16h09.01.451,forced_choiceRT_color,2021.2.3,MacIntel,60.0024001,,,,,,,,5,Fast,long,f,1,1.6006,2,1,9,1,1,,,,,
,1.9,,,,,,,,,j,red,602451f15e338c12534710d0,2021-09-27_16h09.01.451,forced_choiceRT_color,2021.2.3,MacIntel,60.0024001,,,,,,,,5,Ontime,long,j,1,1.9965,2,2,10,2,1,,,,,
,0.41,,,,,,,,,j,red,602451f15e338c12534710d0,2021-09-27_16h09.01.451,forced_choiceRT_color,2021.2.3,MacIntel,60.0024001,,,,,,,,5,Ontime,long,j,1,1.9131,2,3,11,2,1,,,,,
,1.19,,,,,,,,,k,purple,602451f15e338c12534710d0,2021-09-27_16h09.01.451,forced_choiceRT_color,2021.2.3,MacIntel,60.0024001,,,,,,,,5,Fast,long,k,1,1.6268,3,0,12,3,1,,,,,
,0.93,,,,,,,,,k,purple,602451f15e338c12534710d0,2021-09-27_16h09.01.451,forced_choiceRT_color,2021.2.3,MacIntel,60.0024001,,,,,,,,5,Ontime,long,k,1,1.9459,3,1,13,3,1,,,,,
,1.75,,,,,,,,,f,blue,602451f15e338c12534710d0,2021-09-27_16h09.01.451,forced_choiceRT_color,2021.2.3,MacIntel,60.0024001,,,,,,,,5,Ontime,long,j,0,1.9794,3,2,14,1,1,,,,,
,0.82,,,,,,,,,f,blue,602451f15e338c12534710d0,2021-09-27_16h09.01.451,forced_choiceRT_color,2021.2.3,MacIntel,60.0024001,,,,,,,,5,Ontime,long,f,1,1.9176,3,3,15,1,1,,,,,
,0.07,,,,,,,,,j,red,602451f15e338c12534710d0,2021-09-27_16h09.01.451,forced_choiceRT_color,2021.2.3,MacIntel,60.0024001,,,,,,,,5,Ontime,long,j,1,1.9099,4,0,16,2,1,,,,,
,1.32,,,,,,,,,j,red,602451f15e338c12534710d0,2021-09-27_16h09.01.451,forced_choiceRT_color,2021.2.3,MacIntel,60.0024001,,,,,,,,5,Ontime,long,j,1,1.9258,4,1,17,2,1,,,,,
,0.18,,,,,,,,,k,purple,602451f15e338c12534710d0,2021-09-27_16h09.01.451,forced_choiceRT_color,2021.2.3,MacIntel,60.0024001,,,,,,,,5,Ontime,long,k,1,1.9146,4,2,18,3,1,,,,,
,1.53,,,,,,,,,d,orange,602451f15e338c12534710d0,2021-09-27_16h09.01.451,forced_choiceRT_color,2021.2.3,MacIntel,60.0024001,,,,,,,,5,Ontime,long,f,0,1.946,4,3,19,0,1,,,,,
,1.54,,,,,,,,,f,blue,602451f15e338c12534710d0,2021-09-27_16h09.01.451,forced_choiceRT_color,2021.2.3,MacIntel,60.0024001,,,,,,,,5,Ontime,long,j,0,2.0314,5,0,20,1,1,,,,,
,0.13,,,,,,,,,k,purple,602451f15e338c12534710d0,2021-09-27_16h09.01.451,forced_choiceRT_color,2021.2.3,MacIntel,60.0024001,,,,,,,,5,Fast,long,k,1,1.8967,5,1,21,3,1,,,,,
,1.71,,,,,,,,,k,purple,602451f15e338c12534710d0,2021-09-27_16h09.01.451,forced_choiceRT_color,2021.2.3,MacIntel,60.0024001,,,,,,,,5,Ontime,long,f,0,1.981,5,2,22,3,1,,,,,
,0.35,,,,,,,,,f,blue,602451f15e338c12534710d0,2021-09-27_16h09.01.451,forced_choiceRT_color,2021.2.3,MacIntel,60.0024001,,,,,,,,5,Ontime,long,j,0,1.9285,5,3,23,1,1,,,,,
,1.71,,,,,,,,,d,orange,602451f15e338c12534710d0,2021-09-27_16h09.01.451,forced_choiceRT_color,2021.2.3,MacIntel,60.0024001,,,,,,,,5,Ontime,long,f,0,1.9101,6,0,24,0,1,,,,,
,0.97,,,,,,,,,j,red,602451f15e338c12534710d0,2021-09-27_16h09.01.451,forced_choiceRT_color,2021.2.3,MacIntel,60.0024001,,,,,,,,5,Fast,long,f,0,1.873,6,1,25,2,1,,,,,
,0.32,,,,,,,,,d,orange,602451f15e338c12534710d0,2021-09-27_16h09.01.451,forced_choiceRT_color,2021.2.3,MacIntel,60.0024001,,,,,,,,5,Ontime,long,d,1,1.96,6,2,26,0,1,,,,,
,1.65,,,,,,,,,d,orange,602451f15e338c12534710d0,2021-09-27_16h09.01.451,forced_choiceRT_color,2021.2.3,MacIntel,60.0024001,,,,,,,,5,Ontime,long,d,1,2.0132,6,3,27,0,1,,,,,
,0.72,,,,,,,,,j,red,602451f15e338c12534710d0,2021-09-27_16h09.01.451,forced_choiceRT_color,2021.2.3,MacIntel,60.0024001,,,,,,,,5,Fast,long,j,1,1.8828,7,0,28,2,1,,,,,
,1.73,,,,,,,,,f,blue,602451f15e338c12534710d0,2021-09-27_16h09.01.451,forced_choiceRT_color,2021.2.3,MacIntel,60.0024001,,,,,,,,5,Slow,long,f,1,2.1758,7,1,29,1,1,,,,,
,1.02,,,,,,,,,j,red,602451f15e338c12534710d0,2021-09-27_16h09.01.451,forced_choiceRT_color,2021.2.3,MacIntel,60.0024001,,,,,,,,5,Fast,long,f,0,1.7999,7,2,30,2,1,,,,,
,1.69,,,,,,,,,f,blue,602451f15e338c12534710d0,2021-09-27_16h09.01.451,forced_choiceRT_color,2021.2.3,MacIntel,60.0024001,,,,,,,,5,Ontime,long,j,0,1.9789,7,3,31,1,1,,,,,
,1.93,,,,,,,,,d,orange,602451f15e338c12534710d0,2021-09-27_16h09.01.451,forced_choiceRT_color,2021.2.3,MacIntel,60.0024001,,,,,,,,5,Slow,long,f,0,2.1598,8,0,32,0,1,,,,,
,0.85,,,,,,,,,d,orange,602451f15e338c12534710d0,2021-09-27_16h09.01.451,forced_choiceRT_color,2021.2.3,MacIntel,60.0024001,,,,,,,,5,Fast,long,d,1,1.8136,8,1,33,0,1,,,,,
,0.3,,,,,,,,,k,purple,602451f15e338c12534710d0,2021-09-27_16h09.01.451,forced_choiceRT_color,2021.2.3,MacIntel,60.0024001,,,,,,,,5,Ontime,long,k,1,1.9338,8,2,34,3,1,,,,,
,0.82,,,,,,,,,d,orange,602451f15e338c12534710d0,2021-09-27_16h09.01.451,forced_choiceRT_color,2021.2.3,MacIntel,60.0024001,,,,,,,,5,Ontime,long,d,1,2.0283,8,3,35,0,1,,,,,
,1.38,,,,,,,,,k,purple,602451f15e338c12534710d0,2021-09-27_16h09.01.451,forced_choiceRT_color,2021.2.3,MacIntel,60.0024001,,,,,,,,5,Fast,long,j,0,1.812,9,0,36,3,1,,,,,
,1.14,,,,,,,,,d,orange,602451f15e338c12534710d0,2021-09-27_16h09.01.451,forced_choiceRT_color,2021.2.3,MacIntel,60.0024001,,,,,,,,5,Fast,long,d,1,1.6095,9,1,37,0,1,,,,,
,0.51,,,,,,,,,k,purple,602451f15e338c12534710d0,2021-09-27_16h09.01.451,forced_choiceRT_color,2021.2.3,MacIntel,60.0024001,,,,,,,,5,Ontime,long,k,1,1.9635,9,2,38,3,1,,,,,
,0.88,,,,,,,,,d,orange,602451f15e338c12534710d0,2021-09-27_16h09.01.451,forced_choiceRT_color,2021.2.3,MacIntel,60.0024001,,,,,,,,5,Ontime,long,d,1,2.0137,9,3,39,0,1,,,,,
,,,,,,,,,,,,602451f15e338c12534710d0,2021-09-27_16h09.01.451,forced_choiceRT_color,2021.2.3,MacIntel,60.0024001,,,,,,,,,,,,,,,,,,,4,0,4,0,1
,1.03,,,,,,,,,j,red,602451f15e338c12534710d0,2021-09-27_16h09.01.451,forced_choiceRT_color,2021.2.3,MacIntel,60.0024001,,,,,,,,6,Ontime,long,j,1,1.9559,0,0,0,2,1,,,,,
,1.62,,,,,,,,,j,red,602451f15e338c12534710d0,2021-09-27_16h09.01.451,forced_choiceRT_color,2021.2.3,MacIntel,60.0024001,,,,,,,,6,Ontime,long,j,1,1.9271,0,1,1,2,1,,,,,
,0.97,,,,,,,,,f,blue,602451f15e338c12534710d0,2021-09-27_16h09.01.451,forced_choiceRT_color,2021.2.3,MacIntel,60.0024001,,,,,,,,6,Fast,long,f,1,1.7463,0,2,2,1,1,,,,,
,0.9,,,,,,,,,d,orange,602451f15e338c12534710d0,2021-09-27_16h09.01.451,forced_choiceRT_color,2021.2.3,MacIntel,60.0024001,,,,,,,,6,Ontime,long,d,1,1.913,0,3,3,0,1,,,,,
,1.64,,,,,,,,,k,purple,602451f15e338c12534710d0,2021-09-27_16h09.01.451,forced_choiceRT_color,2021.2.3,MacIntel,60.0024001,,,,,,,,6,Ontime,long,d,0,2.06,1,0,4,3,1,,,,,
,1.66,,,,,,,,,j,red,602451f15e338c12534710d0,2021-09-27_16h09.01.451,forced_choiceRT_color,2021.2.3,MacIntel,60.0024001,,,,,,,,6,Ontime,long,k,0,1.9754,1,1,5,2,1,,,,,
,1.01,,,,,,,,,j,red,602451f15e338c12534710d0,2021-09-27_16h09.01.451,forced_choiceRT_color,2021.2.3,MacIntel,60.0024001,,,,,,,,6,Ontime,long,j,1,2.026,1,2,6,2,1,,,,,
,0.36,,,,,,,,,d,orange,602451f15e338c12534710d0,2021-09-27_16h09.01.451,forced_choiceRT_color,2021.2.3,MacIntel,60.0024001,,,,,,,,6,Fast,long,d,1,1.8954,1,3,7,0,1,,,,,
,1.43,,,,,,,,,k,purple,602451f15e338c12534710d0,2021-09-27_16h09.01.451,forced_choiceRT_color,2021.2.3,MacIntel,60.0024001,,,,,,,,6,Ontime,long,j,0,1.9818,2,0,8,3,1,,,,,
,1.45,,,,,,,,,j,red,602451f15e338c12534710d0,2021-09-27_16h09.01.451,forced_choiceRT_color,2021.2.3,MacIntel,60.0024001,,,,,,,,6,Ontime,long,j,1,1.9936,2,1,9,2,1,,,,,
,0.74,,,,,,,,,d,orange,602451f15e338c12534710d0,2021-09-27_16h09.01.451,forced_choiceRT_color,2021.2.3,MacIntel,60.0024001,,,,,,,,6,Ontime,long,d,1,2.0279,2,2,10,0,1,,,,,
,0.11,,,,,,,,,d,orange,602451f15e338c12534710d0,2021-09-27_16h09.01.451,forced_choiceRT_color,2021.2.3,MacIntel,60.0024001,,,,,,,,6,Ontime,long,d,1,1.925,2,3,11,0,1,,,,,
,0.63,,,,,,,,,f,blue,602451f15e338c12534710d0,2021-09-27_16h09.01.451,forced_choiceRT_color,2021.2.3,MacIntel,60.0024001,,,,,,,,6,Ontime,long,j,0,1.9476,3,0,12,1,1,,,,,
,1.81,,,,,,,,,f,blue,602451f15e338c12534710d0,2021-09-27_16h09.01.451,forced_choiceRT_color,2021.2.3,MacIntel,60.0024001,,,,,,,,6,Ontime,long,j,0,2.0146,3,1,13,1,1,,,,,
,1.42,,,,,,,,,f,blue,602451f15e338c12534710d0,2021-09-27_16h09.01.451,forced_choiceRT_color,2021.2.3,MacIntel,60.0024001,,,,,,,,6,Fast,long,f,1,1.8154,3,2,14,1,1,,,,,
,0.8,,,,,,,,,k,purple,602451f15e338c12534710d0,2021-09-27_16h09.01.451,forced_choiceRT_color,2021.2.3,MacIntel,60.0024001,,,,,,,,6,Fast,long,k,1,1.8982,3,3,15,3,1,,,,,
,0.26,,,,,,,,,d,orange,602451f15e338c12534710d0,2021-09-27_16h09.01.451,forced_choiceRT_color,2021.2.3,MacIntel,60.0024001,,,,,,,,6,Ontime,long,d,1,1.9133,4,0,16,0,1,,,,,
,0.07,,,,,,,,,k,purple,602451f15e338c12534710d0,2021-09-27_16h09.01.451,forced_choiceRT_color,2021.2.3,MacIntel,60.0024001,,,,,,,,6,Ontime,long,k,1,1.9135,4,1,17,3,1,,,,,
,1.1,,,,,,,,,j,red,602451f15e338c12534710d0,2021-09-27_16h09.01.451,forced_choiceRT_color,2021.2.3,MacIntel,60.0024001,,,,,,,,6,Ontime,long,j,1,1.9583,4,2,18,2,1,,,,,
,0.9,,,,,,,,,k,purple,602451f15e338c12534710d0,2021-09-27_16h09.01.451,forced_choiceRT_color,2021.2.3,MacIntel,60.0024001,,,,,,,,6,Ontime,long,k,1,1.9085,4,3,19,3,1,,,,,
,1.46,,,,,,,,,j,red,602451f15e338c12534710d0,2021-09-27_16h09.01.451,forced_choiceRT_color,2021.2.3,MacIntel,60.0024001,,,,,,,,6,Ontime,long,j,1,2.0619,5,0,20,2,1,,,,,
,0.05,,,,,,,,,f,blue,602451f15e338c12534710d0,2021-09-27_16h09.01.451,forced_choiceRT_color,2021.2.3,MacIntel,60.0024001,,,,,,,,6,Ontime,long,f,1,1.9635,5,1,21,1,1,,,,,
,0.23,,,,,,,,,k,purple,602451f15e338c12534710d0,2021-09-27_16h09.01.451,forced_choiceRT_color,2021.2.3,MacIntel,60.0024001,,,,,,,,6,Ontime,long,k,1,1.9139,5,2,22,3,1,,,,,
,1.37,,,,,,,,,d,orange,602451f15e338c12534710d0,2021-09-27_16h09.01.451,forced_choiceRT_color,2021.2.3,MacIntel,60.0024001,,,,,,,,6,Slow,long,d,1,2.1284,5,3,23,0,1,,,,,
,1.21,,,,,,,,,d,orange,602451f15e338c12534710d0,2021-09-27_16h09.01.451,forced_choiceRT_color,2021.2.3,MacIntel,60.0024001,,,,,,,,6,Fast,long,d,1,1.8992,6,0,24,0,1,,,,,
,0.39,,,,,,,,,j,red,602451f15e338c12534710d0,2021-09-27_16h09.01.451,forced_choiceRT_color,2021.2.3,MacIntel,60.0024001,,,,,,,,6,Fast,long,j,1,1.761,6,1,25,2,1,,,,,
,1.89,,,,,,,,,j,red,602451f15e338c12534710d0,2021-09-27_16h09.01.451,forced_choiceRT_color,2021.2.3,MacIntel,60.0024001,,,,,,,,6,Ontime,long,j,1,1.9505,6,2,26,2,1,,,,,
,1.21,,,,,,,,,j,red,602451f15e338c12534710d0,2021-09-27_16h09.01.451,forced_choiceRT_color,2021.2.3,MacIntel,60.0024001,,,,,,,,6,Ontime,long,j,1,1.9518,6,3,27,2,1,,,,,
,1.92,,,,,,,,,f,blue,602451f15e338c12534710d0,2021-09-27_16h09.01.451,forced_choiceRT_color,2021.2.3,MacIntel,60.0024001,,,,,,,,6,Ontime,long,k,0,2.0311,7,0,28,1,1,,,,,
,1.84,,,,,,,,,f,blue,602451f15e338c12534710d0,2021-09-27_16h09.01.451,forced_choiceRT_color,2021.2.3,MacIntel,60.0024001,,,,,,,,6,Ontime,long,f,1,1.995,7,1,29,1,1,,,,,
,1.9,,,,,,,,,d,orange,602451f15e338c12534710d0,2021-09-27_16h09.01.451,forced_choiceRT_color,2021.2.3,MacIntel,60.0024001,,,,,,,,6,Ontime,long,f,0,2.0269,7,2,30,0,1,,,,,
,0.06,,,,,,,,,f,blue,602451f15e338c12534710d0,2021-09-27_16h09.01.451,forced_choiceRT_color,2021.2.3,MacIntel,60.0024001,,,,,,,,6,Ontime,long,f,1,1.9431,7,3,31,1,1,,,,,
,0.62,,,,,,,,,k,purple,602451f15e338c12534710d0,2021-09-27_16h09.01.451,forced_choiceRT_color,2021.2.3,MacIntel,60.0024001,,,,,,,,6,Ontime,long,k,1,1.9441,8,0,32,3,1,,,,,
,0.48,,,,,,,,,f,blue,602451f15e338c12534710d0,2021-09-27_16h09.01.451,forced_choiceRT_color,2021.2.3,MacIntel,60.0024001,,,,,,,,6,Ontime,long,f,1,1.9631,8,1,33,1,1,,,,,
,0.86,,,,,,,,,k,purple,602451f15e338c12534710d0,2021-09-27_16h09.01.451,forced_choiceRT_color,2021.2.3,MacIntel,60.0024001,,,,,,,,6,Fast,long,k,1,1.8966,8,2,34,3,1,,,,,
,0.17,,,,,,,,,f,blue,602451f15e338c12534710d0,2021-09-27_16h09.01.451,forced_choiceRT_color,2021.2.3,MacIntel,60.0024001,,,,,,,,6,Ontime,long,f,1,1.9597,8,3,35,1,1,,,,,
,0.51,,,,,,,,,d,orange,602451f15e338c12534710d0,2021-09-27_16h09.01.451,forced_choiceRT_color,2021.2.3,MacIntel,60.0024001,,,,,,,,6,Ontime,long,d,1,1.9007,9,0,36,0,1,,,,,
,0.45,,,,,,,,,d,orange,602451f15e338c12534710d0,2021-09-27_16h09.01.451,forced_choiceRT_color,2021.2.3,MacIntel,60.0024001,,,,,,,,6,Ontime,long,d,1,1.9089,9,1,37,0,1,,,,,
,0.52,,,,,,,,,k,purple,602451f15e338c12534710d0,2021-09-27_16h09.01.451,forced_choiceRT_color,2021.2.3,MacIntel,60.0024001,,,,,,,,6,Ontime,long,k,1,1.9288,9,2,38,3,1,,,,,
,0.95,,,,,,,,,k,purple,602451f15e338c12534710d0,2021-09-27_16h09.01.451,forced_choiceRT_color,2021.2.3,MacIntel,60.0024001,,,,,,,,6,Ontime,long,k,1,1.9923,9,3,39,3,1,,,,,
,,,,,,,,,,,,602451f15e338c12534710d0,2021-09-27_16h09.01.451,forced_choiceRT_color,2021.2.3,MacIntel,60.0024001,,,,,,,,,,,,,,,,,,,5,0,5,0,1
,0.38,,,,,,,,,k,purple,602451f15e338c12534710d0,2021-09-27_16h09.01.451,forced_choiceRT_color,2021.2.3,MacIntel,60.0024001,,,,,,,,7,Fast,long,k,1,1.854,0,0,0,3,1,,,,,
,1.49,,,,,,,,,k,purple,602451f15e338c12534710d0,2021-09-27_16h09.01.451,forced_choiceRT_color,2021.2.3,MacIntel,60.0024001,,,,,,,,7,Fast,long,k,1,1.8465,0,1,1,3,1,,,,,
,0.15,,,,,,,,,d,orange,602451f15e338c12534710d0,2021-09-27_16h09.01.451,forced_choiceRT_color,2021.2.3,MacIntel,60.0024001,,,,,,,,7,Ontime,long,d,1,1.9599,0,2,2,0,1,,,,,
,1.18,,,,,,,,,j,red,602451f15e338c12534710d0,2021-09-27_16h09.01.451,forced_choiceRT_color,2021.2.3,MacIntel,60.0024001,,,,,,,,7,Ontime,long,j,1,1.9638,0,3,3,2,1,,,,,
,0.95,,,,,,,,,j,red,602451f15e338c12534710d0,2021-09-27_16h09.01.451,forced_choiceRT_color,2021.2.3,MacIntel,60.0024001,,,,,,,,7,Ontime,long,j,1,1.9302,1,0,4,2,1,,,,,
,1.1,,,,,,,,,f,blue,602451f15e338c12534710d0,2021-09-27_16h09.01.451,forced_choiceRT_color,2021.2.3,MacIntel,60.0024001,,,,,,,,7,Ontime,long,f,1,1.9924,1,1,5,1,1,,,,,
,1.8,,,,,,,,,k,purple,602451f15e338c12534710d0,2021-09-27_16h09.01.451,forced_choiceRT_color,2021.2.3,MacIntel,60.0024001,,,,,,,,7,Slow,long,j,0,2.3499,1,2,6,3,1,,,,,
,0.67,,,,,,,,,f,blue,602451f15e338c12534710d0,2021-09-27_16h09.01.451,forced_choiceRT_color,2021.2.3,MacIntel,60.0024001,,,,,,,,7,Fast,long,f,1,1.8623,1,3,7,1,1,,,,,
,1.2,,,,,,,,,d,orange,602451f15e338c12534710d0,2021-09-27_16h09.01.451,forced_choiceRT_color,2021.2.3,MacIntel,60.0024001,,,,,,,,7,Fast,long,k,0,1.66,2,0,8,0,1,,,,,
,0.68,,,,,,,,,j,red,602451f15e338c12534710d0,2021-09-27_16h09.01.451,forced_choiceRT_color,2021.2.3,MacIntel,60.0024001,,,,,,,,7,Ontime,long,j,1,1.9254,2,1,9,2,1,,,,,
,1.01,,,,,,,,,d,orange,602451f15e338c12534710d0,2021-09-27_16h09.01.451,forced_choiceRT_color,2021.2.3,MacIntel,60.0024001,,,,,,,,7,Fast,long,d,1,1.8919,2,2,10,0,1,,,,,
,0.25,,,,,,,,,f,blue,602451f15e338c12534710d0,2021-09-27_16h09.01.451,forced_choiceRT_color,2021.2.3,MacIntel,60.0024001,,,,,,,,7,Ontime,long,f,1,1.9139,2,3,11,1,1,,,,,
,0.07,,,,,,,,,k,purple,602451f15e338c12534710d0,2021-09-27_16h09.01.451,forced_choiceRT_color,2021.2.3,MacIntel,60.0024001,,,,,,,,7,Ontime,long,k,1,1.9481,3,0,12,3,1,,,,,
,0.8,,,,,,,,,d,orange,602451f15e338c12534710d0,2021-09-27_16h09.01.451,forced_choiceRT_color,2021.2.3,MacIntel,60.0024001,,,,,,,,7,Ontime,long,d,1,1.9794,3,1,13,0,1,,,,,
,0.19,,,,,,,,,f,blue,602451f15e338c12534710d0,2021-09-27_16h09.01.451,forced_choiceRT_color,2021.2.3,MacIntel,60.0024001,,,,,,,,7,Ontime,long,f,1,1.948,3,2,14,1,1,,,,,
,0.99,,,,,,,,,j,red,602451f15e338c12534710d0,2021-09-27_16h09.01.451,forced_choiceRT_color,2021.2.3,MacIntel,60.0024001,,,,,,,,7,Ontime,long,j,1,1.9921,3,3,15,2,1,,,,,
,0.75,,,,,,,,,j,red,602451f15e338c12534710d0,2021-09-27_16h09.01.451,forced_choiceRT_color,2021.2.3,MacIntel,60.0024001,,,,,,,,7,Ontime,long,j,1,2.0106,4,0,16,2,1,,,,,
,1.22,,,,,,,,,j,red,602451f15e338c12534710d0,2021-09-27_16h09.01.451,forced_choiceRT_color,2021.2.3,MacIntel,60.0024001,,,,,,,,7,Fast,long,j,1,1.6593,4,1,17,2,1,,,,,
,0.14,,,,,,,,,f,blue,602451f15e338c12534710d0,2021-09-27_16h09.01.451,forced_choiceRT_color,2021.2.3,MacIntel,60.0024001,,,,,,,,7,Fast,long,f,1,1.6937,4,2,18,1,1,,,,,
,0.47,,,,,,,,,d,orange,602451f15e338c12534710d0,2021-09-27_16h09.01.451,forced_choiceRT_color,2021.2.3,MacIntel,60.0024001,,,,,,,,7,Fast,long,d,1,1.8966,4,3,19,0,1,,,,,
,1.44,,,,,,,,,f,blue,602451f15e338c12534710d0,2021-09-27_16h09.01.451,forced_choiceRT_color,2021.2.3,MacIntel,60.0024001,,,,,,,,7,Ontime,long,j,0,2.0916,5,0,20,1,1,,,,,
,1.13,,,,,,,,,k,purple,602451f15e338c12534710d0,2021-09-27_16h09.01.451,forced_choiceRT_color,2021.2.3,MacIntel,60.0024001,,,,,,,,7,Fast,long,k,1,1.8926,5,1,21,3,1,,,,,
,0.13,,,,,,,,,k,purple,602451f15e338c12534710d0,2021-09-27_16h09.01.451,forced_choiceRT_color,2021.2.3,MacIntel,60.0024001,,,,,,,,7,Ontime,long,k,1,2.0244,5,2,22,3,1,,,,,
,1.56,,,,,,,,,f,blue,602451f15e338c12534710d0,2021-09-27_16h09.01.451,forced_choiceRT_color,2021.2.3,MacIntel,60.0024001,,,,,,,,7,Ontime,long,j,0,2.0153,5,3,23,1,1,,,,,
,1.5,,,,,,,,,j,red,602451f15e338c12534710d0,2021-09-27_16h09.01.451,forced_choiceRT_color,2021.2.3,MacIntel,60.0024001,,,,,,,,7,Fast,long,j,1,1.8964,6,0,24,2,1,,,,,
,1.21,,,,,,,,,f,blue,602451f15e338c12534710d0,2021-09-27_16h09.01.451,forced_choiceRT_color,2021.2.3,MacIntel,60.0024001,,,,,,,,7,Ontime,long,j,0,1.9502,6,1,25,1,1,,,,,
,1.29,,,,,,,,,k,purple,602451f15e338c12534710d0,2021-09-27_16h09.01.451,forced_choiceRT_color,2021.2.3,MacIntel,60.0024001,,,,,,,,7,Fast,long,j,0,1.7267,6,2,26,3,1,,,,,
,1.84,,,,,,,,,d,orange,602451f15e338c12534710d0,2021-09-27_16h09.01.451,forced_choiceRT_color,2021.2.3,MacIntel,60.0024001,,,,,,,,7,Ontime,long,f,0,2.0087,6,3,27,0,1,,,,,
,0.34,,,,,,,,,k,purple,602451f15e338c12534710d0,2021-09-27_16h09.01.451,forced_choiceRT_color,2021.2.3,MacIntel,60.0024001,,,,,,,,7,Ontime,long,k,1,1.9923,7,0,28,3,1,,,,,
,1.84,,,,,,,,,k,purple,602451f15e338c12534710d0,2021-09-27_16h09.01.451,forced_choiceRT_color,2021.2.3,MacIntel,60.0024001,,,,,,,,7,Ontime,long,k,1,1.9841,7,1,29,3,1,,,,,
,0.24,,,,,,,,,f,blue,602451f15e338c12534710d0,2021-09-27_16h09.01.451,forced_choiceRT_color,2021.2.3,MacIntel,60.0024001,,,,,,,,7,Ontime,long,f,1,2.0431,7,2,30,1,1,,,,,
,0.71,,,,,,,,,j,red,602451f15e338c12534710d0,2021-09-27_16h09.01.451,forced_choiceRT_color,2021.2.3,MacIntel,60.0024001,,,,,,,,7,Fast,long,j,1,1.776,7,3,31,2,1,,,,,
,0.53,,,,,,,,,k,purple,602451f15e338c12534710d0,2021-09-27_16h09.01.451,forced_choiceRT_color,2021.2.3,MacIntel,60.0024001,,,,,,,,7,Fast,long,k,1,1.864,8,0,32,3,1,,,,,
,1.15,,,,,,,,,d,orange,602451f15e338c12534710d0,2021-09-27_16h09.01.451,forced_choiceRT_color,2021.2.3,MacIntel,60.0024001,,,,,,,,7,Slow,long,d,1,2.2087,8,1,33,0,1,,,,,
,1.83,,,,,,,,,d,orange,602451f15e338c12534710d0,2021-09-27_16h09.01.451,forced_choiceRT_color,2021.2.3,MacIntel,60.0024001,,,,,,,,7,Ontime,long,k,0,1.9807,8,2,34,0,1,,,,,
,1.73,,,,,,,,,d,orange,602451f15e338c12534710d0,2021-09-27_16h09.01.451,forced_choiceRT_color,2021.2.3,MacIntel,60.0024001,,,,,,,,7,Ontime,long,f,0,2.0246,8,3,35,0,1,,,,,
,0.88,,,,,,,,,j,red,602451f15e338c12534710d0,2021-09-27_16h09.01.451,forced_choiceRT_color,2021.2.3,MacIntel,60.0024001,,,,,,,,7,Fast,long,j,1,1.7317,9,0,36,2,1,,,,,
,1.42,,,,,,,,,j,red,602451f15e338c12534710d0,2021-09-27_16h09.01.451,forced_choiceRT_color,2021.2.3,MacIntel,60.0024001,,,,,,,,7,Fast,long,j,1,1.814,9,1,37,2,1,,,,,
,0.91,,,,,,,,,d,orange,602451f15e338c12534710d0,2021-09-27_16h09.01.451,forced_choiceRT_color,2021.2.3,MacIntel,60.0024001,,,,,,,,7,Fast,long,d,1,1.8099,9,2,38,0,1,,,,,
,0.66,,,,,,,,,f,blue,602451f15e338c12534710d0,2021-09-27_16h09.01.451,forced_choiceRT_color,2021.2.3,MacIntel,60.0024001,,,,,,,,7,Ontime,long,f,1,2.0085,9,3,39,1,1,,,,,
,,,,,,,,,,,,602451f15e338c12534710d0,2021-09-27_16h09.01.451,forced_choiceRT_color,2021.2.3,MacIntel,60.0024001,,,,,,,,,,,,,,,,,,,6,0,6,0,1
,1.3,,,,,,,,,f,blue,602451f15e338c12534710d0,2021-09-27_16h09.01.451,forced_choiceRT_color,2021.2.3,MacIntel,60.0024001,,,,,,,,8,Ontime,long,f,1,2.0522,0,0,0,1,1,,,,,
,0.65,,,,,,,,,j,red,602451f15e338c12534710d0,2021-09-27_16h09.01.451,forced_choiceRT_color,2021.2.3,MacIntel,60.0024001,,,,,,,,8,Fast,long,j,1,1.8137,0,1,1,2,1,,,,,
,0.75,,,,,,,,,k,purple,602451f15e338c12534710d0,2021-09-27_16h09.01.451,forced_choiceRT_color,2021.2.3,MacIntel,60.0024001,,,,,,,,8,Ontime,long,k,1,1.9302,0,2,2,3,1,,,,,
,0.18,,,,,,,,,j,red,602451f15e338c12534710d0,2021-09-27_16h09.01.451,forced_choiceRT_color,2021.2.3,MacIntel,60.0024001,,,,,,,,8,Ontime,long,j,1,2.0295,0,3,3,2,1,,,,,
,0.25,,,,,,,,,k,purple,602451f15e338c12534710d0,2021-09-27_16h09.01.451,forced_choiceRT_color,2021.2.3,MacIntel,60.0024001,,,,,,,,8,Ontime,long,k,1,1.9473,1,0,4,3,1,,,,,
,1.56,,,,,,,,,f,blue,602451f15e338c12534710d0,2021-09-27_16h09.01.451,forced_choiceRT_color,2021.2.3,MacIntel,60.0024001,,,,,,,,8,Ontime,long,k,0,1.9836,1,1,5,1,1,,,,,
,0.84,,,,,,,,,d,orange,602451f15e338c12534710d0,2021-09-27_16h09.01.451,forced_choiceRT_color,2021.2.3,MacIntel,60.0024001,,,,,,,,8,Fast,long,d,1,1.8803,1,2,6,0,1,,,,,
,0.23,,,,,,,,,d,orange,602451f15e338c12534710d0,2021-09-27_16h09.01.451,forced_choiceRT_color,2021.2.3,MacIntel,60.0024001,,,,,,,,8,Ontime,long,d,1,1.9469,1,3,7,0,1,,,,,
,1.52,,,,,,,,,k,purple,602451f15e338c12534710d0,2021-09-27_16h09.01.451,forced_choiceRT_color,2021.2.3,MacIntel,60.0024001,,,,,,,,8,Slow,long,j,0,2.1459,2,0,8,3,1,,,,,
,0.9,,,,,,,,,k,purple,602451f15e338c12534710d0,2021-09-27_16h09.01.451,forced_choiceRT_color,2021.2.3,MacIntel,60.0024001,,,,,,,,8,Ontime,long,k,1,1.9997,2,1,9,3,1,,,,,
,1.19,,,,,,,,,k,purple,602451f15e338c12534710d0,2021-09-27_16h09.01.451,forced_choiceRT_color,2021.2.3,MacIntel,60.0024001,,,,,,,,8,Slow,long,k,1,2.1122,2,2,10,3,1,,,,,
,0.05,,,,,,,,,d,orange,602451f15e338c12534710d0,2021-09-27_16h09.01.451,forced_choiceRT_color,2021.2.3,MacIntel,60.0024001,,,,,,,,8,Ontime,long,d,1,1.9799,2,3,11,0,1,,,,,
,0.9,,,,,,,,,j,red,602451f15e338c12534710d0,2021-09-27_16h09.01.451,forced_choiceRT_color,2021.2.3,MacIntel,60.0024001,,,,,,,,8,Fast,long,j,1,1.8133,3,0,12,2,1,,,,,
,1.64,,,,,,,,,k,purple,602451f15e338c12534710d0,2021-09-27_16h09.01.451,forced_choiceRT_color,2021.2.3,MacIntel,60.0024001,,,,,,,,8,Ontime,long,f,0,1.9469,3,1,13,3,1,,,,,
,1.94,,,,,,,,,k,purple,602451f15e338c12534710d0,2021-09-27_16h09.01.451,forced_choiceRT_color,2021.2.3,MacIntel,60.0024001,,,,,,,,8,Slow,long,k,1,2.3454,3,2,14,3,1,,,,,
,1.67,,,,,,,,,d,orange,602451f15e338c12534710d0,2021-09-27_16h09.01.451,forced_choiceRT_color,2021.2.3,MacIntel,60.0024001,,,,,,,,8,Fast,long,k,0,1.8929,3,3,15,0,1,,,,,
,0.34,,,,,,,,,f,blue,602451f15e338c12534710d0,2021-09-27_16h09.01.451,forced_choiceRT_color,2021.2.3,MacIntel,60.0024001,,,,,,,,8,Fast,long,j,0,1.7634,4,0,16,1,1,,,,,
,0.38,,,,,,,,,j,red,602451f15e338c12534710d0,2021-09-27_16h09.01.451,forced_choiceRT_color,2021.2.3,MacIntel,60.0024001,,,,,,,,8,Ontime,long,j,1,1.9823,4,1,17,2,1,,,,,
,1.9,,,,,,,,,d,orange,602451f15e338c12534710d0,2021-09-27_16h09.01.451,forced_choiceRT_color,2021.2.3,MacIntel,60.0024001,,,,,,,,8,Ontime,long,f,0,1.9922,4,2,18,0,1,,,,,
,0.71,,,,,,,,,d,orange,602451f15e338c12534710d0,2021-09-27_16h09.01.451,forced_choiceRT_color,2021.2.3,MacIntel,60.0024001,,,,,,,,8,Ontime,long,d,1,1.98,4,3,19,0,1,,,,,
,1.93,,,,,,,,,j,red,602451f15e338c12534710d0,2021-09-27_16h09.01.451,forced_choiceRT_color,2021.2.3,MacIntel,60.0024001,,,,,,,,8,Slow,long,d,0,2.1448,5,0,20,2,1,,,,,
,1.07,,,,,,,,,f,blue,602451f15e338c12534710d0,2021-09-27_16h09.01.451,forced_choiceRT_color,2021.2.3,MacIntel,60.0024001,,,,,,,,8,Ontime,long,f,1,1.9088,5,1,21,1,1,,,,,
,0.62,,,,,,,,,f,blue,602451f15e338c12534710d0,2021-09-27_16h09.01.451,forced_choiceRT_color,2021.2.3,MacIntel,60.0024001,,,,,,,,8,Ontime,long,f,1,1.9131,5,2,22,1,1,,,,,
,1.46,,,,,,,,,j,red,602451f15e338c12534710d0,2021-09-27_16h09.01.451,forced_choiceRT_color,2021.2.3,MacIntel,60.0024001,,,,,,,,8,Ontime,long,j,1,2.0351,5,3,23,2,1,,,,,
,1.76,,,,,,,,,f,blue,602451f15e338c12534710d0,2021-09-27_16h09.01.451,forced_choiceRT_color,2021.2.3,MacIntel,60.0024001,,,,,,,,8,Ontime,long,j,0,1.9611,6,0,24,1,1,,,,,
,0.06,,,,,,,,,d,orange,602451f15e338c12534710d0,2021-09-27_16h09.01.451,forced_choiceRT_color,2021.2.3,MacIntel,60.0024001,,,,,,,,8,Fast,long,d,1,1.8958,6,1,25,0,1,,,,,
,1.5,,,,,,,,,d,orange,602451f15e338c12534710d0,2021-09-27_16h09.01.451,forced_choiceRT_color,2021.2.3,MacIntel,60.0024001,,,,,,,,8,Ontime,long,d,1,2.0649,6,2,26,0,1,,,,,
,0.05,,,,,,,,,f,blue,602451f15e338c12534710d0,2021-09-27_16h09.01.451,forced_choiceRT_color,2021.2.3,MacIntel,60.0024001,,,,,,,,8,Fast,long,f,1,1.8575,6,3,27,1,1,,,,,
,0,,,,,,,,,j,red,602451f15e338c12534710d0,2021-09-27_16h09.01.451,forced_choiceRT_color,2021.2.3,MacIntel,60.0024001,,,,,,,,8,Ontime,long,j,1,1.9327,7,0,28,2,1,,,,,
,1.72,,,,,,,,,k,purple,602451f15e338c12534710d0,2021-09-27_16h09.01.451,forced_choiceRT_color,2021.2.3,MacIntel,60.0024001,,,,,,,,8,Ontime,long,f,0,1.9279,7,1,29,3,1,,,,,
,0.39,,,,,,,,,d,orange,602451f15e338c12534710d0,2021-09-27_16h09.01.451,forced_choiceRT_color,2021.2.3,MacIntel,60.0024001,,,,,,,,8,Ontime,long,d,1,1.9977,7,2,30,0,1,,,,,
,1.06,,,,,,,,,k,purple,602451f15e338c12534710d0,2021-09-27_16h09.01.451,forced_choiceRT_color,2021.2.3,MacIntel,60.0024001,,,,,,,,8,Ontime,long,k,1,2.0102,7,3,31,3,1,,,,,
,1.88,,,,,,,,,j,red,602451f15e338c12534710d0,2021-09-27_16h09.01.451,forced_choiceRT_color,2021.2.3,MacIntel,60.0024001,,,,,,,,8,Slow,long,j,1,6.5424,8,0,32,2,1,,,,,
,0.35,,,,,,,,,j,red,602451f15e338c12534710d0,2021-09-27_16h09.01.451,forced_choiceRT_color,2021.2.3,MacIntel,60.0024001,,,,,,,,8,Ontime,long,j,1,1.9472,8,1,33,2,1,,,,,
,1.59,,,,,,,,,f,blue,602451f15e338c12534710d0,2021-09-27_16h09.01.451,forced_choiceRT_color,2021.2.3,MacIntel,60.0024001,,,,,,,,8,Fast,long,f,1,1.8876,8,2,34,1,1,,,,,
,1.99,,,,,,,,,d,orange,602451f15e338c12534710d0,2021-09-27_16h09.01.451,forced_choiceRT_color,2021.2.3,MacIntel,60.0024001,,,,,,,,8,Fast,long,f,0,1.896,8,3,35,0,1,,,,,
,0.65,,,,,,,,,j,red,602451f15e338c12534710d0,2021-09-27_16h09.01.451,forced_choiceRT_color,2021.2.3,MacIntel,60.0024001,,,,,,,,8,Ontime,long,j,1,1.9756,9,0,36,2,1,,,,,
,0.56,,,,,,,,,k,purple,602451f15e338c12534710d0,2021-09-27_16h09.01.451,forced_choiceRT_color,2021.2.3,MacIntel,60.0024001,,,,,,,,8,Fast,long,k,1,1.8967,9,1,37,3,1,,,,,
,1.92,,,,,,,,,f,blue,602451f15e338c12534710d0,2021-09-27_16h09.01.451,forced_choiceRT_color,2021.2.3,MacIntel,60.0024001,,,,,,,,8,Ontime,long,k,0,2.027,9,2,38,1,1,,,,,
,1.2,,,,,,,,,f,blue,602451f15e338c12534710d0,2021-09-27_16h09.01.451,forced_choiceRT_color,2021.2.3,MacIntel,60.0024001,,,,,,,,8,Ontime,long,f,1,1.9077,9,3,39,1,1,,,,,
,,,,,,,,,,,,602451f15e338c12534710d0,2021-09-27_16h09.01.451,forced_choiceRT_color,2021.2.3,MacIntel,60.0024001,,,,,,,,,,,,,,,,,,,7,0,7,0,1
,1.62,,,,,,,,,j,red,602451f15e338c12534710d0,2021-09-27_16h09.01.451,forced_choiceRT_color,2021.2.3,MacIntel,60.0024001,,,,,,,,9,Slow,long,f,0,2.1467,0,0,0,2,1,,,,,
,0.44,,,,,,,,,d,orange,602451f15e338c12534710d0,2021-09-27_16h09.01.451,forced_choiceRT_color,2021.2.3,MacIntel,60.0024001,,,,,,,,9,Fast,long,j,0,1.3959,0,1,1,0,1,,,,,
,0.63,,,,,,,,,d,orange,602451f15e338c12534710d0,2021-09-27_16h09.01.451,forced_choiceRT_color,2021.2.3,MacIntel,60.0024001,,,,,,,,9,Fast,long,f,0,1.4443,0,2,2,0,1,,,,,
,0.32,,,,,,,,,d,orange,602451f15e338c12534710d0,2021-09-27_16h09.01.451,forced_choiceRT_color,2021.2.3,MacIntel,60.0024001,,,,,,,,9,Ontime,long,d,1,1.9935,0,3,3,0,1,,,,,
,0.25,,,,,,,,,k,purple,602451f15e338c12534710d0,2021-09-27_16h09.01.451,forced_choiceRT_color,2021.2.3,MacIntel,60.0024001,,,,,,,,9,Slow,long,k,1,2.1268,1,0,4,3,1,,,,,
,0.35,,,,,,,,,d,orange,602451f15e338c12534710d0,2021-09-27_16h09.01.451,forced_choiceRT_color,2021.2.3,MacIntel,60.0024001,,,,,,,,9,Ontime,long,d,1,2.0796,1,1,5,0,1,,,,,
,1.14,,,,,,,,,k,purple,602451f15e338c12534710d0,2021-09-27_16h09.01.451,forced_choiceRT_color,2021.2.3,MacIntel,60.0024001,,,,,,,,9,Ontime,long,k,1,2.0764,1,2,6,3,1,,,,,
,1.91,,,,,,,,,j,red,602451f15e338c12534710d0,2021-09-27_16h09.01.451,forced_choiceRT_color,2021.2.3,MacIntel,60.0024001,,,,,,,,9,Slow,long,k,0,2.2623,1,3,7,2,1,,,,,
,1.22,,,,,,,,,k,purple,602451f15e338c12534710d0,2021-09-27_16h09.01.451,forced_choiceRT_color,2021.2.3,MacIntel,60.0024001,,,,,,,,9,Ontime,long,k,1,1.9806,2,0,8,3,1,,,,,
,0.04,,,,,,,,,k,purple,602451f15e338c12534710d0,2021-09-27_16h09.01.451,forced_choiceRT_color,2021.2.3,MacIntel,60.0024001,,,,,,,,9,Ontime,long,k,1,1.9325,2,1,9,3,1,,,,,
,0.75,,,,,,,,,j,red,602451f15e338c12534710d0,2021-09-27_16h09.01.451,forced_choiceRT_color,2021.2.3,MacIntel,60.0024001,,,,,,,,9,Ontime,long,j,1,2.0633,2,2,10,2,1,,,,,
,1.63,,,,,,,,,d,orange,602451f15e338c12534710d0,2021-09-27_16h09.01.451,forced_choiceRT_color,2021.2.3,MacIntel,60.0024001,,,,,,,,9,Ontime,long,d,1,1.949,2,3,11,0,1,,,,,
,0.36,,,,,,,,,d,orange,602451f15e338c12534710d0,2021-09-27_16h09.01.451,forced_choiceRT_color,2021.2.3,MacIntel,60.0024001,,,,,,,,9,Ontime,long,d,1,1.9644,3,0,12,0,1,,,,,
,0.73,,,,,,,,,j,red,602451f15e338c12534710d0,2021-09-27_16h09.01.451,forced_choiceRT_color,2021.2.3,MacIntel,60.0024001,,,,,,,,9,Fast,long,j,1,1.7955,3,1,13,2,1,,,,,
,1.8,,,,,,,,,f,blue,602451f15e338c12534710d0,2021-09-27_16h09.01.451,forced_choiceRT_color,2021.2.3,MacIntel,60.0024001,,,,,,,,9,Ontime,long,k,0,2.0135,3,2,14,1,1,,,,,
,1.18,,,,,,,,,j,red,602451f15e338c12534710d0,2021-09-27_16h09.01.451,forced_choiceRT_color,2021.2.3,MacIntel,60.0024001,,,,,,,,9,Ontime,long,j,1,1.9132,3,3,15,2,1,,,,,
,0.09,,,,,,,,,f,blue,602451f15e338c12534710d0,2021-09-27_16h09.01.451,forced_choiceRT_color,2021.2.3,MacIntel,60.0024001,,,,,,,,9,Ontime,long,f,1,1.9259,4,0,16,1,1,,,,,
,0.23,,,,,,,,,k,purple,602451f15e338c12534710d0,2021-09-27_16h09.01.451,forced_choiceRT_color,2021.2.3,MacIntel,60.0024001,,,,,,,,9,Ontime,long,k,1,1.985,4,1,17,3,1,,,,,
,1.27,,,,,,,,,k,purple,602451f15e338c12534710d0,2021-09-27_16h09.01.451,forced_choiceRT_color,2021.2.3,MacIntel,60.0024001,,,,,,,,9,Ontime,long,k,1,1.976,4,2,18,3,1,,,,,
,0.72,,,,,,,,,f,blue,602451f15e338c12534710d0,2021-09-27_16h09.01.451,forced_choiceRT_color,2021.2.3,MacIntel,60.0024001,,,,,,,,9,Ontime,long,f,1,1.9162,4,3,19,1,1,,,,,
,0.19,,,,,,,,,d,orange,602451f15e338c12534710d0,2021-09-27_16h09.01.451,forced_choiceRT_color,2021.2.3,MacIntel,60.0024001,,,,,,,,9,Ontime,long,d,1,2.0424,5,0,20,0,1,,,,,
,1.54,,,,,,,,,k,purple,602451f15e338c12534710d0,2021-09-27_16h09.01.451,forced_choiceRT_color,2021.2.3,MacIntel,60.0024001,,,,,,,,9,Slow,long,k,1,3.0965,5,1,21,3,1,,,,,
,0.52,,,,,,,,,d,orange,602451f15e338c12534710d0,2021-09-27_16h09.01.451,forced_choiceRT_color,2021.2.3,MacIntel,60.0024001,,,,,,,,9,Ontime,long,d,1,2.0136,5,2,22,0,1,,,,,
,0.71,,,,,,,,,d,orange,602451f15e338c12534710d0,2021-09-27_16h09.01.451,forced_choiceRT_color,2021.2.3,MacIntel,60.0024001,,,,,,,,9,Ontime,long,d,1,1.963,5,3,23,0,1,,,,,
,1.09,,,,,,,,,k,purple,602451f15e338c12534710d0,2021-09-27_16h09.01.451,forced_choiceRT_color,2021.2.3,MacIntel,60.0024001,,,,,,,,9,Fast,long,k,1,1.7818,6,0,24,3,1,,,,,
,1.03,,,,,,,,,f,blue,602451f15e338c12534710d0,2021-09-27_16h09.01.451,forced_choiceRT_color,2021.2.3,MacIntel,60.0024001,,,,,,,,9,Ontime,long,j,0,2.0092,6,1,25,1,1,,,,,
,0.45,,,,,,,,,f,blue,602451f15e338c12534710d0,2021-09-27_16h09.01.451,forced_choiceRT_color,2021.2.3,MacIntel,60.0024001,,,,,,,,9,Ontime,long,f,1,1.9139,6,2,26,1,1,,,,,
,0.5,,,,,,,,,f,blue,602451f15e338c12534710d0,2021-09-27_16h09.01.451,forced_choiceRT_color,2021.2.3,MacIntel,60.0024001,,,,,,,,9,Ontime,long,f,1,1.9631,6,3,27,1,1,,,,,
,1.88,,,,,,,,,f,blue,602451f15e338c12534710d0,2021-09-27_16h09.01.451,forced_choiceRT_color,2021.2.3,MacIntel,60.0024001,,,,,,,,9,Ontime,long,j,0,1.9132,7,0,28,1,1,,,,,
,1.25,,,,,,,,,j,red,602451f15e338c12534710d0,2021-09-27_16h09.01.451,forced_choiceRT_color,2021.2.3,MacIntel,60.0024001,,,,,,,,9,Slow,long,j,1,2.1082,7,1,29,2,1,,,,,
,1,,,,,,,,,d,orange,602451f15e338c12534710d0,2021-09-27_16h09.01.451,forced_choiceRT_color,2021.2.3,MacIntel,60.0024001,,,,,,,,9,Ontime,long,d,1,2.0141,7,2,30,0,1,,,,,
,0.4,,,,,,,,,f,blue,602451f15e338c12534710d0,2021-09-27_16h09.01.451,forced_choiceRT_color,2021.2.3,MacIntel,60.0024001,,,,,,,,9,Ontime,long,f,1,1.9121,7,3,31,1,1,,,,,
,0.07,,,,,,,,,k,purple,602451f15e338c12534710d0,2021-09-27_16h09.01.451,forced_choiceRT_color,2021.2.3,MacIntel,60.0024001,,,,,,,,9,Fast,long,k,1,1.8931,8,0,32,3,1,,,,,
,0.17,,,,,,,,,j,red,602451f15e338c12534710d0,2021-09-27_16h09.01.451,forced_choiceRT_color,2021.2.3,MacIntel,60.0024001,,,,,,,,9,Ontime,long,j,1,2.0972,8,1,33,2,1,,,,,
,0.84,,,,,,,,,f,blue,602451f15e338c12534710d0,2021-09-27_16h09.01.451,forced_choiceRT_color,2021.2.3,MacIntel,60.0024001,,,,,,,,9,Slow,long,f,1,2.1088,8,2,34,1,1,,,,,
,0.24,,,,,,,,,j,red,602451f15e338c12534710d0,2021-09-27_16h09.01.451,forced_choiceRT_color,2021.2.3,MacIntel,60.0024001,,,,,,,,9,Ontime,long,j,1,1.9635,8,3,35,2,1,,,,,
,1.59,,,,,,,,,f,blue,602451f15e338c12534710d0,2021-09-27_16h09.01.451,forced_choiceRT_color,2021.2.3,MacIntel,60.0024001,,,,,,,,9,Ontime,long,f,1,1.9143,9,0,36,1,1,,,,,
,1.75,,,,,,,,,j,red,602451f15e338c12534710d0,2021-09-27_16h09.01.451,forced_choiceRT_color,2021.2.3,MacIntel,60.0024001,,,,,,,,9,Slow,long,f,0,2.9307,9,1,37,2,1,,,,,
,1.13,,,,,,,,,k,purple,602451f15e338c12534710d0,2021-09-27_16h09.01.451,forced_choiceRT_color,2021.2.3,MacIntel,60.0024001,,,,,,,,9,Ontime,long,k,1,1.9635,9,2,38,3,1,,,,,
,1.8,,,,,,,,,j,red,602451f15e338c12534710d0,2021-09-27_16h09.01.451,forced_choiceRT_color,2021.2.3,MacIntel,60.0024001,,,,,,,,9,Ontime,long,k,0,2.0927,9,3,39,2,1,,,,,
,,,,,,,,,,,,602451f15e338c12534710d0,2021-09-27_16h09.01.451,forced_choiceRT_color,2021.2.3,MacIntel,60.0024001,,,,,,,,,,,,,,,,,,,8,0,8,0,1
,1.65,,,,,,,,,f,blue,602451f15e338c12534710d0,2021-09-27_16h09.01.451,forced_choiceRT_color,2021.2.3,MacIntel,60.0024001,,,,,,,,10,Ontime,long,j,0,2.0901,0,0,0,1,1,,,,,
,1.54,,,,,,,,,d,orange,602451f15e338c12534710d0,2021-09-27_16h09.01.451,forced_choiceRT_color,2021.2.3,MacIntel,60.0024001,,,,,,,,10,Ontime,long,d,1,1.96,0,1,1,0,1,,,,,
,0.85,,,,,,,,,j,red,602451f15e338c12534710d0,2021-09-27_16h09.01.451,forced_choiceRT_color,2021.2.3,MacIntel,60.0024001,,,,,,,,10,Fast,long,j,1,1.4291,0,2,2,2,1,,,,,
,0.64,,,,,,,,,k,purple,602451f15e338c12534710d0,2021-09-27_16h09.01.451,forced_choiceRT_color,2021.2.3,MacIntel,60.0024001,,,,,,,,10,Ontime,long,k,1,1.966,0,3,3,3,1,,,,,
,0.15,,,,,,,,,f,blue,602451f15e338c12534710d0,2021-09-27_16h09.01.451,forced_choiceRT_color,2021.2.3,MacIntel,60.0024001,,,,,,,,10,Fast,long,f,1,1.7478,1,0,4,1,1,,,,,
,1.48,,,,,,,,,f,blue,602451f15e338c12534710d0,2021-09-27_16h09.01.451,forced_choiceRT_color,2021.2.3,MacIntel,60.0024001,,,,,,,,10,Fast,long,f,1,1.8477,1,1,5,1,1,,,,,
,1.64,,,,,,,,,k,purple,602451f15e338c12534710d0,2021-09-27_16h09.01.451,forced_choiceRT_color,2021.2.3,MacIntel,60.0024001,,,,,,,,10,Ontime,long,f,0,2.0301,1,2,6,3,1,,,,,
,0.88,,,,,,,,,d,orange,602451f15e338c12534710d0,2021-09-27_16h09.01.451,forced_choiceRT_color,2021.2.3,MacIntel,60.0024001,,,,,,,,10,Fast,long,d,1,1.7814,1,3,7,0,1,,,,,
,1.12,,,,,,,,,f,blue,602451f15e338c12534710d0,2021-09-27_16h09.01.451,forced_choiceRT_color,2021.2.3,MacIntel,60.0024001,,,,,,,,10,Ontime,long,f,1,1.9762,2,0,8,1,1,,,,,
,0.33,,,,,,,,,f,blue,602451f15e338c12534710d0,2021-09-27_16h09.01.451,forced_choiceRT_color,2021.2.3,MacIntel,60.0024001,,,,,,,,10,Ontime,long,f,1,1.9965,2,1,9,1,1,,,,,
,1.05,,,,,,,,,k,purple,602451f15e338c12534710d0,2021-09-27_16h09.01.451,forced_choiceRT_color,2021.2.3,MacIntel,60.0024001,,,,,,,,10,Fast,long,k,1,1.7952,2,2,10,3,1,,,,,
,1.39,,,,,,,,,k,purple,602451f15e338c12534710d0,2021-09-27_16h09.01.451,forced_choiceRT_color,2021.2.3,MacIntel,60.0024001,,,,,,,,10,Ontime,long,k,1,1.914,2,3,11,3,1,,,,,
,0.14,,,,,,,,,j,red,602451f15e338c12534710d0,2021-09-27_16h09.01.451,forced_choiceRT_color,2021.2.3,MacIntel,60.0024001,,,,,,,,10,Fast,long,j,1,1.7301,3,0,12,2,1,,,,,
,1.37,,,,,,,,,d,orange,602451f15e338c12534710d0,2021-09-27_16h09.01.451,forced_choiceRT_color,2021.2.3,MacIntel,60.0024001,,,,,,,,10,Slow,long,d,1,2.1278,3,1,13,0,1,,,,,
,1.45,,,,,,,,,f,blue,602451f15e338c12534710d0,2021-09-27_16h09.01.451,forced_choiceRT_color,2021.2.3,MacIntel,60.0024001,,,,,,,,10,Slow,long,j,0,2.1474,3,2,14,1,1,,,,,
,1.42,,,,,,,,,f,blue,602451f15e338c12534710d0,2021-09-27_16h09.01.451,forced_choiceRT_color,2021.2.3,MacIntel,60.0024001,,,,,,,,10,Fast,long,f,1,1.8966,3,3,15,1,1,,,,,
,1.08,,,,,,,,,j,red,602451f15e338c12534710d0,2021-09-27_16h09.01.451,forced_choiceRT_color,2021.2.3,MacIntel,60.0024001,,,,,,,,10,Ontime,long,j,1,2.0135,4,0,16,2,1,,,,,
,0.4,,,,,,,,,k,purple,602451f15e338c12534710d0,2021-09-27_16h09.01.451,forced_choiceRT_color,2021.2.3,MacIntel,60.0024001,,,,,,,,10,Ontime,long,k,1,1.9797,4,1,17,3,1,,,,,
,1.58,,,,,,,,,k,purple,602451f15e338c12534710d0,2021-09-27_16h09.01.451,forced_choiceRT_color,2021.2.3,MacIntel,60.0024001,,,,,,,,10,Ontime,long,f,0,1.9817,4,2,18,3,1,,,,,
,1.3,,,,,,,,,j,red,602451f15e338c12534710d0,2021-09-27_16h09.01.451,forced_choiceRT_color,2021.2.3,MacIntel,60.0024001,,,,,,,,10,Slow,long,k,0,2.1298,4,3,19,2,1,,,,,
,0.49,,,,,,,,,d,orange,602451f15e338c12534710d0,2021-09-27_16h09.01.451,forced_choiceRT_color,2021.2.3,MacIntel,60.0024001,,,,,,,,10,Ontime,long,d,1,2.0634,5,0,20,0,1,,,,,
,1.2,,,,,,,,,k,purple,602451f15e338c12534710d0,2021-09-27_16h09.01.451,forced_choiceRT_color,2021.2.3,MacIntel,60.0024001,,,,,,,,10,Fast,long,k,1,1.8823,5,1,21,3,1,,,,,
,0.87,,,,,,,,,j,red,602451f15e338c12534710d0,2021-09-27_16h09.01.451,forced_choiceRT_color,2021.2.3,MacIntel,60.0024001,,,,,,,,10,Ontime,long,j,1,1.9085,5,2,22,2,1,,,,,
,0.47,,,,,,,,,f,blue,602451f15e338c12534710d0,2021-09-27_16h09.01.451,forced_choiceRT_color,2021.2.3,MacIntel,60.0024001,,,,,,,,10,Ontime,long,f,1,1.9303,5,3,23,1,1,,,,,
,0.42,,,,,,,,,d,orange,602451f15e338c12534710d0,2021-09-27_16h09.01.451,forced_choiceRT_color,2021.2.3,MacIntel,60.0024001,,,,,,,,10,Ontime,long,d,1,1.928,6,0,24,0,1,,,,,
,1.29,,,,,,,,,j,red,602451f15e338c12534710d0,2021-09-27_16h09.01.451,forced_choiceRT_color,2021.2.3,MacIntel,60.0024001,,,,,,,,10,Ontime,long,j,1,2.0944,6,1,25,2,1,,,,,
,0.12,,,,,,,,,k,purple,602451f15e338c12534710d0,2021-09-27_16h09.01.451,forced_choiceRT_color,2021.2.3,MacIntel,60.0024001,,,,,,,,10,Ontime,long,k,1,2.0972,6,2,26,3,1,,,,,
,1.06,,,,,,,,,j,red,602451f15e338c12534710d0,2021-09-27_16h09.01.451,forced_choiceRT_color,2021.2.3,MacIntel,60.0024001,,,,,,,,10,Fast,long,f,0,1.8304,6,3,27,2,1,,,,,
,1.7,,,,,,,,,f,blue,602451f15e338c12534710d0,2021-09-27_16h09.01.451,forced_choiceRT_color,2021.2.3,MacIntel,60.0024001,,,,,,,,10,Ontime,long,j,0,1.96,7,0,28,1,1,,,,,
,0.92,,,,,,,,,f,blue,602451f15e338c12534710d0,2021-09-27_16h09.01.451,forced_choiceRT_color,2021.2.3,MacIntel,60.0024001,,,,,,,,10,Fast,long,j,0,1.8926,7,1,29,1,1,,,,,
,0.25,,,,,,,,,d,orange,602451f15e338c12534710d0,2021-09-27_16h09.01.451,forced_choiceRT_color,2021.2.3,MacIntel,60.0024001,,,,,,,,10,Ontime,long,d,1,1.9636,7,2,30,0,1,,,,,
,0.12,,,,,,,,,j,red,602451f15e338c12534710d0,2021-09-27_16h09.01.451,forced_choiceRT_color,2021.2.3,MacIntel,60.0024001,,,,,,,,10,Ontime,long,j,1,1.9464,7,3,31,2,1,,,,,
,1.98,,,,,,,,,j,red,602451f15e338c12534710d0,2021-09-27_16h09.01.451,forced_choiceRT_color,2021.2.3,MacIntel,60.0024001,,,,,,,,10,Ontime,long,f,0,1.9639,8,0,32,2,1,,,,,
,1.34,,,,,,,,,d,orange,602451f15e338c12534710d0,2021-09-27_16h09.01.451,forced_choiceRT_color,2021.2.3,MacIntel,60.0024001,,,,,,,,10,Fast,long,f,0,1.8665,8,1,33,0,1,,,,,
,1.16,,,,,,,,,d,orange,602451f15e338c12534710d0,2021-09-27_16h09.01.451,forced_choiceRT_color,2021.2.3,MacIntel,60.0024001,,,,,,,,10,Ontime,long,d,1,1.9456,8,2,34,0,1,,,,,
,1.43,,,,,,,,,k,purple,602451f15e338c12534710d0,2021-09-27_16h09.01.451,forced_choiceRT_color,2021.2.3,MacIntel,60.0024001,,,,,,,,10,Ontime,long,k,1,1.9837,8,3,35,3,1,,,,,
,0.67,,,,,,,,,d,orange,602451f15e338c12534710d0,2021-09-27_16h09.01.451,forced_choiceRT_color,2021.2.3,MacIntel,60.0024001,,,,,,,,10,Ontime,long,d,1,1.9472,9,0,36,0,1,,,,,
,1.15,,,,,,,,,k,purple,602451f15e338c12534710d0,2021-09-27_16h09.01.451,forced_choiceRT_color,2021.2.3,MacIntel,60.0024001,,,,,,,,10,Ontime,long,k,1,2.0138,9,1,37,3,1,,,,,
,1.9,,,,,,,,,d,orange,602451f15e338c12534710d0,2021-09-27_16h09.01.451,forced_choiceRT_color,2021.2.3,MacIntel,60.0024001,,,,,,,,10,Slow,long,d,1,2.8093,9,2,38,0,1,,,,,
,0.45,,,,,,,,,j,red,602451f15e338c12534710d0,2021-09-27_16h09.01.451,forced_choiceRT_color,2021.2.3,MacIntel,60.0024001,,,,,,,,10,Ontime,long,j,1,2.0108,9,3,39,2,1,,,,,
,,,,,,,,,,,,602451f15e338c12534710d0,2021-09-27_16h09.01.451,forced_choiceRT_color,2021.2.3,MacIntel,60.0024001,,,,,,,,,,,,,,,,,,,9,0,9,0,1
