IP_Addresss,target_onset,trial_resp_sp.keys,trial_resp_sp.corr,trial_resp_sp.rt,trials_train_loop.thisRepN,trials_train_loop.thisTrialN,trials_train_loop.thisN,trials_train_loop.thisIndex,trials_train_loop.ran,correct_key,color,participant,date,expName,psychopyVersion,OS,frameRate,trial_resp_timing.keys,trial_resp_timing.rt,trials_train_timing.thisRepN,trials_train_timing.thisTrialN,trials_train_timing.thisN,trials_train_timing.thisIndex,trials_train_timing.ran,block_id,ontime,feedback_cond,forcedRT_resp.keys,forcedRT_resp.corr,forcedRT_resp.rt,trials.thisRepN,trials.thisTrialN,trials.thisN,trials.thisIndex,trials.ran,blocks.thisRepN,blocks.thisTrialN,blocks.thisN,blocks.thisIndex,blocks.ran
174.112.107.148,0,k,1,1.2045,0,0,0,3,1,k,purple,6096a175a2933cf1f6987fc4,2021-11-01_13h52.36.282,forced_choiceRT_color,2021.2.3,Win32,60.18295619,,,,,,,,,,,,,,,,,,,,,,,
,0,f,1,1.0985,0,1,1,1,1,f,blue,6096a175a2933cf1f6987fc4,2021-11-01_13h52.36.282,forced_choiceRT_color,2021.2.3,Win32,60.18295619,,,,,,,,,,,,,,,,,,,,,,,
,0,f,1,0.7584,0,2,2,1,1,f,blue,6096a175a2933cf1f6987fc4,2021-11-01_13h52.36.282,forced_choiceRT_color,2021.2.3,Win32,60.18295619,,,,,,,,,,,,,,,,,,,,,,,
,0,j,1,0.9425,0,3,3,2,1,j,red,6096a175a2933cf1f6987fc4,2021-11-01_13h52.36.282,forced_choiceRT_color,2021.2.3,Win32,60.18295619,,,,,,,,,,,,,,,,,,,,,,,
,0,k,1,0.6189,1,0,4,3,1,k,purple,6096a175a2933cf1f6987fc4,2021-11-01_13h52.36.282,forced_choiceRT_color,2021.2.3,Win32,60.18295619,,,,,,,,,,,,,,,,,,,,,,,
,0,f,1,0.8296,1,1,5,1,1,f,blue,6096a175a2933cf1f6987fc4,2021-11-01_13h52.36.282,forced_choiceRT_color,2021.2.3,Win32,60.18295619,,,,,,,,,,,,,,,,,,,,,,,
,0,d,1,0.5566,1,2,6,0,1,d,orange,6096a175a2933cf1f6987fc4,2021-11-01_13h52.36.282,forced_choiceRT_color,2021.2.3,Win32,60.18295619,,,,,,,,,,,,,,,,,,,,,,,
,0,f,1,0.7427,1,3,7,1,1,f,blue,6096a175a2933cf1f6987fc4,2021-11-01_13h52.36.282,forced_choiceRT_color,2021.2.3,Win32,60.18295619,,,,,,,,,,,,,,,,,,,,,,,
,0,d,1,0.6802,2,0,8,0,1,d,orange,6096a175a2933cf1f6987fc4,2021-11-01_13h52.36.282,forced_choiceRT_color,2021.2.3,Win32,60.18295619,,,,,,,,,,,,,,,,,,,,,,,
,0,j,1,0.6756,2,1,9,2,1,j,red,6096a175a2933cf1f6987fc4,2021-11-01_13h52.36.282,forced_choiceRT_color,2021.2.3,Win32,60.18295619,,,,,,,,,,,,,,,,,,,,,,,
,0,k,1,0.5503,2,2,10,3,1,k,purple,6096a175a2933cf1f6987fc4,2021-11-01_13h52.36.282,forced_choiceRT_color,2021.2.3,Win32,60.18295619,,,,,,,,,,,,,,,,,,,,,,,
,0,d,1,0.5645,2,3,11,0,1,d,orange,6096a175a2933cf1f6987fc4,2021-11-01_13h52.36.282,forced_choiceRT_color,2021.2.3,Win32,60.18295619,,,,,,,,,,,,,,,,,,,,,,,
,0,k,1,0.6067,3,0,12,3,1,k,purple,6096a175a2933cf1f6987fc4,2021-11-01_13h52.36.282,forced_choiceRT_color,2021.2.3,Win32,60.18295619,,,,,,,,,,,,,,,,,,,,,,,
,0,f,1,0.4332,3,1,13,1,1,f,blue,6096a175a2933cf1f6987fc4,2021-11-01_13h52.36.282,forced_choiceRT_color,2021.2.3,Win32,60.18295619,,,,,,,,,,,,,,,,,,,,,,,
,0,k,1,0.644,3,2,14,3,1,k,purple,6096a175a2933cf1f6987fc4,2021-11-01_13h52.36.282,forced_choiceRT_color,2021.2.3,Win32,60.18295619,,,,,,,,,,,,,,,,,,,,,,,
,0,j,1,0.7652,3,3,15,2,1,j,red,6096a175a2933cf1f6987fc4,2021-11-01_13h52.36.282,forced_choiceRT_color,2021.2.3,Win32,60.18295619,,,,,,,,,,,,,,,,,,,,,,,
,0,d,1,0.6197,4,0,16,0,1,d,orange,6096a175a2933cf1f6987fc4,2021-11-01_13h52.36.282,forced_choiceRT_color,2021.2.3,Win32,60.18295619,,,,,,,,,,,,,,,,,,,,,,,
,0,f,1,0.6896,4,1,17,1,1,f,blue,6096a175a2933cf1f6987fc4,2021-11-01_13h52.36.282,forced_choiceRT_color,2021.2.3,Win32,60.18295619,,,,,,,,,,,,,,,,,,,,,,,
,0,j,1,0.8331,4,2,18,2,1,j,red,6096a175a2933cf1f6987fc4,2021-11-01_13h52.36.282,forced_choiceRT_color,2021.2.3,Win32,60.18295619,,,,,,,,,,,,,,,,,,,,,,,
,0,f,1,0.7862,4,3,19,1,1,f,blue,6096a175a2933cf1f6987fc4,2021-11-01_13h52.36.282,forced_choiceRT_color,2021.2.3,Win32,60.18295619,,,,,,,,,,,,,,,,,,,,,,,
,0,j,1,0.699,5,0,20,2,1,j,red,6096a175a2933cf1f6987fc4,2021-11-01_13h52.36.282,forced_choiceRT_color,2021.2.3,Win32,60.18295619,,,,,,,,,,,,,,,,,,,,,,,
,0,f,1,0.6019,5,1,21,1,1,f,blue,6096a175a2933cf1f6987fc4,2021-11-01_13h52.36.282,forced_choiceRT_color,2021.2.3,Win32,60.18295619,,,,,,,,,,,,,,,,,,,,,,,
,0,f,1,1.1441,5,2,22,1,1,f,blue,6096a175a2933cf1f6987fc4,2021-11-01_13h52.36.282,forced_choiceRT_color,2021.2.3,Win32,60.18295619,,,,,,,,,,,,,,,,,,,,,,,
,0,d,1,0.6086,5,3,23,0,1,d,orange,6096a175a2933cf1f6987fc4,2021-11-01_13h52.36.282,forced_choiceRT_color,2021.2.3,Win32,60.18295619,,,,,,,,,,,,,,,,,,,,,,,
,0,j,1,0.742,6,0,24,2,1,j,red,6096a175a2933cf1f6987fc4,2021-11-01_13h52.36.282,forced_choiceRT_color,2021.2.3,Win32,60.18295619,,,,,,,,,,,,,,,,,,,,,,,
,0,j,1,0.4913,6,1,25,2,1,j,red,6096a175a2933cf1f6987fc4,2021-11-01_13h52.36.282,forced_choiceRT_color,2021.2.3,Win32,60.18295619,,,,,,,,,,,,,,,,,,,,,,,
,0,f,1,0.6501,6,2,26,1,1,f,blue,6096a175a2933cf1f6987fc4,2021-11-01_13h52.36.282,forced_choiceRT_color,2021.2.3,Win32,60.18295619,,,,,,,,,,,,,,,,,,,,,,,
,0,k,1,0.5943,6,3,27,3,1,k,purple,6096a175a2933cf1f6987fc4,2021-11-01_13h52.36.282,forced_choiceRT_color,2021.2.3,Win32,60.18295619,,,,,,,,,,,,,,,,,,,,,,,
,0,j,1,0.867,7,0,28,2,1,j,red,6096a175a2933cf1f6987fc4,2021-11-01_13h52.36.282,forced_choiceRT_color,2021.2.3,Win32,60.18295619,,,,,,,,,,,,,,,,,,,,,,,
,0,f,1,0.6354,7,1,29,1,1,f,blue,6096a175a2933cf1f6987fc4,2021-11-01_13h52.36.282,forced_choiceRT_color,2021.2.3,Win32,60.18295619,,,,,,,,,,,,,,,,,,,,,,,
,0,j,1,0.7518,7,2,30,2,1,j,red,6096a175a2933cf1f6987fc4,2021-11-01_13h52.36.282,forced_choiceRT_color,2021.2.3,Win32,60.18295619,,,,,,,,,,,,,,,,,,,,,,,
,0,j,1,0.4109,7,3,31,2,1,j,red,6096a175a2933cf1f6987fc4,2021-11-01_13h52.36.282,forced_choiceRT_color,2021.2.3,Win32,60.18295619,,,,,,,,,,,,,,,,,,,,,,,
,0,k,1,0.6369,8,0,32,3,1,k,purple,6096a175a2933cf1f6987fc4,2021-11-01_13h52.36.282,forced_choiceRT_color,2021.2.3,Win32,60.18295619,,,,,,,,,,,,,,,,,,,,,,,
,0,j,1,0.7111,8,1,33,2,1,j,red,6096a175a2933cf1f6987fc4,2021-11-01_13h52.36.282,forced_choiceRT_color,2021.2.3,Win32,60.18295619,,,,,,,,,,,,,,,,,,,,,,,
,0,j,1,0.4453,8,2,34,2,1,j,red,6096a175a2933cf1f6987fc4,2021-11-01_13h52.36.282,forced_choiceRT_color,2021.2.3,Win32,60.18295619,,,,,,,,,,,,,,,,,,,,,,,
,0,k,1,0.5559,8,3,35,3,1,k,purple,6096a175a2933cf1f6987fc4,2021-11-01_13h52.36.282,forced_choiceRT_color,2021.2.3,Win32,60.18295619,,,,,,,,,,,,,,,,,,,,,,,
,0,k,1,0.6755,9,0,36,3,1,k,purple,6096a175a2933cf1f6987fc4,2021-11-01_13h52.36.282,forced_choiceRT_color,2021.2.3,Win32,60.18295619,,,,,,,,,,,,,,,,,,,,,,,
,0,k,1,0.5789,9,1,37,3,1,k,purple,6096a175a2933cf1f6987fc4,2021-11-01_13h52.36.282,forced_choiceRT_color,2021.2.3,Win32,60.18295619,,,,,,,,,,,,,,,,,,,,,,,
,0,d,1,0.6297,9,2,38,0,1,d,orange,6096a175a2933cf1f6987fc4,2021-11-01_13h52.36.282,forced_choiceRT_color,2021.2.3,Win32,60.18295619,,,,,,,,,,,,,,,,,,,,,,,
,0,k,1,0.632,9,3,39,3,1,k,purple,6096a175a2933cf1f6987fc4,2021-11-01_13h52.36.282,forced_choiceRT_color,2021.2.3,Win32,60.18295619,,,,,,,,,,,,,,,,,,,,,,,
,0,f,1,0.5687,10,0,40,1,1,f,blue,6096a175a2933cf1f6987fc4,2021-11-01_13h52.36.282,forced_choiceRT_color,2021.2.3,Win32,60.18295619,,,,,,,,,,,,,,,,,,,,,,,
,0,j,0,0.5329,10,1,41,3,1,k,purple,6096a175a2933cf1f6987fc4,2021-11-01_13h52.36.282,forced_choiceRT_color,2021.2.3,Win32,60.18295619,,,,,,,,,,,,,,,,,,,,,,,
,0,k,0,0.2656,10,2,42,0,1,d,orange,6096a175a2933cf1f6987fc4,2021-11-01_13h52.36.282,forced_choiceRT_color,2021.2.3,Win32,60.18295619,,,,,,,,,,,,,,,,,,,,,,,
,0,k,1,1.0386,10,3,43,3,1,k,purple,6096a175a2933cf1f6987fc4,2021-11-01_13h52.36.282,forced_choiceRT_color,2021.2.3,Win32,60.18295619,,,,,,,,,,,,,,,,,,,,,,,
,0,d,1,0.6503,11,0,44,0,1,d,orange,6096a175a2933cf1f6987fc4,2021-11-01_13h52.36.282,forced_choiceRT_color,2021.2.3,Win32,60.18295619,,,,,,,,,,,,,,,,,,,,,,,
,0,f,1,0.6997,11,1,45,1,1,f,blue,6096a175a2933cf1f6987fc4,2021-11-01_13h52.36.282,forced_choiceRT_color,2021.2.3,Win32,60.18295619,,,,,,,,,,,,,,,,,,,,,,,
,0,j,1,0.7056,11,2,46,2,1,j,red,6096a175a2933cf1f6987fc4,2021-11-01_13h52.36.282,forced_choiceRT_color,2021.2.3,Win32,60.18295619,,,,,,,,,,,,,,,,,,,,,,,
,0,d,1,0.7261,11,3,47,0,1,d,orange,6096a175a2933cf1f6987fc4,2021-11-01_13h52.36.282,forced_choiceRT_color,2021.2.3,Win32,60.18295619,,,,,,,,,,,,,,,,,,,,,,,
,0,f,1,0.7574,12,0,48,1,1,f,blue,6096a175a2933cf1f6987fc4,2021-11-01_13h52.36.282,forced_choiceRT_color,2021.2.3,Win32,60.18295619,,,,,,,,,,,,,,,,,,,,,,,
,0,k,1,0.6902,12,1,49,3,1,k,purple,6096a175a2933cf1f6987fc4,2021-11-01_13h52.36.282,forced_choiceRT_color,2021.2.3,Win32,60.18295619,,,,,,,,,,,,,,,,,,,,,,,
,0,d,1,0.8513,12,2,50,0,1,d,orange,6096a175a2933cf1f6987fc4,2021-11-01_13h52.36.282,forced_choiceRT_color,2021.2.3,Win32,60.18295619,,,,,,,,,,,,,,,,,,,,,,,
,0,d,1,0.6344,12,3,51,0,1,d,orange,6096a175a2933cf1f6987fc4,2021-11-01_13h52.36.282,forced_choiceRT_color,2021.2.3,Win32,60.18295619,,,,,,,,,,,,,,,,,,,,,,,
,0,j,1,0.6184,13,0,52,2,1,j,red,6096a175a2933cf1f6987fc4,2021-11-01_13h52.36.282,forced_choiceRT_color,2021.2.3,Win32,60.18295619,,,,,,,,,,,,,,,,,,,,,,,
,0,j,1,0.5726,13,1,53,2,1,j,red,6096a175a2933cf1f6987fc4,2021-11-01_13h52.36.282,forced_choiceRT_color,2021.2.3,Win32,60.18295619,,,,,,,,,,,,,,,,,,,,,,,
,0,d,1,0.5774,13,2,54,0,1,d,orange,6096a175a2933cf1f6987fc4,2021-11-01_13h52.36.282,forced_choiceRT_color,2021.2.3,Win32,60.18295619,,,,,,,,,,,,,,,,,,,,,,,
,0,d,1,0.4681,13,3,55,0,1,d,orange,6096a175a2933cf1f6987fc4,2021-11-01_13h52.36.282,forced_choiceRT_color,2021.2.3,Win32,60.18295619,,,,,,,,,,,,,,,,,,,,,,,
,0,d,1,0.4754,14,0,56,0,1,d,orange,6096a175a2933cf1f6987fc4,2021-11-01_13h52.36.282,forced_choiceRT_color,2021.2.3,Win32,60.18295619,,,,,,,,,,,,,,,,,,,,,,,
,0,d,1,0.3958,14,1,57,0,1,d,orange,6096a175a2933cf1f6987fc4,2021-11-01_13h52.36.282,forced_choiceRT_color,2021.2.3,Win32,60.18295619,,,,,,,,,,,,,,,,,,,,,,,
,0,f,1,0.8332,14,2,58,1,1,f,blue,6096a175a2933cf1f6987fc4,2021-11-01_13h52.36.282,forced_choiceRT_color,2021.2.3,Win32,60.18295619,,,,,,,,,,,,,,,,,,,,,,,
,0,k,1,0.8328,14,3,59,3,1,k,purple,6096a175a2933cf1f6987fc4,2021-11-01_13h52.36.282,forced_choiceRT_color,2021.2.3,Win32,60.18295619,,,,,,,,,,,,,,,,,,,,,,,
,,,,,,,,,,,,6096a175a2933cf1f6987fc4,2021-11-01_13h52.36.282,forced_choiceRT_color,2021.2.3,Win32,60.18295619,d,2.2833,0,0,0,0,1,,,,,,,,,,,,,,,,
,,,,,,,,,,,,6096a175a2933cf1f6987fc4,2021-11-01_13h52.36.282,forced_choiceRT_color,2021.2.3,Win32,60.18295619,f,2.0129,1,0,1,0,1,,,,,,,,,,,,,,,,
,,,,,,,,,,,,6096a175a2933cf1f6987fc4,2021-11-01_13h52.36.282,forced_choiceRT_color,2021.2.3,Win32,60.18295619,j,1.7426,2,0,2,0,1,,,,,,,,,,,,,,,,
,,,,,,,,,,,,6096a175a2933cf1f6987fc4,2021-11-01_13h52.36.282,forced_choiceRT_color,2021.2.3,Win32,60.18295619,j,1.7946,3,0,3,0,1,,,,,,,,,,,,,,,,
,,,,,,,,,,,,6096a175a2933cf1f6987fc4,2021-11-01_13h52.36.282,forced_choiceRT_color,2021.2.3,Win32,60.18295619,j,2.2311,4,0,4,0,1,,,,,,,,,,,,,,,,
,,,,,,,,,,,,6096a175a2933cf1f6987fc4,2021-11-01_13h52.36.282,forced_choiceRT_color,2021.2.3,Win32,60.18295619,k,2.0927,5,0,5,0,1,,,,,,,,,,,,,,,,
,,,,,,,,,,,,6096a175a2933cf1f6987fc4,2021-11-01_13h52.36.282,forced_choiceRT_color,2021.2.3,Win32,60.18295619,j,2.0271,6,0,6,0,1,,,,,,,,,,,,,,,,
,,,,,,,,,,,,6096a175a2933cf1f6987fc4,2021-11-01_13h52.36.282,forced_choiceRT_color,2021.2.3,Win32,60.18295619,f,2.0432,7,0,7,0,1,,,,,,,,,,,,,,,,
,,,,,,,,,,,,6096a175a2933cf1f6987fc4,2021-11-01_13h52.36.282,forced_choiceRT_color,2021.2.3,Win32,60.18295619,d,2.003,8,0,8,0,1,,,,,,,,,,,,,,,,
,,,,,,,,,,,,6096a175a2933cf1f6987fc4,2021-11-01_13h52.36.282,forced_choiceRT_color,2021.2.3,Win32,60.18295619,f,2.0179,9,0,9,0,1,,,,,,,,,,,,,,,,
,,,,,,,,,,,,6096a175a2933cf1f6987fc4,2021-11-01_13h52.36.282,forced_choiceRT_color,2021.2.3,Win32,60.18295619,j,2.1536,10,0,10,0,1,,,,,,,,,,,,,,,,
,,,,,,,,,,,,6096a175a2933cf1f6987fc4,2021-11-01_13h52.36.282,forced_choiceRT_color,2021.2.3,Win32,60.18295619,k,2.1112,11,0,11,0,1,,,,,,,,,,,,,,,,
,,,,,,,,,,,,6096a175a2933cf1f6987fc4,2021-11-01_13h52.36.282,forced_choiceRT_color,2021.2.3,Win32,60.18295619,j,1.9868,12,0,12,0,1,,,,,,,,,,,,,,,,
,,,,,,,,,,,,6096a175a2933cf1f6987fc4,2021-11-01_13h52.36.282,forced_choiceRT_color,2021.2.3,Win32,60.18295619,f,2.1236,13,0,13,0,1,,,,,,,,,,,,,,,,
,,,,,,,,,,,,6096a175a2933cf1f6987fc4,2021-11-01_13h52.36.282,forced_choiceRT_color,2021.2.3,Win32,60.18295619,d,2.0709,14,0,14,0,1,,,,,,,,,,,,,,,,
,,,,,,,,,,,,6096a175a2933cf1f6987fc4,2021-11-01_13h52.36.282,forced_choiceRT_color,2021.2.3,Win32,60.18295619,f,2.0214,15,0,15,0,1,,,,,,,,,,,,,,,,
,,,,,,,,,,,,6096a175a2933cf1f6987fc4,2021-11-01_13h52.36.282,forced_choiceRT_color,2021.2.3,Win32,60.18295619,j,2.0618,16,0,16,0,1,,,,,,,,,,,,,,,,
,,,,,,,,,,,,6096a175a2933cf1f6987fc4,2021-11-01_13h52.36.282,forced_choiceRT_color,2021.2.3,Win32,60.18295619,k,2.0599,17,0,17,0,1,,,,,,,,,,,,,,,,
,,,,,,,,,,,,6096a175a2933cf1f6987fc4,2021-11-01_13h52.36.282,forced_choiceRT_color,2021.2.3,Win32,60.18295619,j,1.7698,18,0,18,0,1,,,,,,,,,,,,,,,,
,,,,,,,,,,,,6096a175a2933cf1f6987fc4,2021-11-01_13h52.36.282,forced_choiceRT_color,2021.2.3,Win32,60.18295619,j,2.2525,19,0,19,0,1,,,,,,,,,,,,,,,,
,0.49,,,,,,,,,f,blue,6096a175a2933cf1f6987fc4,2021-11-01_13h52.36.282,forced_choiceRT_color,2021.2.3,Win32,60.18295619,,,,,,,,1,Slow,long,f,1,2.1961,0,0,0,1,1,,,,,
,1.37,,,,,,,,,k,purple,6096a175a2933cf1f6987fc4,2021-11-01_13h52.36.282,forced_choiceRT_color,2021.2.3,Win32,60.18295619,,,,,,,,1,Slow,long,k,1,2.1263,0,1,1,3,1,,,,,
,1.99,,,,,,,,,f,blue,6096a175a2933cf1f6987fc4,2021-11-01_13h52.36.282,forced_choiceRT_color,2021.2.3,Win32,60.18295619,,,,,,,,1,Slow,long,d,0,2.3566,0,2,2,1,1,,,,,
,0.56,,,,,,,,,d,orange,6096a175a2933cf1f6987fc4,2021-11-01_13h52.36.282,forced_choiceRT_color,2021.2.3,Win32,60.18295619,,,,,,,,1,Fast,long,d,1,1.0384,0,3,3,0,1,,,,,
,1.6,,,,,,,,,d,orange,6096a175a2933cf1f6987fc4,2021-11-01_13h52.36.282,forced_choiceRT_color,2021.2.3,Win32,60.18295619,,,,,,,,1,Slow,long,d,1,2.1357,1,0,4,0,1,,,,,
,0.49,,,,,,,,,d,orange,6096a175a2933cf1f6987fc4,2021-11-01_13h52.36.282,forced_choiceRT_color,2021.2.3,Win32,60.18295619,,,,,,,,1,Ontime,long,d,1,2.0864,1,1,5,0,1,,,,,
,0.23,,,,,,,,,f,blue,6096a175a2933cf1f6987fc4,2021-11-01_13h52.36.282,forced_choiceRT_color,2021.2.3,Win32,60.18295619,,,,,,,,1,Ontime,long,j,0,2.0389,1,2,6,1,1,,,,,
,1.36,,,,,,,,,j,red,6096a175a2933cf1f6987fc4,2021-11-01_13h52.36.282,forced_choiceRT_color,2021.2.3,Win32,60.18295619,,,,,,,,1,Slow,long,k,0,2.3116,1,3,7,2,1,,,,,
,1.13,,,,,,,,,f,blue,6096a175a2933cf1f6987fc4,2021-11-01_13h52.36.282,forced_choiceRT_color,2021.2.3,Win32,60.18295619,,,,,,,,1,Slow,long,j,0,2.204,2,0,8,1,1,,,,,
,0.07,,,,,,,,,j,red,6096a175a2933cf1f6987fc4,2021-11-01_13h52.36.282,forced_choiceRT_color,2021.2.3,Win32,60.18295619,,,,,,,,1,Slow,long,j,1,2.2697,2,1,9,2,1,,,,,
,0.66,,,,,,,,,k,purple,6096a175a2933cf1f6987fc4,2021-11-01_13h52.36.282,forced_choiceRT_color,2021.2.3,Win32,60.18295619,,,,,,,,1,Slow,long,k,1,2.1564,2,2,10,3,1,,,,,
,0.51,,,,,,,,,j,red,6096a175a2933cf1f6987fc4,2021-11-01_13h52.36.282,forced_choiceRT_color,2021.2.3,Win32,60.18295619,,,,,,,,1,Ontime,long,j,1,1.9097,2,3,11,2,1,,,,,
,0.07,,,,,,,,,k,purple,6096a175a2933cf1f6987fc4,2021-11-01_13h52.36.282,forced_choiceRT_color,2021.2.3,Win32,60.18295619,,,,,,,,1,Fast,long,k,1,1.8449,3,0,12,3,1,,,,,
,0.39,,,,,,,,,d,orange,6096a175a2933cf1f6987fc4,2021-11-01_13h52.36.282,forced_choiceRT_color,2021.2.3,Win32,60.18295619,,,,,,,,1,Fast,long,d,1,1.8931,3,1,13,0,1,,,,,
,1.89,,,,,,,,,j,red,6096a175a2933cf1f6987fc4,2021-11-01_13h52.36.282,forced_choiceRT_color,2021.2.3,Win32,60.18295619,,,,,,,,1,Slow,long,j,1,2.988,3,2,14,2,1,,,,,
,1.02,,,,,,,,,k,purple,6096a175a2933cf1f6987fc4,2021-11-01_13h52.36.282,forced_choiceRT_color,2021.2.3,Win32,60.18295619,,,,,,,,1,Ontime,long,k,1,2.0824,3,3,15,3,1,,,,,
,0.68,,,,,,,,,j,red,6096a175a2933cf1f6987fc4,2021-11-01_13h52.36.282,forced_choiceRT_color,2021.2.3,Win32,60.18295619,,,,,,,,1,Ontime,long,j,1,1.962,4,0,16,2,1,,,,,
,0.22,,,,,,,,,f,blue,6096a175a2933cf1f6987fc4,2021-11-01_13h52.36.282,forced_choiceRT_color,2021.2.3,Win32,60.18295619,,,,,,,,1,Ontime,long,f,1,1.964,4,1,17,1,1,,,,,
,1.64,,,,,,,,,f,blue,6096a175a2933cf1f6987fc4,2021-11-01_13h52.36.282,forced_choiceRT_color,2021.2.3,Win32,60.18295619,,,,,,,,1,Slow,long,f,1,2.2823,4,2,18,1,1,,,,,
,0.48,,,,,,,,,j,red,6096a175a2933cf1f6987fc4,2021-11-01_13h52.36.282,forced_choiceRT_color,2021.2.3,Win32,60.18295619,,,,,,,,1,Ontime,long,j,1,2.0218,4,3,19,2,1,,,,,
,1.05,,,,,,,,,d,orange,6096a175a2933cf1f6987fc4,2021-11-01_13h52.36.282,forced_choiceRT_color,2021.2.3,Win32,60.18295619,,,,,,,,1,Ontime,long,d,1,1.9663,5,0,20,0,1,,,,,
,1.94,,,,,,,,,f,blue,6096a175a2933cf1f6987fc4,2021-11-01_13h52.36.282,forced_choiceRT_color,2021.2.3,Win32,60.18295619,,,,,,,,1,Slow,long,j,0,2.3924,5,1,21,1,1,,,,,
,0.61,,,,,,,,,d,orange,6096a175a2933cf1f6987fc4,2021-11-01_13h52.36.282,forced_choiceRT_color,2021.2.3,Win32,60.18295619,,,,,,,,1,Ontime,long,d,1,2.01,5,2,22,0,1,,,,,
,1.49,,,,,,,,,d,orange,6096a175a2933cf1f6987fc4,2021-11-01_13h52.36.282,forced_choiceRT_color,2021.2.3,Win32,60.18295619,,,,,,,,1,Ontime,long,d,1,2.0528,5,3,23,0,1,,,,,
,1.27,,,,,,,,,f,blue,6096a175a2933cf1f6987fc4,2021-11-01_13h52.36.282,forced_choiceRT_color,2021.2.3,Win32,60.18295619,,,,,,,,1,Ontime,long,d,0,1.927,6,0,24,1,1,,,,,
,0.62,,,,,,,,,j,red,6096a175a2933cf1f6987fc4,2021-11-01_13h52.36.282,forced_choiceRT_color,2021.2.3,Win32,60.18295619,,,,,,,,1,Fast,long,j,1,1.7854,6,1,25,2,1,,,,,
,0.78,,,,,,,,,k,purple,6096a175a2933cf1f6987fc4,2021-11-01_13h52.36.282,forced_choiceRT_color,2021.2.3,Win32,60.18295619,,,,,,,,1,Slow,long,k,1,2.1643,6,2,26,3,1,,,,,
,1.86,,,,,,,,,j,red,6096a175a2933cf1f6987fc4,2021-11-01_13h52.36.282,forced_choiceRT_color,2021.2.3,Win32,60.18295619,,,,,,,,1,Slow,long,j,1,2.2821,6,3,27,2,1,,,,,
,0.4,,,,,,,,,k,purple,6096a175a2933cf1f6987fc4,2021-11-01_13h52.36.282,forced_choiceRT_color,2021.2.3,Win32,60.18295619,,,,,,,,1,Ontime,long,k,1,2.0694,7,0,28,3,1,,,,,
,0.61,,,,,,,,,k,purple,6096a175a2933cf1f6987fc4,2021-11-01_13h52.36.282,forced_choiceRT_color,2021.2.3,Win32,60.18295619,,,,,,,,1,Ontime,long,k,1,2.0889,7,1,29,3,1,,,,,
,0.41,,,,,,,,,d,orange,6096a175a2933cf1f6987fc4,2021-11-01_13h52.36.282,forced_choiceRT_color,2021.2.3,Win32,60.18295619,,,,,,,,1,Ontime,long,d,1,2.0407,7,2,30,0,1,,,,,
,1.53,,,,,,,,,f,blue,6096a175a2933cf1f6987fc4,2021-11-01_13h52.36.282,forced_choiceRT_color,2021.2.3,Win32,60.18295619,,,,,,,,1,Ontime,long,f,1,1.9233,7,3,31,1,1,,,,,
,0.24,,,,,,,,,d,orange,6096a175a2933cf1f6987fc4,2021-11-01_13h52.36.282,forced_choiceRT_color,2021.2.3,Win32,60.18295619,,,,,,,,1,Fast,long,d,1,1.8881,8,0,32,0,1,,,,,
,1.58,,,,,,,,,k,purple,6096a175a2933cf1f6987fc4,2021-11-01_13h52.36.282,forced_choiceRT_color,2021.2.3,Win32,60.18295619,,,,,,,,1,Slow,long,k,1,2.3125,8,1,33,3,1,,,,,
,0.49,,,,,,,,,k,purple,6096a175a2933cf1f6987fc4,2021-11-01_13h52.36.282,forced_choiceRT_color,2021.2.3,Win32,60.18295619,,,,,,,,1,Ontime,long,k,1,2.0402,8,2,34,3,1,,,,,
,0.79,,,,,,,,,f,blue,6096a175a2933cf1f6987fc4,2021-11-01_13h52.36.282,forced_choiceRT_color,2021.2.3,Win32,60.18295619,,,,,,,,1,Fast,long,f,1,1.8517,8,3,35,1,1,,,,,
,0.44,,,,,,,,,j,red,6096a175a2933cf1f6987fc4,2021-11-01_13h52.36.282,forced_choiceRT_color,2021.2.3,Win32,60.18295619,,,,,,,,1,Ontime,long,f,0,1.9345,9,0,36,2,1,,,,,
,1.81,,,,,,,,,k,purple,6096a175a2933cf1f6987fc4,2021-11-01_13h52.36.282,forced_choiceRT_color,2021.2.3,Win32,60.18295619,,,,,,,,1,Slow,long,k,1,2.2469,9,1,37,3,1,,,,,
,0.49,,,,,,,,,j,red,6096a175a2933cf1f6987fc4,2021-11-01_13h52.36.282,forced_choiceRT_color,2021.2.3,Win32,60.18295619,,,,,,,,1,Ontime,long,f,0,2.0191,9,2,38,2,1,,,,,
,0.43,,,,,,,,,d,orange,6096a175a2933cf1f6987fc4,2021-11-01_13h52.36.282,forced_choiceRT_color,2021.2.3,Win32,60.18295619,,,,,,,,1,Slow,long,d,1,2.1106,9,3,39,0,1,,,,,
,,,,,,,,,,,,6096a175a2933cf1f6987fc4,2021-11-01_13h52.36.282,forced_choiceRT_color,2021.2.3,Win32,60.18295619,,,,,,,,,,,,,,,,,,,0,0,0,0,1
,0.7,,,,,,,,,f,blue,6096a175a2933cf1f6987fc4,2021-11-01_13h52.36.282,forced_choiceRT_color,2021.2.3,Win32,60.18295619,,,,,,,,2,Slow,long,f,1,2.1392,0,0,0,1,1,,,,,
,1.48,,,,,,,,,f,blue,6096a175a2933cf1f6987fc4,2021-11-01_13h52.36.282,forced_choiceRT_color,2021.2.3,Win32,60.18295619,,,,,,,,2,Ontime,long,f,1,1.9776,0,1,1,1,1,,,,,
,0.67,,,,,,,,,k,purple,6096a175a2933cf1f6987fc4,2021-11-01_13h52.36.282,forced_choiceRT_color,2021.2.3,Win32,60.18295619,,,,,,,,2,Fast,long,k,1,1.2446,0,2,2,3,1,,,,,
,0.51,,,,,,,,,f,blue,6096a175a2933cf1f6987fc4,2021-11-01_13h52.36.282,forced_choiceRT_color,2021.2.3,Win32,60.18295619,,,,,,,,2,Slow,long,f,1,2.1105,0,3,3,1,1,,,,,
,0.93,,,,,,,,,f,blue,6096a175a2933cf1f6987fc4,2021-11-01_13h52.36.282,forced_choiceRT_color,2021.2.3,Win32,60.18295619,,,,,,,,2,Ontime,long,f,1,1.984,1,0,4,1,1,,,,,
,1.76,,,,,,,,,k,purple,6096a175a2933cf1f6987fc4,2021-11-01_13h52.36.282,forced_choiceRT_color,2021.2.3,Win32,60.18295619,,,,,,,,2,Ontime,long,f,0,2.0941,1,1,5,3,1,,,,,
,0.46,,,,,,,,,f,blue,6096a175a2933cf1f6987fc4,2021-11-01_13h52.36.282,forced_choiceRT_color,2021.2.3,Win32,60.18295619,,,,,,,,2,Ontime,long,f,1,1.9929,1,2,6,1,1,,,,,
,0.25,,,,,,,,,j,red,6096a175a2933cf1f6987fc4,2021-11-01_13h52.36.282,forced_choiceRT_color,2021.2.3,Win32,60.18295619,,,,,,,,2,Ontime,long,j,1,2.0082,1,3,7,2,1,,,,,
,1.96,,,,,,,,,k,purple,6096a175a2933cf1f6987fc4,2021-11-01_13h52.36.282,forced_choiceRT_color,2021.2.3,Win32,60.18295619,,,,,,,,2,Slow,long,k,1,2.554,2,0,8,3,1,,,,,
,1.99,,,,,,,,,d,orange,6096a175a2933cf1f6987fc4,2021-11-01_13h52.36.282,forced_choiceRT_color,2021.2.3,Win32,60.18295619,,,,,,,,2,Slow,long,f,0,2.5109,2,1,9,0,1,,,,,
,0.79,,,,,,,,,k,purple,6096a175a2933cf1f6987fc4,2021-11-01_13h52.36.282,forced_choiceRT_color,2021.2.3,Win32,60.18295619,,,,,,,,2,Ontime,long,k,1,2.0669,2,2,10,3,1,,,,,
,0.78,,,,,,,,,j,red,6096a175a2933cf1f6987fc4,2021-11-01_13h52.36.282,forced_choiceRT_color,2021.2.3,Win32,60.18295619,,,,,,,,2,Slow,long,j,1,2.1419,2,3,11,2,1,,,,,
,0.55,,,,,,,,,d,orange,6096a175a2933cf1f6987fc4,2021-11-01_13h52.36.282,forced_choiceRT_color,2021.2.3,Win32,60.18295619,,,,,,,,2,Slow,long,d,1,2.1615,3,0,12,0,1,,,,,
,0.09,,,,,,,,,j,red,6096a175a2933cf1f6987fc4,2021-11-01_13h52.36.282,forced_choiceRT_color,2021.2.3,Win32,60.18295619,,,,,,,,2,Fast,long,j,1,1.7543,3,1,13,2,1,,,,,
,0.12,,,,,,,,,k,purple,6096a175a2933cf1f6987fc4,2021-11-01_13h52.36.282,forced_choiceRT_color,2021.2.3,Win32,60.18295619,,,,,,,,2,Ontime,long,k,1,1.9958,3,2,14,3,1,,,,,
,1.58,,,,,,,,,d,orange,6096a175a2933cf1f6987fc4,2021-11-01_13h52.36.282,forced_choiceRT_color,2021.2.3,Win32,60.18295619,,,,,,,,2,Slow,long,d,1,2.1182,3,3,15,0,1,,,,,
,0.8,,,,,,,,,d,orange,6096a175a2933cf1f6987fc4,2021-11-01_13h52.36.282,forced_choiceRT_color,2021.2.3,Win32,60.18295619,,,,,,,,2,Ontime,long,d,1,2.0555,4,0,16,0,1,,,,,
,1.15,,,,,,,,,k,purple,6096a175a2933cf1f6987fc4,2021-11-01_13h52.36.282,forced_choiceRT_color,2021.2.3,Win32,60.18295619,,,,,,,,2,Ontime,long,k,1,2.0193,4,1,17,3,1,,,,,
,1.73,,,,,,,,,k,purple,6096a175a2933cf1f6987fc4,2021-11-01_13h52.36.282,forced_choiceRT_color,2021.2.3,Win32,60.18295619,,,,,,,,2,Slow,long,k,1,2.2623,4,2,18,3,1,,,,,
,1.96,,,,,,,,,d,orange,6096a175a2933cf1f6987fc4,2021-11-01_13h52.36.282,forced_choiceRT_color,2021.2.3,Win32,60.18295619,,,,,,,,2,Slow,long,d,1,2.3686,4,3,19,0,1,,,,,
,0.4,,,,,,,,,f,blue,6096a175a2933cf1f6987fc4,2021-11-01_13h52.36.282,forced_choiceRT_color,2021.2.3,Win32,60.18295619,,,,,,,,2,Slow,long,f,1,2.1788,5,0,20,1,1,,,,,
,0.4,,,,,,,,,k,purple,6096a175a2933cf1f6987fc4,2021-11-01_13h52.36.282,forced_choiceRT_color,2021.2.3,Win32,60.18295619,,,,,,,,2,Ontime,long,k,1,2.0442,5,1,21,3,1,,,,,
,1.13,,,,,,,,,f,blue,6096a175a2933cf1f6987fc4,2021-11-01_13h52.36.282,forced_choiceRT_color,2021.2.3,Win32,60.18295619,,,,,,,,2,Ontime,long,f,1,1.9634,5,2,22,1,1,,,,,
,1.49,,,,,,,,,j,red,6096a175a2933cf1f6987fc4,2021-11-01_13h52.36.282,forced_choiceRT_color,2021.2.3,Win32,60.18295619,,,,,,,,2,Ontime,long,k,0,1.9999,5,3,23,2,1,,,,,
,0.33,,,,,,,,,j,red,6096a175a2933cf1f6987fc4,2021-11-01_13h52.36.282,forced_choiceRT_color,2021.2.3,Win32,60.18295619,,,,,,,,2,Ontime,long,j,1,2.0686,6,0,24,2,1,,,,,
,1.32,,,,,,,,,d,orange,6096a175a2933cf1f6987fc4,2021-11-01_13h52.36.282,forced_choiceRT_color,2021.2.3,Win32,60.18295619,,,,,,,,2,Ontime,long,d,1,2.0747,6,1,25,0,1,,,,,
,1.97,,,,,,,,,j,red,6096a175a2933cf1f6987fc4,2021-11-01_13h52.36.282,forced_choiceRT_color,2021.2.3,Win32,60.18295619,,,,,,,,2,Slow,long,j,1,2.4146,6,2,26,2,1,,,,,
,0.38,,,,,,,,,j,red,6096a175a2933cf1f6987fc4,2021-11-01_13h52.36.282,forced_choiceRT_color,2021.2.3,Win32,60.18295619,,,,,,,,2,Slow,long,j,1,2.1184,6,3,27,2,1,,,,,
,0.51,,,,,,,,,d,orange,6096a175a2933cf1f6987fc4,2021-11-01_13h52.36.282,forced_choiceRT_color,2021.2.3,Win32,60.18295619,,,,,,,,2,Ontime,long,d,1,2.0859,7,0,28,0,1,,,,,
,1.98,,,,,,,,,d,orange,6096a175a2933cf1f6987fc4,2021-11-01_13h52.36.282,forced_choiceRT_color,2021.2.3,Win32,60.18295619,,,,,,,,2,Slow,long,j,0,2.466,7,1,29,0,1,,,,,
,0.7,,,,,,,,,j,red,6096a175a2933cf1f6987fc4,2021-11-01_13h52.36.282,forced_choiceRT_color,2021.2.3,Win32,60.18295619,,,,,,,,2,Ontime,long,j,1,2.0972,7,2,30,2,1,,,,,
,0.66,,,,,,,,,d,orange,6096a175a2933cf1f6987fc4,2021-11-01_13h52.36.282,forced_choiceRT_color,2021.2.3,Win32,60.18295619,,,,,,,,2,Ontime,long,d,1,1.9685,7,3,31,0,1,,,,,
,1.28,,,,,,,,,j,red,6096a175a2933cf1f6987fc4,2021-11-01_13h52.36.282,forced_choiceRT_color,2021.2.3,Win32,60.18295619,,,,,,,,2,Ontime,long,j,1,2.0597,8,0,32,2,1,,,,,
,0.33,,,,,,,,,k,purple,6096a175a2933cf1f6987fc4,2021-11-01_13h52.36.282,forced_choiceRT_color,2021.2.3,Win32,60.18295619,,,,,,,,2,Ontime,long,k,1,2.0758,8,1,33,3,1,,,,,
,0.5,,,,,,,,,f,blue,6096a175a2933cf1f6987fc4,2021-11-01_13h52.36.282,forced_choiceRT_color,2021.2.3,Win32,60.18295619,,,,,,,,2,Ontime,long,f,1,2.051,8,2,34,1,1,,,,,
,0.43,,,,,,,,,j,red,6096a175a2933cf1f6987fc4,2021-11-01_13h52.36.282,forced_choiceRT_color,2021.2.3,Win32,60.18295619,,,,,,,,2,Slow,long,j,1,2.1435,8,3,35,2,1,,,,,
,1.43,,,,,,,,,f,blue,6096a175a2933cf1f6987fc4,2021-11-01_13h52.36.282,forced_choiceRT_color,2021.2.3,Win32,60.18295619,,,,,,,,2,Slow,long,f,1,2.1452,9,0,36,1,1,,,,,
,1.98,,,,,,,,,f,blue,6096a175a2933cf1f6987fc4,2021-11-01_13h52.36.282,forced_choiceRT_color,2021.2.3,Win32,60.18295619,,,,,,,,2,Slow,long,f,1,2.3196,9,1,37,1,1,,,,,
,1.93,,,,,,,,,k,purple,6096a175a2933cf1f6987fc4,2021-11-01_13h52.36.282,forced_choiceRT_color,2021.2.3,Win32,60.18295619,,,,,,,,2,Ontime,long,k,1,1.9922,9,2,38,3,1,,,,,
,0.93,,,,,,,,,d,orange,6096a175a2933cf1f6987fc4,2021-11-01_13h52.36.282,forced_choiceRT_color,2021.2.3,Win32,60.18295619,,,,,,,,2,Ontime,long,d,1,1.9589,9,3,39,0,1,,,,,
,,,,,,,,,,,,6096a175a2933cf1f6987fc4,2021-11-01_13h52.36.282,forced_choiceRT_color,2021.2.3,Win32,60.18295619,,,,,,,,,,,,,,,,,,,1,0,1,0,1
,0.68,,,,,,,,,j,red,6096a175a2933cf1f6987fc4,2021-11-01_13h52.36.282,forced_choiceRT_color,2021.2.3,Win32,60.18295619,,,,,,,,3,Ontime,long,j,1,2.099,0,0,0,2,1,,,,,
,0.63,,,,,,,,,k,purple,6096a175a2933cf1f6987fc4,2021-11-01_13h52.36.282,forced_choiceRT_color,2021.2.3,Win32,60.18295619,,,,,,,,3,Ontime,long,k,1,2.0889,0,1,1,3,1,,,,,
,1.22,,,,,,,,,d,orange,6096a175a2933cf1f6987fc4,2021-11-01_13h52.36.282,forced_choiceRT_color,2021.2.3,Win32,60.18295619,,,,,,,,3,Ontime,long,d,1,2.0276,0,2,2,0,1,,,,,
,0.9,,,,,,,,,d,orange,6096a175a2933cf1f6987fc4,2021-11-01_13h52.36.282,forced_choiceRT_color,2021.2.3,Win32,60.18295619,,,,,,,,3,Ontime,long,d,1,1.9118,0,3,3,0,1,,,,,
,0.79,,,,,,,,,f,blue,6096a175a2933cf1f6987fc4,2021-11-01_13h52.36.282,forced_choiceRT_color,2021.2.3,Win32,60.18295619,,,,,,,,3,Fast,long,f,1,1.756,1,0,4,1,1,,,,,
,1.39,,,,,,,,,d,orange,6096a175a2933cf1f6987fc4,2021-11-01_13h52.36.282,forced_choiceRT_color,2021.2.3,Win32,60.18295619,,,,,,,,3,Ontime,long,d,1,2.0543,1,1,5,0,1,,,,,
,0.08,,,,,,,,,d,orange,6096a175a2933cf1f6987fc4,2021-11-01_13h52.36.282,forced_choiceRT_color,2021.2.3,Win32,60.18295619,,,,,,,,3,Slow,long,d,1,2.1094,1,2,6,0,1,,,,,
,0.68,,,,,,,,,j,red,6096a175a2933cf1f6987fc4,2021-11-01_13h52.36.282,forced_choiceRT_color,2021.2.3,Win32,60.18295619,,,,,,,,3,Slow,long,j,1,2.1371,1,3,7,2,1,,,,,
,0.46,,,,,,,,,k,purple,6096a175a2933cf1f6987fc4,2021-11-01_13h52.36.282,forced_choiceRT_color,2021.2.3,Win32,60.18295619,,,,,,,,3,Ontime,long,k,1,2.0504,2,0,8,3,1,,,,,
,0.09,,,,,,,,,f,blue,6096a175a2933cf1f6987fc4,2021-11-01_13h52.36.282,forced_choiceRT_color,2021.2.3,Win32,60.18295619,,,,,,,,3,Ontime,long,f,1,2.0191,2,1,9,1,1,,,,,
,1.96,,,,,,,,,k,purple,6096a175a2933cf1f6987fc4,2021-11-01_13h52.36.282,forced_choiceRT_color,2021.2.3,Win32,60.18295619,,,,,,,,3,Slow,long,d,0,2.2268,2,2,10,3,1,,,,,
,0.66,,,,,,,,,j,red,6096a175a2933cf1f6987fc4,2021-11-01_13h52.36.282,forced_choiceRT_color,2021.2.3,Win32,60.18295619,,,,,,,,3,Ontime,long,j,1,2.0799,2,3,11,2,1,,,,,
,1.71,,,,,,,,,k,purple,6096a175a2933cf1f6987fc4,2021-11-01_13h52.36.282,forced_choiceRT_color,2021.2.3,Win32,60.18295619,,,,,,,,3,Slow,long,k,1,2.2238,3,0,12,3,1,,,,,
,1.74,,,,,,,,,j,red,6096a175a2933cf1f6987fc4,2021-11-01_13h52.36.282,forced_choiceRT_color,2021.2.3,Win32,60.18295619,,,,,,,,3,Ontime,long,f,0,2.0782,3,1,13,2,1,,,,,
,0.24,,,,,,,,,k,purple,6096a175a2933cf1f6987fc4,2021-11-01_13h52.36.282,forced_choiceRT_color,2021.2.3,Win32,60.18295619,,,,,,,,3,Ontime,long,k,1,2.0538,3,2,14,3,1,,,,,
,0.55,,,,,,,,,j,red,6096a175a2933cf1f6987fc4,2021-11-01_13h52.36.282,forced_choiceRT_color,2021.2.3,Win32,60.18295619,,,,,,,,3,Slow,long,j,1,2.1276,3,3,15,2,1,,,,,
,0.73,,,,,,,,,j,red,6096a175a2933cf1f6987fc4,2021-11-01_13h52.36.282,forced_choiceRT_color,2021.2.3,Win32,60.18295619,,,,,,,,3,Ontime,long,j,1,2.0104,4,0,16,2,1,,,,,
,1.48,,,,,,,,,k,purple,6096a175a2933cf1f6987fc4,2021-11-01_13h52.36.282,forced_choiceRT_color,2021.2.3,Win32,60.18295619,,,,,,,,3,Ontime,long,k,1,2.0456,4,1,17,3,1,,,,,
,1.24,,,,,,,,,f,blue,6096a175a2933cf1f6987fc4,2021-11-01_13h52.36.282,forced_choiceRT_color,2021.2.3,Win32,60.18295619,,,,,,,,3,Ontime,long,f,1,2.0467,4,2,18,1,1,,,,,
,0.39,,,,,,,,,j,red,6096a175a2933cf1f6987fc4,2021-11-01_13h52.36.282,forced_choiceRT_color,2021.2.3,Win32,60.18295619,,,,,,,,3,Ontime,long,j,1,1.9523,4,3,19,2,1,,,,,
,1,,,,,,,,,d,orange,6096a175a2933cf1f6987fc4,2021-11-01_13h52.36.282,forced_choiceRT_color,2021.2.3,Win32,60.18295619,,,,,,,,3,Slow,long,d,1,2.1096,5,0,20,0,1,,,,,
,0.62,,,,,,,,,d,orange,6096a175a2933cf1f6987fc4,2021-11-01_13h52.36.282,forced_choiceRT_color,2021.2.3,Win32,60.18295619,,,,,,,,3,Ontime,long,d,1,2.0792,5,1,21,0,1,,,,,
,1.07,,,,,,,,,f,blue,6096a175a2933cf1f6987fc4,2021-11-01_13h52.36.282,forced_choiceRT_color,2021.2.3,Win32,60.18295619,,,,,,,,3,Slow,long,j,0,2.1036,5,2,22,1,1,,,,,
,0.12,,,,,,,,,d,orange,6096a175a2933cf1f6987fc4,2021-11-01_13h52.36.282,forced_choiceRT_color,2021.2.3,Win32,60.18295619,,,,,,,,3,Ontime,long,d,1,1.9492,5,3,23,0,1,,,,,
,1.71,,,,,,,,,d,orange,6096a175a2933cf1f6987fc4,2021-11-01_13h52.36.282,forced_choiceRT_color,2021.2.3,Win32,60.18295619,,,,,,,,3,Ontime,long,f,0,2.0697,6,0,24,0,1,,,,,
,0.68,,,,,,,,,k,purple,6096a175a2933cf1f6987fc4,2021-11-01_13h52.36.282,forced_choiceRT_color,2021.2.3,Win32,60.18295619,,,,,,,,3,Slow,long,k,1,2.1287,6,1,25,3,1,,,,,
,1.37,,,,,,,,,f,blue,6096a175a2933cf1f6987fc4,2021-11-01_13h52.36.282,forced_choiceRT_color,2021.2.3,Win32,60.18295619,,,,,,,,3,Slow,long,f,1,2.222,6,2,26,1,1,,,,,
,0.89,,,,,,,,,k,purple,6096a175a2933cf1f6987fc4,2021-11-01_13h52.36.282,forced_choiceRT_color,2021.2.3,Win32,60.18295619,,,,,,,,3,Ontime,long,k,1,1.9322,6,3,27,3,1,,,,,
,0.17,,,,,,,,,d,orange,6096a175a2933cf1f6987fc4,2021-11-01_13h52.36.282,forced_choiceRT_color,2021.2.3,Win32,60.18295619,,,,,,,,3,Ontime,long,d,1,1.9293,7,0,28,0,1,,,,,
,1.95,,,,,,,,,j,red,6096a175a2933cf1f6987fc4,2021-11-01_13h52.36.282,forced_choiceRT_color,2021.2.3,Win32,60.18295619,,,,,,,,3,Ontime,long,f,0,2.0482,7,1,29,2,1,,,,,
,1.39,,,,,,,,,j,red,6096a175a2933cf1f6987fc4,2021-11-01_13h52.36.282,forced_choiceRT_color,2021.2.3,Win32,60.18295619,,,,,,,,3,Ontime,long,f,0,2.0832,7,2,30,2,1,,,,,
,0.45,,,,,,,,,f,blue,6096a175a2933cf1f6987fc4,2021-11-01_13h52.36.282,forced_choiceRT_color,2021.2.3,Win32,60.18295619,,,,,,,,3,Ontime,long,f,1,1.9669,7,3,31,1,1,,,,,
,0.42,,,,,,,,,f,blue,6096a175a2933cf1f6987fc4,2021-11-01_13h52.36.282,forced_choiceRT_color,2021.2.3,Win32,60.18295619,,,,,,,,3,Ontime,long,f,1,2.0273,8,0,32,1,1,,,,,
,0.84,,,,,,,,,k,purple,6096a175a2933cf1f6987fc4,2021-11-01_13h52.36.282,forced_choiceRT_color,2021.2.3,Win32,60.18295619,,,,,,,,3,Ontime,long,k,1,1.9412,8,1,33,3,1,,,,,
,1.09,,,,,,,,,f,blue,6096a175a2933cf1f6987fc4,2021-11-01_13h52.36.282,forced_choiceRT_color,2021.2.3,Win32,60.18295619,,,,,,,,3,Ontime,long,f,1,1.977,8,2,34,1,1,,,,,
,1.35,,,,,,,,,f,blue,6096a175a2933cf1f6987fc4,2021-11-01_13h52.36.282,forced_choiceRT_color,2021.2.3,Win32,60.18295619,,,,,,,,3,Fast,long,f,1,1.8853,8,3,35,1,1,,,,,
,0.33,,,,,,,,,d,orange,6096a175a2933cf1f6987fc4,2021-11-01_13h52.36.282,forced_choiceRT_color,2021.2.3,Win32,60.18295619,,,,,,,,3,Ontime,long,d,1,1.9998,9,0,36,0,1,,,,,
,1.92,,,,,,,,,k,purple,6096a175a2933cf1f6987fc4,2021-11-01_13h52.36.282,forced_choiceRT_color,2021.2.3,Win32,60.18295619,,,,,,,,3,Ontime,long,f,0,1.9967,9,1,37,3,1,,,,,
,0.08,,,,,,,,,f,blue,6096a175a2933cf1f6987fc4,2021-11-01_13h52.36.282,forced_choiceRT_color,2021.2.3,Win32,60.18295619,,,,,,,,3,Ontime,long,f,1,1.9605,9,2,38,1,1,,,,,
,0.39,,,,,,,,,j,red,6096a175a2933cf1f6987fc4,2021-11-01_13h52.36.282,forced_choiceRT_color,2021.2.3,Win32,60.18295619,,,,,,,,3,Fast,long,j,1,1.5845,9,3,39,2,1,,,,,
,,,,,,,,,,,,6096a175a2933cf1f6987fc4,2021-11-01_13h52.36.282,forced_choiceRT_color,2021.2.3,Win32,60.18295619,,,,,,,,,,,,,,,,,,,2,0,2,0,1
,1.86,,,,,,,,,d,orange,6096a175a2933cf1f6987fc4,2021-11-01_13h52.36.282,forced_choiceRT_color,2021.2.3,Win32,60.18295619,,,,,,,,4,Slow,long,f,0,2.3634,0,0,0,0,1,,,,,
,1.05,,,,,,,,,f,blue,6096a175a2933cf1f6987fc4,2021-11-01_13h52.36.282,forced_choiceRT_color,2021.2.3,Win32,60.18295619,,,,,,,,4,Slow,long,f,1,2.2266,0,1,1,1,1,,,,,
,1.94,,,,,,,,,k,purple,6096a175a2933cf1f6987fc4,2021-11-01_13h52.36.282,forced_choiceRT_color,2021.2.3,Win32,60.18295619,,,,,,,,4,Ontime,long,d,0,2.0475,0,2,2,3,1,,,,,
,1.08,,,,,,,,,d,orange,6096a175a2933cf1f6987fc4,2021-11-01_13h52.36.282,forced_choiceRT_color,2021.2.3,Win32,60.18295619,,,,,,,,4,Ontime,long,d,1,2.0775,0,3,3,0,1,,,,,
,0.37,,,,,,,,,k,purple,6096a175a2933cf1f6987fc4,2021-11-01_13h52.36.282,forced_choiceRT_color,2021.2.3,Win32,60.18295619,,,,,,,,4,Ontime,long,k,1,2.0249,1,0,4,3,1,,,,,
,0.85,,,,,,,,,j,red,6096a175a2933cf1f6987fc4,2021-11-01_13h52.36.282,forced_choiceRT_color,2021.2.3,Win32,60.18295619,,,,,,,,4,Ontime,long,f,0,2.0133,1,1,5,2,1,,,,,
,1.26,,,,,,,,,k,purple,6096a175a2933cf1f6987fc4,2021-11-01_13h52.36.282,forced_choiceRT_color,2021.2.3,Win32,60.18295619,,,,,,,,4,Slow,long,k,1,2.1189,1,2,6,3,1,,,,,
,1.88,,,,,,,,,k,purple,6096a175a2933cf1f6987fc4,2021-11-01_13h52.36.282,forced_choiceRT_color,2021.2.3,Win32,60.18295619,,,,,,,,4,Slow,long,j,0,2.1268,1,3,7,3,1,,,,,
,0.35,,,,,,,,,f,blue,6096a175a2933cf1f6987fc4,2021-11-01_13h52.36.282,forced_choiceRT_color,2021.2.3,Win32,60.18295619,,,,,,,,4,Ontime,long,f,1,2.0434,2,0,8,1,1,,,,,
,1.84,,,,,,,,,j,red,6096a175a2933cf1f6987fc4,2021-11-01_13h52.36.282,forced_choiceRT_color,2021.2.3,Win32,60.18295619,,,,,,,,4,Ontime,long,k,0,1.9659,2,1,9,2,1,,,,,
,1.96,,,,,,,,,d,orange,6096a175a2933cf1f6987fc4,2021-11-01_13h52.36.282,forced_choiceRT_color,2021.2.3,Win32,60.18295619,,,,,,,,4,Slow,long,d,1,2.1309,2,2,10,0,1,,,,,
,0.8,,,,,,,,,j,red,6096a175a2933cf1f6987fc4,2021-11-01_13h52.36.282,forced_choiceRT_color,2021.2.3,Win32,60.18295619,,,,,,,,4,Slow,long,f,0,2.1782,2,3,11,2,1,,,,,
,0.41,,,,,,,,,j,red,6096a175a2933cf1f6987fc4,2021-11-01_13h52.36.282,forced_choiceRT_color,2021.2.3,Win32,60.18295619,,,,,,,,4,Ontime,long,j,1,2.0125,3,0,12,2,1,,,,,
,0,,,,,,,,,f,blue,6096a175a2933cf1f6987fc4,2021-11-01_13h52.36.282,forced_choiceRT_color,2021.2.3,Win32,60.18295619,,,,,,,,4,Fast,long,f,1,1.8789,3,1,13,1,1,,,,,
,0.19,,,,,,,,,k,purple,6096a175a2933cf1f6987fc4,2021-11-01_13h52.36.282,forced_choiceRT_color,2021.2.3,Win32,60.18295619,,,,,,,,4,Slow,long,k,1,2.1185,3,2,14,3,1,,,,,
,1.53,,,,,,,,,d,orange,6096a175a2933cf1f6987fc4,2021-11-01_13h52.36.282,forced_choiceRT_color,2021.2.3,Win32,60.18295619,,,,,,,,4,Ontime,long,d,1,1.9433,3,3,15,0,1,,,,,
,0.58,,,,,,,,,d,orange,6096a175a2933cf1f6987fc4,2021-11-01_13h52.36.282,forced_choiceRT_color,2021.2.3,Win32,60.18295619,,,,,,,,4,Ontime,long,d,1,1.9904,4,0,16,0,1,,,,,
,0.81,,,,,,,,,d,orange,6096a175a2933cf1f6987fc4,2021-11-01_13h52.36.282,forced_choiceRT_color,2021.2.3,Win32,60.18295619,,,,,,,,4,Ontime,long,d,1,2.0635,4,1,17,0,1,,,,,
,1.94,,,,,,,,,j,red,6096a175a2933cf1f6987fc4,2021-11-01_13h52.36.282,forced_choiceRT_color,2021.2.3,Win32,60.18295619,,,,,,,,4,Slow,long,d,0,2.1702,4,2,18,2,1,,,,,
,1.67,,,,,,,,,k,purple,6096a175a2933cf1f6987fc4,2021-11-01_13h52.36.282,forced_choiceRT_color,2021.2.3,Win32,60.18295619,,,,,,,,4,Slow,long,k,1,2.234,4,3,19,3,1,,,,,
,0.46,,,,,,,,,f,blue,6096a175a2933cf1f6987fc4,2021-11-01_13h52.36.282,forced_choiceRT_color,2021.2.3,Win32,60.18295619,,,,,,,,4,Fast,long,f,1,1.725,5,0,20,1,1,,,,,
,0.6,,,,,,,,,k,purple,6096a175a2933cf1f6987fc4,2021-11-01_13h52.36.282,forced_choiceRT_color,2021.2.3,Win32,60.18295619,,,,,,,,4,Ontime,long,k,1,2.0935,5,1,21,3,1,,,,,
,0.25,,,,,,,,,j,red,6096a175a2933cf1f6987fc4,2021-11-01_13h52.36.282,forced_choiceRT_color,2021.2.3,Win32,60.18295619,,,,,,,,4,Ontime,long,j,1,2.0365,5,2,22,2,1,,,,,
,1.57,,,,,,,,,j,red,6096a175a2933cf1f6987fc4,2021-11-01_13h52.36.282,forced_choiceRT_color,2021.2.3,Win32,60.18295619,,,,,,,,4,Slow,long,j,1,2.149,5,3,23,2,1,,,,,
,0.1,,,,,,,,,k,purple,6096a175a2933cf1f6987fc4,2021-11-01_13h52.36.282,forced_choiceRT_color,2021.2.3,Win32,60.18295619,,,,,,,,4,Slow,long,k,1,2.1203,6,0,24,3,1,,,,,
,0.28,,,,,,,,,d,orange,6096a175a2933cf1f6987fc4,2021-11-01_13h52.36.282,forced_choiceRT_color,2021.2.3,Win32,60.18295619,,,,,,,,4,Ontime,long,d,1,2.0105,6,1,25,0,1,,,,,
,1.47,,,,,,,,,k,purple,6096a175a2933cf1f6987fc4,2021-11-01_13h52.36.282,forced_choiceRT_color,2021.2.3,Win32,60.18295619,,,,,,,,4,Slow,long,k,1,2.1244,6,2,26,3,1,,,,,
,0.21,,,,,,,,,f,blue,6096a175a2933cf1f6987fc4,2021-11-01_13h52.36.282,forced_choiceRT_color,2021.2.3,Win32,60.18295619,,,,,,,,4,Ontime,long,f,1,1.9034,6,3,27,1,1,,,,,
,1.07,,,,,,,,,f,blue,6096a175a2933cf1f6987fc4,2021-11-01_13h52.36.282,forced_choiceRT_color,2021.2.3,Win32,60.18295619,,,,,,,,4,Ontime,long,f,1,1.9982,7,0,28,1,1,,,,,
,1.17,,,,,,,,,d,orange,6096a175a2933cf1f6987fc4,2021-11-01_13h52.36.282,forced_choiceRT_color,2021.2.3,Win32,60.18295619,,,,,,,,4,Ontime,long,d,1,1.978,7,1,29,0,1,,,,,
,1.95,,,,,,,,,f,blue,6096a175a2933cf1f6987fc4,2021-11-01_13h52.36.282,forced_choiceRT_color,2021.2.3,Win32,60.18295619,,,,,,,,4,Slow,long,d,0,2.2762,7,2,30,1,1,,,,,
,0.97,,,,,,,,,d,orange,6096a175a2933cf1f6987fc4,2021-11-01_13h52.36.282,forced_choiceRT_color,2021.2.3,Win32,60.18295619,,,,,,,,4,Slow,long,d,1,2.1362,7,3,31,0,1,,,,,
,0.47,,,,,,,,,f,blue,6096a175a2933cf1f6987fc4,2021-11-01_13h52.36.282,forced_choiceRT_color,2021.2.3,Win32,60.18295619,,,,,,,,4,Ontime,long,f,1,1.9771,8,0,32,1,1,,,,,
,1.25,,,,,,,,,f,blue,6096a175a2933cf1f6987fc4,2021-11-01_13h52.36.282,forced_choiceRT_color,2021.2.3,Win32,60.18295619,,,,,,,,4,Ontime,long,f,1,1.9795,8,1,33,1,1,,,,,
,1.91,,,,,,,,,f,blue,6096a175a2933cf1f6987fc4,2021-11-01_13h52.36.282,forced_choiceRT_color,2021.2.3,Win32,60.18295619,,,,,,,,4,Ontime,long,j,0,2.0525,8,2,34,1,1,,,,,
,0.78,,,,,,,,,j,red,6096a175a2933cf1f6987fc4,2021-11-01_13h52.36.282,forced_choiceRT_color,2021.2.3,Win32,60.18295619,,,,,,,,4,Slow,long,j,1,2.1264,8,3,35,2,1,,,,,
,1,,,,,,,,,k,purple,6096a175a2933cf1f6987fc4,2021-11-01_13h52.36.282,forced_choiceRT_color,2021.2.3,Win32,60.18295619,,,,,,,,4,Ontime,long,k,1,1.986,9,0,36,3,1,,,,,
,0.4,,,,,,,,,j,red,6096a175a2933cf1f6987fc4,2021-11-01_13h52.36.282,forced_choiceRT_color,2021.2.3,Win32,60.18295619,,,,,,,,4,Fast,long,j,1,1.8612,9,1,37,2,1,,,,,
,0.93,,,,,,,,,j,red,6096a175a2933cf1f6987fc4,2021-11-01_13h52.36.282,forced_choiceRT_color,2021.2.3,Win32,60.18295619,,,,,,,,4,Ontime,long,j,1,2.0505,9,2,38,2,1,,,,,
,1.69,,,,,,,,,d,orange,6096a175a2933cf1f6987fc4,2021-11-01_13h52.36.282,forced_choiceRT_color,2021.2.3,Win32,60.18295619,,,,,,,,4,Slow,long,d,1,2.2817,9,3,39,0,1,,,,,
,,,,,,,,,,,,6096a175a2933cf1f6987fc4,2021-11-01_13h52.36.282,forced_choiceRT_color,2021.2.3,Win32,60.18295619,,,,,,,,,,,,,,,,,,,3,0,3,0,1
,1.37,,,,,,,,,k,purple,6096a175a2933cf1f6987fc4,2021-11-01_13h52.36.282,forced_choiceRT_color,2021.2.3,Win32,60.18295619,,,,,,,,5,Ontime,long,k,1,2.0699,0,0,0,3,1,,,,,
,1.17,,,,,,,,,j,red,6096a175a2933cf1f6987fc4,2021-11-01_13h52.36.282,forced_choiceRT_color,2021.2.3,Win32,60.18295619,,,,,,,,5,Ontime,long,f,0,2.0218,0,1,1,2,1,,,,,
,0.76,,,,,,,,,j,red,6096a175a2933cf1f6987fc4,2021-11-01_13h52.36.282,forced_choiceRT_color,2021.2.3,Win32,60.18295619,,,,,,,,5,Ontime,long,j,1,2.0594,0,2,2,2,1,,,,,
,1,,,,,,,,,f,blue,6096a175a2933cf1f6987fc4,2021-11-01_13h52.36.282,forced_choiceRT_color,2021.2.3,Win32,60.18295619,,,,,,,,5,Ontime,long,f,1,2.0898,0,3,3,1,1,,,,,
,0.35,,,,,,,,,f,blue,6096a175a2933cf1f6987fc4,2021-11-01_13h52.36.282,forced_choiceRT_color,2021.2.3,Win32,60.18295619,,,,,,,,5,Ontime,long,f,1,2.0092,1,0,4,1,1,,,,,
,0.34,,,,,,,,,d,orange,6096a175a2933cf1f6987fc4,2021-11-01_13h52.36.282,forced_choiceRT_color,2021.2.3,Win32,60.18295619,,,,,,,,5,Ontime,long,d,1,2.0945,1,1,5,0,1,,,,,
,1.01,,,,,,,,,d,orange,6096a175a2933cf1f6987fc4,2021-11-01_13h52.36.282,forced_choiceRT_color,2021.2.3,Win32,60.18295619,,,,,,,,5,Slow,long,d,1,2.1599,1,2,6,0,1,,,,,
,1.17,,,,,,,,,j,red,6096a175a2933cf1f6987fc4,2021-11-01_13h52.36.282,forced_choiceRT_color,2021.2.3,Win32,60.18295619,,,,,,,,5,Slow,long,j,1,2.168,1,3,7,2,1,,,,,
,0.99,,,,,,,,,f,blue,6096a175a2933cf1f6987fc4,2021-11-01_13h52.36.282,forced_choiceRT_color,2021.2.3,Win32,60.18295619,,,,,,,,5,Ontime,long,f,1,2.0263,2,0,8,1,1,,,,,
,1.56,,,,,,,,,j,red,6096a175a2933cf1f6987fc4,2021-11-01_13h52.36.282,forced_choiceRT_color,2021.2.3,Win32,60.18295619,,,,,,,,5,Ontime,long,j,1,1.9537,2,1,9,2,1,,,,,
,1.2,,,,,,,,,f,blue,6096a175a2933cf1f6987fc4,2021-11-01_13h52.36.282,forced_choiceRT_color,2021.2.3,Win32,60.18295619,,,,,,,,5,Fast,long,f,1,1.709,2,2,10,1,1,,,,,
,1.78,,,,,,,,,d,orange,6096a175a2933cf1f6987fc4,2021-11-01_13h52.36.282,forced_choiceRT_color,2021.2.3,Win32,60.18295619,,,,,,,,5,Ontime,long,k,0,2.0191,2,3,11,0,1,,,,,
,0.75,,,,,,,,,k,purple,6096a175a2933cf1f6987fc4,2021-11-01_13h52.36.282,forced_choiceRT_color,2021.2.3,Win32,60.18295619,,,,,,,,5,Ontime,long,k,1,2.0361,3,0,12,3,1,,,,,
,0.89,,,,,,,,,k,purple,6096a175a2933cf1f6987fc4,2021-11-01_13h52.36.282,forced_choiceRT_color,2021.2.3,Win32,60.18295619,,,,,,,,5,Ontime,long,k,1,2.0519,3,1,13,3,1,,,,,
,0.36,,,,,,,,,k,purple,6096a175a2933cf1f6987fc4,2021-11-01_13h52.36.282,forced_choiceRT_color,2021.2.3,Win32,60.18295619,,,,,,,,5,Slow,long,k,1,2.1123,3,2,14,3,1,,,,,
,1.55,,,,,,,,,j,red,6096a175a2933cf1f6987fc4,2021-11-01_13h52.36.282,forced_choiceRT_color,2021.2.3,Win32,60.18295619,,,,,,,,5,Slow,long,f,0,2.1262,3,3,15,2,1,,,,,
,1.66,,,,,,,,,d,orange,6096a175a2933cf1f6987fc4,2021-11-01_13h52.36.282,forced_choiceRT_color,2021.2.3,Win32,60.18295619,,,,,,,,5,Slow,long,f,0,2.1599,4,0,16,0,1,,,,,
,0.92,,,,,,,,,d,orange,6096a175a2933cf1f6987fc4,2021-11-01_13h52.36.282,forced_choiceRT_color,2021.2.3,Win32,60.18295619,,,,,,,,5,Ontime,long,d,1,1.9845,4,1,17,0,1,,,,,
,1.2,,,,,,,,,d,orange,6096a175a2933cf1f6987fc4,2021-11-01_13h52.36.282,forced_choiceRT_color,2021.2.3,Win32,60.18295619,,,,,,,,5,Ontime,long,d,1,1.95,4,2,18,0,1,,,,,
,1.76,,,,,,,,,f,blue,6096a175a2933cf1f6987fc4,2021-11-01_13h52.36.282,forced_choiceRT_color,2021.2.3,Win32,60.18295619,,,,,,,,5,Slow,long,j,0,2.2553,4,3,19,1,1,,,,,
,1.24,,,,,,,,,k,purple,6096a175a2933cf1f6987fc4,2021-11-01_13h52.36.282,forced_choiceRT_color,2021.2.3,Win32,60.18295619,,,,,,,,5,Ontime,long,k,1,1.986,5,0,20,3,1,,,,,
,0.66,,,,,,,,,d,orange,6096a175a2933cf1f6987fc4,2021-11-01_13h52.36.282,forced_choiceRT_color,2021.2.3,Win32,60.18295619,,,,,,,,5,Ontime,long,f,0,1.9718,5,1,21,0,1,,,,,
,0.05,,,,,,,,,k,purple,6096a175a2933cf1f6987fc4,2021-11-01_13h52.36.282,forced_choiceRT_color,2021.2.3,Win32,60.18295619,,,,,,,,5,Ontime,long,k,1,2.0171,5,2,22,3,1,,,,,
,0.07,,,,,,,,,j,red,6096a175a2933cf1f6987fc4,2021-11-01_13h52.36.282,forced_choiceRT_color,2021.2.3,Win32,60.18295619,,,,,,,,5,Fast,long,j,1,1.8857,5,3,23,2,1,,,,,
,1.73,,,,,,,,,f,blue,6096a175a2933cf1f6987fc4,2021-11-01_13h52.36.282,forced_choiceRT_color,2021.2.3,Win32,60.18295619,,,,,,,,5,Slow,long,f,1,2.1124,6,0,24,1,1,,,,,
,0.78,,,,,,,,,f,blue,6096a175a2933cf1f6987fc4,2021-11-01_13h52.36.282,forced_choiceRT_color,2021.2.3,Win32,60.18295619,,,,,,,,5,Ontime,long,f,1,2.0642,6,1,25,1,1,,,,,
,0.28,,,,,,,,,d,orange,6096a175a2933cf1f6987fc4,2021-11-01_13h52.36.282,forced_choiceRT_color,2021.2.3,Win32,60.18295619,,,,,,,,5,Ontime,long,d,1,2.062,6,2,26,0,1,,,,,
,1.07,,,,,,,,,j,red,6096a175a2933cf1f6987fc4,2021-11-01_13h52.36.282,forced_choiceRT_color,2021.2.3,Win32,60.18295619,,,,,,,,5,Ontime,long,f,0,2.0682,6,3,27,2,1,,,,,
,0,,,,,,,,,j,red,6096a175a2933cf1f6987fc4,2021-11-01_13h52.36.282,forced_choiceRT_color,2021.2.3,Win32,60.18295619,,,,,,,,5,Ontime,long,j,1,2.027,7,0,28,2,1,,,,,
,0.03,,,,,,,,,f,blue,6096a175a2933cf1f6987fc4,2021-11-01_13h52.36.282,forced_choiceRT_color,2021.2.3,Win32,60.18295619,,,,,,,,5,Ontime,long,f,1,2.0415,7,1,29,1,1,,,,,
,0.81,,,,,,,,,f,blue,6096a175a2933cf1f6987fc4,2021-11-01_13h52.36.282,forced_choiceRT_color,2021.2.3,Win32,60.18295619,,,,,,,,5,Ontime,long,f,1,1.9959,7,2,30,1,1,,,,,
,1.03,,,,,,,,,f,blue,6096a175a2933cf1f6987fc4,2021-11-01_13h52.36.282,forced_choiceRT_color,2021.2.3,Win32,60.18295619,,,,,,,,5,Slow,long,f,1,2.1033,7,3,31,1,1,,,,,
,0.64,,,,,,,,,k,purple,6096a175a2933cf1f6987fc4,2021-11-01_13h52.36.282,forced_choiceRT_color,2021.2.3,Win32,60.18295619,,,,,,,,5,Ontime,long,k,1,1.9552,8,0,32,3,1,,,,,
,1.37,,,,,,,,,j,red,6096a175a2933cf1f6987fc4,2021-11-01_13h52.36.282,forced_choiceRT_color,2021.2.3,Win32,60.18295619,,,,,,,,5,Ontime,long,j,1,1.9921,8,1,33,2,1,,,,,
,0.88,,,,,,,,,k,purple,6096a175a2933cf1f6987fc4,2021-11-01_13h52.36.282,forced_choiceRT_color,2021.2.3,Win32,60.18295619,,,,,,,,5,Fast,long,f,0,1.6447,8,2,34,3,1,,,,,
,1.15,,,,,,,,,j,red,6096a175a2933cf1f6987fc4,2021-11-01_13h52.36.282,forced_choiceRT_color,2021.2.3,Win32,60.18295619,,,,,,,,5,Ontime,long,j,1,1.9536,8,3,35,2,1,,,,,
,0.36,,,,,,,,,k,purple,6096a175a2933cf1f6987fc4,2021-11-01_13h52.36.282,forced_choiceRT_color,2021.2.3,Win32,60.18295619,,,,,,,,5,Fast,long,k,1,1.8472,9,0,36,3,1,,,,,
,0.89,,,,,,,,,d,orange,6096a175a2933cf1f6987fc4,2021-11-01_13h52.36.282,forced_choiceRT_color,2021.2.3,Win32,60.18295619,,,,,,,,5,Ontime,long,d,1,1.9475,9,1,37,0,1,,,,,
,1.81,,,,,,,,,d,orange,6096a175a2933cf1f6987fc4,2021-11-01_13h52.36.282,forced_choiceRT_color,2021.2.3,Win32,60.18295619,,,,,,,,5,Ontime,long,f,0,2.0585,9,2,38,0,1,,,,,
,1.32,,,,,,,,,k,purple,6096a175a2933cf1f6987fc4,2021-11-01_13h52.36.282,forced_choiceRT_color,2021.2.3,Win32,60.18295619,,,,,,,,5,Slow,long,k,1,2.1021,9,3,39,3,1,,,,,
,,,,,,,,,,,,6096a175a2933cf1f6987fc4,2021-11-01_13h52.36.282,forced_choiceRT_color,2021.2.3,Win32,60.18295619,,,,,,,,,,,,,,,,,,,4,0,4,0,1
,0.03,,,,,,,,,d,orange,6096a175a2933cf1f6987fc4,2021-11-01_13h52.36.282,forced_choiceRT_color,2021.2.3,Win32,60.18295619,,,,,,,,6,Fast,long,d,1,0.7144,0,0,0,0,1,,,,,
,1.23,,,,,,,,,f,blue,6096a175a2933cf1f6987fc4,2021-11-01_13h52.36.282,forced_choiceRT_color,2021.2.3,Win32,60.18295619,,,,,,,,6,Ontime,long,j,0,2.0704,0,1,1,1,1,,,,,
,1.45,,,,,,,,,k,purple,6096a175a2933cf1f6987fc4,2021-11-01_13h52.36.282,forced_choiceRT_color,2021.2.3,Win32,60.18295619,,,,,,,,6,Slow,long,k,1,2.1251,0,2,2,3,1,,,,,
,1.36,,,,,,,,,k,purple,6096a175a2933cf1f6987fc4,2021-11-01_13h52.36.282,forced_choiceRT_color,2021.2.3,Win32,60.18295619,,,,,,,,6,Ontime,long,k,1,1.9106,0,3,3,3,1,,,,,
,1.2,,,,,,,,,d,orange,6096a175a2933cf1f6987fc4,2021-11-01_13h52.36.282,forced_choiceRT_color,2021.2.3,Win32,60.18295619,,,,,,,,6,Ontime,long,d,1,2.0436,1,0,4,0,1,,,,,
,1.77,,,,,,,,,f,blue,6096a175a2933cf1f6987fc4,2021-11-01_13h52.36.282,forced_choiceRT_color,2021.2.3,Win32,60.18295619,,,,,,,,6,Ontime,long,f,1,2.076,1,1,5,1,1,,,,,
,0.35,,,,,,,,,j,red,6096a175a2933cf1f6987fc4,2021-11-01_13h52.36.282,forced_choiceRT_color,2021.2.3,Win32,60.18295619,,,,,,,,6,Ontime,long,j,1,2.0512,1,2,6,2,1,,,,,
,0.58,,,,,,,,,f,blue,6096a175a2933cf1f6987fc4,2021-11-01_13h52.36.282,forced_choiceRT_color,2021.2.3,Win32,60.18295619,,,,,,,,6,Ontime,long,f,1,2.0375,1,3,7,1,1,,,,,
,1.35,,,,,,,,,f,blue,6096a175a2933cf1f6987fc4,2021-11-01_13h52.36.282,forced_choiceRT_color,2021.2.3,Win32,60.18295619,,,,,,,,6,Fast,long,f,1,1.8106,2,0,8,1,1,,,,,
,0.07,,,,,,,,,d,orange,6096a175a2933cf1f6987fc4,2021-11-01_13h52.36.282,forced_choiceRT_color,2021.2.3,Win32,60.18295619,,,,,,,,6,Ontime,long,d,1,2.0741,2,1,9,0,1,,,,,
,0.92,,,,,,,,,d,orange,6096a175a2933cf1f6987fc4,2021-11-01_13h52.36.282,forced_choiceRT_color,2021.2.3,Win32,60.18295619,,,,,,,,6,Slow,long,d,1,2.1927,2,2,10,0,1,,,,,
,0.75,,,,,,,,,d,orange,6096a175a2933cf1f6987fc4,2021-11-01_13h52.36.282,forced_choiceRT_color,2021.2.3,Win32,60.18295619,,,,,,,,6,Ontime,long,d,1,1.9671,2,3,11,0,1,,,,,
,1.8,,,,,,,,,j,red,6096a175a2933cf1f6987fc4,2021-11-01_13h52.36.282,forced_choiceRT_color,2021.2.3,Win32,60.18295619,,,,,,,,6,Ontime,long,f,0,2.0699,3,0,12,2,1,,,,,
,1.71,,,,,,,,,j,red,6096a175a2933cf1f6987fc4,2021-11-01_13h52.36.282,forced_choiceRT_color,2021.2.3,Win32,60.18295619,,,,,,,,6,Ontime,long,j,1,2.0439,3,1,13,2,1,,,,,
,1.97,,,,,,,,,j,red,6096a175a2933cf1f6987fc4,2021-11-01_13h52.36.282,forced_choiceRT_color,2021.2.3,Win32,60.18295619,,,,,,,,6,Slow,long,k,0,2.2313,3,2,14,2,1,,,,,
,1.06,,,,,,,,,f,blue,6096a175a2933cf1f6987fc4,2021-11-01_13h52.36.282,forced_choiceRT_color,2021.2.3,Win32,60.18295619,,,,,,,,6,Slow,long,f,1,2.1624,3,3,15,1,1,,,,,
,0.41,,,,,,,,,j,red,6096a175a2933cf1f6987fc4,2021-11-01_13h52.36.282,forced_choiceRT_color,2021.2.3,Win32,60.18295619,,,,,,,,6,Ontime,long,j,1,2.0383,4,0,16,2,1,,,,,
,1.56,,,,,,,,,j,red,6096a175a2933cf1f6987fc4,2021-11-01_13h52.36.282,forced_choiceRT_color,2021.2.3,Win32,60.18295619,,,,,,,,6,Slow,long,j,1,2.1999,4,1,17,2,1,,,,,
,1.42,,,,,,,,,j,red,6096a175a2933cf1f6987fc4,2021-11-01_13h52.36.282,forced_choiceRT_color,2021.2.3,Win32,60.18295619,,,,,,,,6,Fast,long,j,1,1.886,4,2,18,2,1,,,,,
,1.96,,,,,,,,,f,blue,6096a175a2933cf1f6987fc4,2021-11-01_13h52.36.282,forced_choiceRT_color,2021.2.3,Win32,60.18295619,,,,,,,,6,Ontime,long,j,0,2.0678,4,3,19,1,1,,,,,
,0.36,,,,,,,,,f,blue,6096a175a2933cf1f6987fc4,2021-11-01_13h52.36.282,forced_choiceRT_color,2021.2.3,Win32,60.18295619,,,,,,,,6,Ontime,long,f,1,1.9609,5,0,20,1,1,,,,,
,1.57,,,,,,,,,k,purple,6096a175a2933cf1f6987fc4,2021-11-01_13h52.36.282,forced_choiceRT_color,2021.2.3,Win32,60.18295619,,,,,,,,6,Ontime,long,f,0,2.0766,5,1,21,3,1,,,,,
,0.57,,,,,,,,,d,orange,6096a175a2933cf1f6987fc4,2021-11-01_13h52.36.282,forced_choiceRT_color,2021.2.3,Win32,60.18295619,,,,,,,,6,Ontime,long,d,1,1.9938,5,2,22,0,1,,,,,
,0.98,,,,,,,,,k,purple,6096a175a2933cf1f6987fc4,2021-11-01_13h52.36.282,forced_choiceRT_color,2021.2.3,Win32,60.18295619,,,,,,,,6,Ontime,long,k,1,2.0108,5,3,23,3,1,,,,,
,0.59,,,,,,,,,k,purple,6096a175a2933cf1f6987fc4,2021-11-01_13h52.36.282,forced_choiceRT_color,2021.2.3,Win32,60.18295619,,,,,,,,6,Ontime,long,k,1,1.9707,6,0,24,3,1,,,,,
,1.89,,,,,,,,,k,purple,6096a175a2933cf1f6987fc4,2021-11-01_13h52.36.282,forced_choiceRT_color,2021.2.3,Win32,60.18295619,,,,,,,,6,Slow,long,f,0,2.1327,6,1,25,3,1,,,,,
,0,,,,,,,,,f,blue,6096a175a2933cf1f6987fc4,2021-11-01_13h52.36.282,forced_choiceRT_color,2021.2.3,Win32,60.18295619,,,,,,,,6,Ontime,long,f,1,1.976,6,2,26,1,1,,,,,
,0.39,,,,,,,,,f,blue,6096a175a2933cf1f6987fc4,2021-11-01_13h52.36.282,forced_choiceRT_color,2021.2.3,Win32,60.18295619,,,,,,,,6,Ontime,long,f,1,2.0051,6,3,27,1,1,,,,,
,0.88,,,,,,,,,j,red,6096a175a2933cf1f6987fc4,2021-11-01_13h52.36.282,forced_choiceRT_color,2021.2.3,Win32,60.18295619,,,,,,,,6,Fast,long,j,1,1.3048,7,0,28,2,1,,,,,
,0.51,,,,,,,,,j,red,6096a175a2933cf1f6987fc4,2021-11-01_13h52.36.282,forced_choiceRT_color,2021.2.3,Win32,60.18295619,,,,,,,,6,Slow,long,j,1,2.1116,7,1,29,2,1,,,,,
,1.59,,,,,,,,,d,orange,6096a175a2933cf1f6987fc4,2021-11-01_13h52.36.282,forced_choiceRT_color,2021.2.3,Win32,60.18295619,,,,,,,,6,Ontime,long,d,1,2.0637,7,2,30,0,1,,,,,
,0.12,,,,,,,,,f,blue,6096a175a2933cf1f6987fc4,2021-11-01_13h52.36.282,forced_choiceRT_color,2021.2.3,Win32,60.18295619,,,,,,,,6,Ontime,long,f,1,1.9761,7,3,31,1,1,,,,,
,0.15,,,,,,,,,j,red,6096a175a2933cf1f6987fc4,2021-11-01_13h52.36.282,forced_choiceRT_color,2021.2.3,Win32,60.18295619,,,,,,,,6,Ontime,long,j,1,1.9319,8,0,32,2,1,,,,,
,1.51,,,,,,,,,k,purple,6096a175a2933cf1f6987fc4,2021-11-01_13h52.36.282,forced_choiceRT_color,2021.2.3,Win32,60.18295619,,,,,,,,6,Slow,long,k,1,2.1243,8,1,33,3,1,,,,,
,1.02,,,,,,,,,k,purple,6096a175a2933cf1f6987fc4,2021-11-01_13h52.36.282,forced_choiceRT_color,2021.2.3,Win32,60.18295619,,,,,,,,6,Ontime,long,k,1,1.9023,8,2,34,3,1,,,,,
,0.12,,,,,,,,,k,purple,6096a175a2933cf1f6987fc4,2021-11-01_13h52.36.282,forced_choiceRT_color,2021.2.3,Win32,60.18295619,,,,,,,,6,Ontime,long,k,1,1.9646,8,3,35,3,1,,,,,
,0.32,,,,,,,,,d,orange,6096a175a2933cf1f6987fc4,2021-11-01_13h52.36.282,forced_choiceRT_color,2021.2.3,Win32,60.18295619,,,,,,,,6,Ontime,long,d,1,1.9625,9,0,36,0,1,,,,,
,1.18,,,,,,,,,k,purple,6096a175a2933cf1f6987fc4,2021-11-01_13h52.36.282,forced_choiceRT_color,2021.2.3,Win32,60.18295619,,,,,,,,6,Ontime,long,k,1,2.0388,9,1,37,3,1,,,,,
,1.49,,,,,,,,,d,orange,6096a175a2933cf1f6987fc4,2021-11-01_13h52.36.282,forced_choiceRT_color,2021.2.3,Win32,60.18295619,,,,,,,,6,Ontime,long,d,1,2.0607,9,2,38,0,1,,,,,
,1.32,,,,,,,,,d,orange,6096a175a2933cf1f6987fc4,2021-11-01_13h52.36.282,forced_choiceRT_color,2021.2.3,Win32,60.18295619,,,,,,,,6,Ontime,long,d,1,1.9597,9,3,39,0,1,,,,,
,,,,,,,,,,,,6096a175a2933cf1f6987fc4,2021-11-01_13h52.36.282,forced_choiceRT_color,2021.2.3,Win32,60.18295619,,,,,,,,,,,,,,,,,,,5,0,5,0,1
,0.33,,,,,,,,,f,blue,6096a175a2933cf1f6987fc4,2021-11-01_13h52.36.282,forced_choiceRT_color,2021.2.3,Win32,60.18295619,,,,,,,,7,Ontime,long,f,1,1.9961,0,0,0,1,1,,,,,
,0.71,,,,,,,,,d,orange,6096a175a2933cf1f6987fc4,2021-11-01_13h52.36.282,forced_choiceRT_color,2021.2.3,Win32,60.18295619,,,,,,,,7,Ontime,long,d,1,2.0762,0,1,1,0,1,,,,,
,0.95,,,,,,,,,j,red,6096a175a2933cf1f6987fc4,2021-11-01_13h52.36.282,forced_choiceRT_color,2021.2.3,Win32,60.18295619,,,,,,,,7,Ontime,long,j,1,2.0441,0,2,2,2,1,,,,,
,1.58,,,,,,,,,k,purple,6096a175a2933cf1f6987fc4,2021-11-01_13h52.36.282,forced_choiceRT_color,2021.2.3,Win32,60.18295619,,,,,,,,7,Slow,long,f,0,2.128,0,3,3,3,1,,,,,
,1.12,,,,,,,,,k,purple,6096a175a2933cf1f6987fc4,2021-11-01_13h52.36.282,forced_choiceRT_color,2021.2.3,Win32,60.18295619,,,,,,,,7,Ontime,long,k,1,1.9608,1,0,4,3,1,,,,,
,0.76,,,,,,,,,d,orange,6096a175a2933cf1f6987fc4,2021-11-01_13h52.36.282,forced_choiceRT_color,2021.2.3,Win32,60.18295619,,,,,,,,7,Ontime,long,d,1,2.0572,1,1,5,0,1,,,,,
,0.33,,,,,,,,,d,orange,6096a175a2933cf1f6987fc4,2021-11-01_13h52.36.282,forced_choiceRT_color,2021.2.3,Win32,60.18295619,,,,,,,,7,Ontime,long,d,1,2.0336,1,2,6,0,1,,,,,
,0.28,,,,,,,,,j,red,6096a175a2933cf1f6987fc4,2021-11-01_13h52.36.282,forced_choiceRT_color,2021.2.3,Win32,60.18295619,,,,,,,,7,Fast,long,f,0,1.7304,1,3,7,2,1,,,,,
,1.55,,,,,,,,,j,red,6096a175a2933cf1f6987fc4,2021-11-01_13h52.36.282,forced_choiceRT_color,2021.2.3,Win32,60.18295619,,,,,,,,7,Slow,long,j,1,2.2213,2,0,8,2,1,,,,,
,0.41,,,,,,,,,j,red,6096a175a2933cf1f6987fc4,2021-11-01_13h52.36.282,forced_choiceRT_color,2021.2.3,Win32,60.18295619,,,,,,,,7,Ontime,long,j,1,2.0041,2,1,9,2,1,,,,,
,0.47,,,,,,,,,k,purple,6096a175a2933cf1f6987fc4,2021-11-01_13h52.36.282,forced_choiceRT_color,2021.2.3,Win32,60.18295619,,,,,,,,7,Slow,long,k,1,2.1027,2,2,10,3,1,,,,,
,0.19,,,,,,,,,j,red,6096a175a2933cf1f6987fc4,2021-11-01_13h52.36.282,forced_choiceRT_color,2021.2.3,Win32,60.18295619,,,,,,,,7,Ontime,long,j,1,2.0278,2,3,11,2,1,,,,,
,0.54,,,,,,,,,d,orange,6096a175a2933cf1f6987fc4,2021-11-01_13h52.36.282,forced_choiceRT_color,2021.2.3,Win32,60.18295619,,,,,,,,7,Slow,long,d,1,2.118,3,0,12,0,1,,,,,
,0.83,,,,,,,,,k,purple,6096a175a2933cf1f6987fc4,2021-11-01_13h52.36.282,forced_choiceRT_color,2021.2.3,Win32,60.18295619,,,,,,,,7,Ontime,long,k,1,2.0091,3,1,13,3,1,,,,,
,0.41,,,,,,,,,k,purple,6096a175a2933cf1f6987fc4,2021-11-01_13h52.36.282,forced_choiceRT_color,2021.2.3,Win32,60.18295619,,,,,,,,7,Ontime,long,k,1,2.038,3,2,14,3,1,,,,,
,0.08,,,,,,,,,f,blue,6096a175a2933cf1f6987fc4,2021-11-01_13h52.36.282,forced_choiceRT_color,2021.2.3,Win32,60.18295619,,,,,,,,7,Ontime,long,f,1,2.0316,3,3,15,1,1,,,,,
,0.7,,,,,,,,,d,orange,6096a175a2933cf1f6987fc4,2021-11-01_13h52.36.282,forced_choiceRT_color,2021.2.3,Win32,60.18295619,,,,,,,,7,Ontime,long,d,1,2.0443,4,0,16,0,1,,,,,
,0.22,,,,,,,,,d,orange,6096a175a2933cf1f6987fc4,2021-11-01_13h52.36.282,forced_choiceRT_color,2021.2.3,Win32,60.18295619,,,,,,,,7,Fast,long,d,1,1.771,4,1,17,0,1,,,,,
,1.72,,,,,,,,,j,red,6096a175a2933cf1f6987fc4,2021-11-01_13h52.36.282,forced_choiceRT_color,2021.2.3,Win32,60.18295619,,,,,,,,7,Slow,long,j,1,2.3603,4,2,18,2,1,,,,,
,0.51,,,,,,,,,f,blue,6096a175a2933cf1f6987fc4,2021-11-01_13h52.36.282,forced_choiceRT_color,2021.2.3,Win32,60.18295619,,,,,,,,7,Fast,long,f,1,1.893,4,3,19,1,1,,,,,
,1.61,,,,,,,,,k,purple,6096a175a2933cf1f6987fc4,2021-11-01_13h52.36.282,forced_choiceRT_color,2021.2.3,Win32,60.18295619,,,,,,,,7,Slow,long,k,1,2.1052,5,0,20,3,1,,,,,
,1.84,,,,,,,,,f,blue,6096a175a2933cf1f6987fc4,2021-11-01_13h52.36.282,forced_choiceRT_color,2021.2.3,Win32,60.18295619,,,,,,,,7,Slow,long,j,0,2.1619,5,1,21,1,1,,,,,
,1.74,,,,,,,,,k,purple,6096a175a2933cf1f6987fc4,2021-11-01_13h52.36.282,forced_choiceRT_color,2021.2.3,Win32,60.18295619,,,,,,,,7,Ontime,long,f,0,1.9927,5,2,22,3,1,,,,,
,0.19,,,,,,,,,d,orange,6096a175a2933cf1f6987fc4,2021-11-01_13h52.36.282,forced_choiceRT_color,2021.2.3,Win32,60.18295619,,,,,,,,7,Ontime,long,d,1,1.9129,5,3,23,0,1,,,,,
,1.17,,,,,,,,,j,red,6096a175a2933cf1f6987fc4,2021-11-01_13h52.36.282,forced_choiceRT_color,2021.2.3,Win32,60.18295619,,,,,,,,7,Ontime,long,j,1,1.9252,6,0,24,2,1,,,,,
,1.33,,,,,,,,,k,purple,6096a175a2933cf1f6987fc4,2021-11-01_13h52.36.282,forced_choiceRT_color,2021.2.3,Win32,60.18295619,,,,,,,,7,Fast,long,k,1,1.844,6,1,25,3,1,,,,,
,0.09,,,,,,,,,k,purple,6096a175a2933cf1f6987fc4,2021-11-01_13h52.36.282,forced_choiceRT_color,2021.2.3,Win32,60.18295619,,,,,,,,7,Ontime,long,k,1,1.9268,6,2,26,3,1,,,,,
,0.5,,,,,,,,,j,red,6096a175a2933cf1f6987fc4,2021-11-01_13h52.36.282,forced_choiceRT_color,2021.2.3,Win32,60.18295619,,,,,,,,7,Ontime,long,j,1,2.0186,6,3,27,2,1,,,,,
,1.07,,,,,,,,,f,blue,6096a175a2933cf1f6987fc4,2021-11-01_13h52.36.282,forced_choiceRT_color,2021.2.3,Win32,60.18295619,,,,,,,,7,Ontime,long,k,0,2.029,7,0,28,1,1,,,,,
,0.24,,,,,,,,,j,red,6096a175a2933cf1f6987fc4,2021-11-01_13h52.36.282,forced_choiceRT_color,2021.2.3,Win32,60.18295619,,,,,,,,7,Ontime,long,j,1,2.0812,7,1,29,2,1,,,,,
,0.24,,,,,,,,,f,blue,6096a175a2933cf1f6987fc4,2021-11-01_13h52.36.282,forced_choiceRT_color,2021.2.3,Win32,60.18295619,,,,,,,,7,Fast,long,f,1,1.8879,7,2,30,1,1,,,,,
,1.23,,,,,,,,,f,blue,6096a175a2933cf1f6987fc4,2021-11-01_13h52.36.282,forced_choiceRT_color,2021.2.3,Win32,60.18295619,,,,,,,,7,Ontime,long,f,1,1.909,7,3,31,1,1,,,,,
,0.34,,,,,,,,,d,orange,6096a175a2933cf1f6987fc4,2021-11-01_13h52.36.282,forced_choiceRT_color,2021.2.3,Win32,60.18295619,,,,,,,,7,Ontime,long,d,1,2.0095,8,0,32,0,1,,,,,
,1.86,,,,,,,,,d,orange,6096a175a2933cf1f6987fc4,2021-11-01_13h52.36.282,forced_choiceRT_color,2021.2.3,Win32,60.18295619,,,,,,,,7,Ontime,long,j,0,2.0568,8,1,33,0,1,,,,,
,0.34,,,,,,,,,f,blue,6096a175a2933cf1f6987fc4,2021-11-01_13h52.36.282,forced_choiceRT_color,2021.2.3,Win32,60.18295619,,,,,,,,7,Ontime,long,f,1,2.032,8,2,34,1,1,,,,,
,1.49,,,,,,,,,k,purple,6096a175a2933cf1f6987fc4,2021-11-01_13h52.36.282,forced_choiceRT_color,2021.2.3,Win32,60.18295619,,,,,,,,7,Slow,long,k,1,2.1481,8,3,35,3,1,,,,,
,0.46,,,,,,,,,d,orange,6096a175a2933cf1f6987fc4,2021-11-01_13h52.36.282,forced_choiceRT_color,2021.2.3,Win32,60.18295619,,,,,,,,7,Ontime,long,d,1,1.9096,9,0,36,0,1,,,,,
,1.34,,,,,,,,,j,red,6096a175a2933cf1f6987fc4,2021-11-01_13h52.36.282,forced_choiceRT_color,2021.2.3,Win32,60.18295619,,,,,,,,7,Ontime,long,j,1,1.9436,9,1,37,2,1,,,,,
,1.88,,,,,,,,,f,blue,6096a175a2933cf1f6987fc4,2021-11-01_13h52.36.282,forced_choiceRT_color,2021.2.3,Win32,60.18295619,,,,,,,,7,Ontime,long,k,0,1.9993,9,2,38,1,1,,,,,
,1.64,,,,,,,,,f,blue,6096a175a2933cf1f6987fc4,2021-11-01_13h52.36.282,forced_choiceRT_color,2021.2.3,Win32,60.18295619,,,,,,,,7,Ontime,long,k,0,1.9598,9,3,39,1,1,,,,,
,,,,,,,,,,,,6096a175a2933cf1f6987fc4,2021-11-01_13h52.36.282,forced_choiceRT_color,2021.2.3,Win32,60.18295619,,,,,,,,,,,,,,,,,,,6,0,6,0,1
,1.54,,,,,,,,,k,purple,6096a175a2933cf1f6987fc4,2021-11-01_13h52.36.282,forced_choiceRT_color,2021.2.3,Win32,60.18295619,,,,,,,,8,Slow,long,k,1,2.1754,0,0,0,3,1,,,,,
,0.82,,,,,,,,,d,orange,6096a175a2933cf1f6987fc4,2021-11-01_13h52.36.282,forced_choiceRT_color,2021.2.3,Win32,60.18295619,,,,,,,,8,Ontime,long,d,1,2.0434,0,1,1,0,1,,,,,
,0.84,,,,,,,,,d,orange,6096a175a2933cf1f6987fc4,2021-11-01_13h52.36.282,forced_choiceRT_color,2021.2.3,Win32,60.18295619,,,,,,,,8,Ontime,long,d,1,2.0836,0,2,2,0,1,,,,,
,0.72,,,,,,,,,d,orange,6096a175a2933cf1f6987fc4,2021-11-01_13h52.36.282,forced_choiceRT_color,2021.2.3,Win32,60.18295619,,,,,,,,8,Ontime,long,d,1,1.9828,0,3,3,0,1,,,,,
,0.14,,,,,,,,,j,red,6096a175a2933cf1f6987fc4,2021-11-01_13h52.36.282,forced_choiceRT_color,2021.2.3,Win32,60.18295619,,,,,,,,8,Ontime,long,j,1,1.9276,1,0,4,2,1,,,,,
,1.16,,,,,,,,,j,red,6096a175a2933cf1f6987fc4,2021-11-01_13h52.36.282,forced_choiceRT_color,2021.2.3,Win32,60.18295619,,,,,,,,8,Fast,long,j,1,1.7767,1,1,5,2,1,,,,,
,0.94,,,,,,,,,f,blue,6096a175a2933cf1f6987fc4,2021-11-01_13h52.36.282,forced_choiceRT_color,2021.2.3,Win32,60.18295619,,,,,,,,8,Ontime,long,f,1,2.018,1,2,6,1,1,,,,,
,1.99,,,,,,,,,k,purple,6096a175a2933cf1f6987fc4,2021-11-01_13h52.36.282,forced_choiceRT_color,2021.2.3,Win32,60.18295619,,,,,,,,8,Slow,long,f,0,2.1432,1,3,7,3,1,,,,,
,0.91,,,,,,,,,j,red,6096a175a2933cf1f6987fc4,2021-11-01_13h52.36.282,forced_choiceRT_color,2021.2.3,Win32,60.18295619,,,,,,,,8,Ontime,long,j,1,2.0433,2,0,8,2,1,,,,,
,0.15,,,,,,,,,f,blue,6096a175a2933cf1f6987fc4,2021-11-01_13h52.36.282,forced_choiceRT_color,2021.2.3,Win32,60.18295619,,,,,,,,8,Ontime,long,f,1,2.0468,2,1,9,1,1,,,,,
,0.89,,,,,,,,,f,blue,6096a175a2933cf1f6987fc4,2021-11-01_13h52.36.282,forced_choiceRT_color,2021.2.3,Win32,60.18295619,,,,,,,,8,Ontime,long,f,1,1.9617,2,2,10,1,1,,,,,
,1.13,,,,,,,,,f,blue,6096a175a2933cf1f6987fc4,2021-11-01_13h52.36.282,forced_choiceRT_color,2021.2.3,Win32,60.18295619,,,,,,,,8,Slow,long,f,1,2.122,2,3,11,1,1,,,,,
,1.02,,,,,,,,,f,blue,6096a175a2933cf1f6987fc4,2021-11-01_13h52.36.282,forced_choiceRT_color,2021.2.3,Win32,60.18295619,,,,,,,,8,Ontime,long,f,1,1.9929,3,0,12,1,1,,,,,
,1.91,,,,,,,,,j,red,6096a175a2933cf1f6987fc4,2021-11-01_13h52.36.282,forced_choiceRT_color,2021.2.3,Win32,60.18295619,,,,,,,,8,Ontime,long,j,1,1.9859,3,1,13,2,1,,,,,
,0.43,,,,,,,,,j,red,6096a175a2933cf1f6987fc4,2021-11-01_13h52.36.282,forced_choiceRT_color,2021.2.3,Win32,60.18295619,,,,,,,,8,Ontime,long,j,1,1.9575,3,2,14,2,1,,,,,
,0.68,,,,,,,,,d,orange,6096a175a2933cf1f6987fc4,2021-11-01_13h52.36.282,forced_choiceRT_color,2021.2.3,Win32,60.18295619,,,,,,,,8,Slow,long,d,1,2.1233,3,3,15,0,1,,,,,
,0.22,,,,,,,,,d,orange,6096a175a2933cf1f6987fc4,2021-11-01_13h52.36.282,forced_choiceRT_color,2021.2.3,Win32,60.18295619,,,,,,,,8,Ontime,long,d,1,2.0929,4,0,16,0,1,,,,,
,1.26,,,,,,,,,j,red,6096a175a2933cf1f6987fc4,2021-11-01_13h52.36.282,forced_choiceRT_color,2021.2.3,Win32,60.18295619,,,,,,,,8,Ontime,long,f,0,2.0611,4,1,17,2,1,,,,,
,1.91,,,,,,,,,k,purple,6096a175a2933cf1f6987fc4,2021-11-01_13h52.36.282,forced_choiceRT_color,2021.2.3,Win32,60.18295619,,,,,,,,8,Slow,long,j,0,2.1792,4,2,18,3,1,,,,,
,0.69,,,,,,,,,k,purple,6096a175a2933cf1f6987fc4,2021-11-01_13h52.36.282,forced_choiceRT_color,2021.2.3,Win32,60.18295619,,,,,,,,8,Ontime,long,k,1,2.0777,4,3,19,3,1,,,,,
,1.44,,,,,,,,,k,purple,6096a175a2933cf1f6987fc4,2021-11-01_13h52.36.282,forced_choiceRT_color,2021.2.3,Win32,60.18295619,,,,,,,,8,Ontime,long,k,1,2.0197,5,0,20,3,1,,,,,
,1.42,,,,,,,,,f,blue,6096a175a2933cf1f6987fc4,2021-11-01_13h52.36.282,forced_choiceRT_color,2021.2.3,Win32,60.18295619,,,,,,,,8,Ontime,long,f,1,1.9287,5,1,21,1,1,,,,,
,1.39,,,,,,,,,f,blue,6096a175a2933cf1f6987fc4,2021-11-01_13h52.36.282,forced_choiceRT_color,2021.2.3,Win32,60.18295619,,,,,,,,8,Ontime,long,f,1,1.9117,5,2,22,1,1,,,,,
,1.49,,,,,,,,,d,orange,6096a175a2933cf1f6987fc4,2021-11-01_13h52.36.282,forced_choiceRT_color,2021.2.3,Win32,60.18295619,,,,,,,,8,Fast,long,d,1,1.7672,5,3,23,0,1,,,,,
,1.51,,,,,,,,,k,purple,6096a175a2933cf1f6987fc4,2021-11-01_13h52.36.282,forced_choiceRT_color,2021.2.3,Win32,60.18295619,,,,,,,,8,Slow,long,k,1,2.214,6,0,24,3,1,,,,,
,1.74,,,,,,,,,f,blue,6096a175a2933cf1f6987fc4,2021-11-01_13h52.36.282,forced_choiceRT_color,2021.2.3,Win32,60.18295619,,,,,,,,8,Ontime,long,f,1,1.9422,6,1,25,1,1,,,,,
,0.7,,,,,,,,,j,red,6096a175a2933cf1f6987fc4,2021-11-01_13h52.36.282,forced_choiceRT_color,2021.2.3,Win32,60.18295619,,,,,,,,8,Ontime,long,j,1,1.9615,6,2,26,2,1,,,,,
,1.43,,,,,,,,,d,orange,6096a175a2933cf1f6987fc4,2021-11-01_13h52.36.282,forced_choiceRT_color,2021.2.3,Win32,60.18295619,,,,,,,,8,Fast,long,d,1,1.8107,6,3,27,0,1,,,,,
,0.9,,,,,,,,,k,purple,6096a175a2933cf1f6987fc4,2021-11-01_13h52.36.282,forced_choiceRT_color,2021.2.3,Win32,60.18295619,,,,,,,,8,Ontime,long,k,1,2.0199,7,0,28,3,1,,,,,
,0.71,,,,,,,,,f,blue,6096a175a2933cf1f6987fc4,2021-11-01_13h52.36.282,forced_choiceRT_color,2021.2.3,Win32,60.18295619,,,,,,,,8,Ontime,long,f,1,1.901,7,1,29,1,1,,,,,
,0.03,,,,,,,,,j,red,6096a175a2933cf1f6987fc4,2021-11-01_13h52.36.282,forced_choiceRT_color,2021.2.3,Win32,60.18295619,,,,,,,,8,Fast,long,j,1,1.822,7,2,30,2,1,,,,,
,0.17,,,,,,,,,f,blue,6096a175a2933cf1f6987fc4,2021-11-01_13h52.36.282,forced_choiceRT_color,2021.2.3,Win32,60.18295619,,,,,,,,8,Ontime,long,f,1,2.0347,7,3,31,1,1,,,,,
,0.9,,,,,,,,,k,purple,6096a175a2933cf1f6987fc4,2021-11-01_13h52.36.282,forced_choiceRT_color,2021.2.3,Win32,60.18295619,,,,,,,,8,Ontime,long,k,1,2.0597,8,0,32,3,1,,,,,
,0.23,,,,,,,,,j,red,6096a175a2933cf1f6987fc4,2021-11-01_13h52.36.282,forced_choiceRT_color,2021.2.3,Win32,60.18295619,,,,,,,,8,Fast,long,j,1,1.8915,8,1,33,2,1,,,,,
,1,,,,,,,,,d,orange,6096a175a2933cf1f6987fc4,2021-11-01_13h52.36.282,forced_choiceRT_color,2021.2.3,Win32,60.18295619,,,,,,,,8,Ontime,long,d,1,2.0542,8,2,34,0,1,,,,,
,1.6,,,,,,,,,d,orange,6096a175a2933cf1f6987fc4,2021-11-01_13h52.36.282,forced_choiceRT_color,2021.2.3,Win32,60.18295619,,,,,,,,8,Ontime,long,f,0,1.9774,8,3,35,0,1,,,,,
,1.86,,,,,,,,,j,red,6096a175a2933cf1f6987fc4,2021-11-01_13h52.36.282,forced_choiceRT_color,2021.2.3,Win32,60.18295619,,,,,,,,8,Ontime,long,d,0,2.0875,9,0,36,2,1,,,,,
,0.87,,,,,,,,,d,orange,6096a175a2933cf1f6987fc4,2021-11-01_13h52.36.282,forced_choiceRT_color,2021.2.3,Win32,60.18295619,,,,,,,,8,Ontime,long,d,1,2.0354,9,1,37,0,1,,,,,
,1.04,,,,,,,,,k,purple,6096a175a2933cf1f6987fc4,2021-11-01_13h52.36.282,forced_choiceRT_color,2021.2.3,Win32,60.18295619,,,,,,,,8,Ontime,long,k,1,1.9891,9,2,38,3,1,,,,,
,1.61,,,,,,,,,k,purple,6096a175a2933cf1f6987fc4,2021-11-01_13h52.36.282,forced_choiceRT_color,2021.2.3,Win32,60.18295619,,,,,,,,8,Slow,long,k,1,2.2098,9,3,39,3,1,,,,,
,,,,,,,,,,,,6096a175a2933cf1f6987fc4,2021-11-01_13h52.36.282,forced_choiceRT_color,2021.2.3,Win32,60.18295619,,,,,,,,,,,,,,,,,,,7,0,7,0,1
,0.95,,,,,,,,,j,red,6096a175a2933cf1f6987fc4,2021-11-01_13h52.36.282,forced_choiceRT_color,2021.2.3,Win32,60.18295619,,,,,,,,9,Ontime,long,j,1,2.0612,0,0,0,2,1,,,,,
,0.66,,,,,,,,,k,purple,6096a175a2933cf1f6987fc4,2021-11-01_13h52.36.282,forced_choiceRT_color,2021.2.3,Win32,60.18295619,,,,,,,,9,Slow,long,k,1,2.1143,0,1,1,3,1,,,,,
,0.87,,,,,,,,,f,blue,6096a175a2933cf1f6987fc4,2021-11-01_13h52.36.282,forced_choiceRT_color,2021.2.3,Win32,60.18295619,,,,,,,,9,Ontime,long,f,1,2.0775,0,2,2,1,1,,,,,
,0.55,,,,,,,,,k,purple,6096a175a2933cf1f6987fc4,2021-11-01_13h52.36.282,forced_choiceRT_color,2021.2.3,Win32,60.18295619,,,,,,,,9,Ontime,long,k,1,1.9325,0,3,3,3,1,,,,,
,0.56,,,,,,,,,k,purple,6096a175a2933cf1f6987fc4,2021-11-01_13h52.36.282,forced_choiceRT_color,2021.2.3,Win32,60.18295619,,,,,,,,9,Ontime,long,k,1,1.9467,1,0,4,3,1,,,,,
,0.21,,,,,,,,,d,orange,6096a175a2933cf1f6987fc4,2021-11-01_13h52.36.282,forced_choiceRT_color,2021.2.3,Win32,60.18295619,,,,,,,,9,Fast,long,d,1,1.7934,1,1,5,0,1,,,,,
,1.81,,,,,,,,,j,red,6096a175a2933cf1f6987fc4,2021-11-01_13h52.36.282,forced_choiceRT_color,2021.2.3,Win32,60.18295619,,,,,,,,9,Ontime,long,k,0,2.0427,1,2,6,2,1,,,,,
,0.18,,,,,,,,,d,orange,6096a175a2933cf1f6987fc4,2021-11-01_13h52.36.282,forced_choiceRT_color,2021.2.3,Win32,60.18295619,,,,,,,,9,Ontime,long,d,1,1.9708,1,3,7,0,1,,,,,
,1.56,,,,,,,,,f,blue,6096a175a2933cf1f6987fc4,2021-11-01_13h52.36.282,forced_choiceRT_color,2021.2.3,Win32,60.18295619,,,,,,,,9,Slow,long,f,1,2.12,2,0,8,1,1,,,,,
,0.15,,,,,,,,,f,blue,6096a175a2933cf1f6987fc4,2021-11-01_13h52.36.282,forced_choiceRT_color,2021.2.3,Win32,60.18295619,,,,,,,,9,Ontime,long,f,1,2.0979,2,1,9,1,1,,,,,
,0.36,,,,,,,,,d,orange,6096a175a2933cf1f6987fc4,2021-11-01_13h52.36.282,forced_choiceRT_color,2021.2.3,Win32,60.18295619,,,,,,,,9,Ontime,long,d,1,2.0922,2,2,10,0,1,,,,,
,0.94,,,,,,,,,j,red,6096a175a2933cf1f6987fc4,2021-11-01_13h52.36.282,forced_choiceRT_color,2021.2.3,Win32,60.18295619,,,,,,,,9,Slow,long,j,1,2.1454,2,3,11,2,1,,,,,
,1.86,,,,,,,,,f,blue,6096a175a2933cf1f6987fc4,2021-11-01_13h52.36.282,forced_choiceRT_color,2021.2.3,Win32,60.18295619,,,,,,,,9,Ontime,long,k,0,2.0242,3,0,12,1,1,,,,,
,0.08,,,,,,,,,j,red,6096a175a2933cf1f6987fc4,2021-11-01_13h52.36.282,forced_choiceRT_color,2021.2.3,Win32,60.18295619,,,,,,,,9,Ontime,long,j,1,2.0438,3,1,13,2,1,,,,,
,0.17,,,,,,,,,j,red,6096a175a2933cf1f6987fc4,2021-11-01_13h52.36.282,forced_choiceRT_color,2021.2.3,Win32,60.18295619,,,,,,,,9,Ontime,long,j,1,2.0403,3,2,14,2,1,,,,,
,1.12,,,,,,,,,d,orange,6096a175a2933cf1f6987fc4,2021-11-01_13h52.36.282,forced_choiceRT_color,2021.2.3,Win32,60.18295619,,,,,,,,9,Ontime,long,d,1,2.0528,3,3,15,0,1,,,,,
,0.34,,,,,,,,,j,red,6096a175a2933cf1f6987fc4,2021-11-01_13h52.36.282,forced_choiceRT_color,2021.2.3,Win32,60.18295619,,,,,,,,9,Ontime,long,j,1,1.9649,4,0,16,2,1,,,,,
,1.35,,,,,,,,,d,orange,6096a175a2933cf1f6987fc4,2021-11-01_13h52.36.282,forced_choiceRT_color,2021.2.3,Win32,60.18295619,,,,,,,,9,Ontime,long,d,1,2.0929,4,1,17,0,1,,,,,
,0,,,,,,,,,j,red,6096a175a2933cf1f6987fc4,2021-11-01_13h52.36.282,forced_choiceRT_color,2021.2.3,Win32,60.18295619,,,,,,,,9,Ontime,long,j,1,2.0016,4,2,18,2,1,,,,,
,0.63,,,,,,,,,k,purple,6096a175a2933cf1f6987fc4,2021-11-01_13h52.36.282,forced_choiceRT_color,2021.2.3,Win32,60.18295619,,,,,,,,9,Ontime,long,k,1,1.9953,4,3,19,3,1,,,,,
,1.41,,,,,,,,,f,blue,6096a175a2933cf1f6987fc4,2021-11-01_13h52.36.282,forced_choiceRT_color,2021.2.3,Win32,60.18295619,,,,,,,,9,Ontime,long,f,1,2.0309,5,0,20,1,1,,,,,
,1.48,,,,,,,,,k,purple,6096a175a2933cf1f6987fc4,2021-11-01_13h52.36.282,forced_choiceRT_color,2021.2.3,Win32,60.18295619,,,,,,,,9,Ontime,long,k,1,2.0668,5,1,21,3,1,,,,,
,1.72,,,,,,,,,k,purple,6096a175a2933cf1f6987fc4,2021-11-01_13h52.36.282,forced_choiceRT_color,2021.2.3,Win32,60.18295619,,,,,,,,9,Ontime,long,k,1,2.092,5,2,22,3,1,,,,,
,1.78,,,,,,,,,j,red,6096a175a2933cf1f6987fc4,2021-11-01_13h52.36.282,forced_choiceRT_color,2021.2.3,Win32,60.18295619,,,,,,,,9,Ontime,long,d,0,2.0939,5,3,23,2,1,,,,,
,0.55,,,,,,,,,d,orange,6096a175a2933cf1f6987fc4,2021-11-01_13h52.36.282,forced_choiceRT_color,2021.2.3,Win32,60.18295619,,,,,,,,9,Ontime,long,d,1,2.026,6,0,24,0,1,,,,,
,1.14,,,,,,,,,d,orange,6096a175a2933cf1f6987fc4,2021-11-01_13h52.36.282,forced_choiceRT_color,2021.2.3,Win32,60.18295619,,,,,,,,9,Ontime,long,d,1,2.079,6,1,25,0,1,,,,,
,0.98,,,,,,,,,d,orange,6096a175a2933cf1f6987fc4,2021-11-01_13h52.36.282,forced_choiceRT_color,2021.2.3,Win32,60.18295619,,,,,,,,9,Slow,long,d,1,2.1134,6,2,26,0,1,,,,,
,0.74,,,,,,,,,k,purple,6096a175a2933cf1f6987fc4,2021-11-01_13h52.36.282,forced_choiceRT_color,2021.2.3,Win32,60.18295619,,,,,,,,9,Ontime,long,k,1,1.9697,6,3,27,3,1,,,,,
,1.23,,,,,,,,,k,purple,6096a175a2933cf1f6987fc4,2021-11-01_13h52.36.282,forced_choiceRT_color,2021.2.3,Win32,60.18295619,,,,,,,,9,Ontime,long,k,1,1.918,7,0,28,3,1,,,,,
,1.99,,,,,,,,,j,red,6096a175a2933cf1f6987fc4,2021-11-01_13h52.36.282,forced_choiceRT_color,2021.2.3,Win32,60.18295619,,,,,,,,9,Ontime,long,k,0,2.0453,7,1,29,2,1,,,,,
,1.61,,,,,,,,,f,blue,6096a175a2933cf1f6987fc4,2021-11-01_13h52.36.282,forced_choiceRT_color,2021.2.3,Win32,60.18295619,,,,,,,,9,Slow,long,f,1,2.1586,7,2,30,1,1,,,,,
,0.19,,,,,,,,,d,orange,6096a175a2933cf1f6987fc4,2021-11-01_13h52.36.282,forced_choiceRT_color,2021.2.3,Win32,60.18295619,,,,,,,,9,Ontime,long,d,1,2.0746,7,3,31,0,1,,,,,
,1.02,,,,,,,,,k,purple,6096a175a2933cf1f6987fc4,2021-11-01_13h52.36.282,forced_choiceRT_color,2021.2.3,Win32,60.18295619,,,,,,,,9,Ontime,long,k,1,2.0172,8,0,32,3,1,,,,,
,1.03,,,,,,,,,f,blue,6096a175a2933cf1f6987fc4,2021-11-01_13h52.36.282,forced_choiceRT_color,2021.2.3,Win32,60.18295619,,,,,,,,9,Ontime,long,f,1,2.0459,8,1,33,1,1,,,,,
,0.94,,,,,,,,,f,blue,6096a175a2933cf1f6987fc4,2021-11-01_13h52.36.282,forced_choiceRT_color,2021.2.3,Win32,60.18295619,,,,,,,,9,Slow,long,f,1,2.1116,8,2,34,1,1,,,,,
,1.76,,,,,,,,,d,orange,6096a175a2933cf1f6987fc4,2021-11-01_13h52.36.282,forced_choiceRT_color,2021.2.3,Win32,60.18295619,,,,,,,,9,Ontime,long,k,0,2.0118,8,3,35,0,1,,,,,
,0.41,,,,,,,,,f,blue,6096a175a2933cf1f6987fc4,2021-11-01_13h52.36.282,forced_choiceRT_color,2021.2.3,Win32,60.18295619,,,,,,,,9,Ontime,long,f,1,2.0234,9,0,36,1,1,,,,,
,1.53,,,,,,,,,k,purple,6096a175a2933cf1f6987fc4,2021-11-01_13h52.36.282,forced_choiceRT_color,2021.2.3,Win32,60.18295619,,,,,,,,9,Slow,long,k,1,2.1286,9,1,37,3,1,,,,,
,0.37,,,,,,,,,f,blue,6096a175a2933cf1f6987fc4,2021-11-01_13h52.36.282,forced_choiceRT_color,2021.2.3,Win32,60.18295619,,,,,,,,9,Ontime,long,f,1,2.0031,9,2,38,1,1,,,,,
,1.79,,,,,,,,,j,red,6096a175a2933cf1f6987fc4,2021-11-01_13h52.36.282,forced_choiceRT_color,2021.2.3,Win32,60.18295619,,,,,,,,9,Ontime,long,d,0,2.0436,9,3,39,2,1,,,,,
,,,,,,,,,,,,6096a175a2933cf1f6987fc4,2021-11-01_13h52.36.282,forced_choiceRT_color,2021.2.3,Win32,60.18295619,,,,,,,,,,,,,,,,,,,8,0,8,0,1
,0.27,,,,,,,,,f,blue,6096a175a2933cf1f6987fc4,2021-11-01_13h52.36.282,forced_choiceRT_color,2021.2.3,Win32,60.18295619,,,,,,,,10,Ontime,long,f,1,1.9435,0,0,0,1,1,,,,,
,1.73,,,,,,,,,d,orange,6096a175a2933cf1f6987fc4,2021-11-01_13h52.36.282,forced_choiceRT_color,2021.2.3,Win32,60.18295619,,,,,,,,10,Slow,long,d,1,2.2015,0,1,1,0,1,,,,,
,1.52,,,,,,,,,k,purple,6096a175a2933cf1f6987fc4,2021-11-01_13h52.36.282,forced_choiceRT_color,2021.2.3,Win32,60.18295619,,,,,,,,10,Fast,long,k,1,1.8979,0,2,2,3,1,,,,,
,0,,,,,,,,,d,orange,6096a175a2933cf1f6987fc4,2021-11-01_13h52.36.282,forced_choiceRT_color,2021.2.3,Win32,60.18295619,,,,,,,,10,Ontime,long,d,1,2.0499,0,3,3,0,1,,,,,
,0.79,,,,,,,,,k,purple,6096a175a2933cf1f6987fc4,2021-11-01_13h52.36.282,forced_choiceRT_color,2021.2.3,Win32,60.18295619,,,,,,,,10,Ontime,long,k,1,2.0604,1,0,4,3,1,,,,,
,0.08,,,,,,,,,k,purple,6096a175a2933cf1f6987fc4,2021-11-01_13h52.36.282,forced_choiceRT_color,2021.2.3,Win32,60.18295619,,,,,,,,10,Ontime,long,k,1,1.9807,1,1,5,3,1,,,,,
,0.92,,,,,,,,,j,red,6096a175a2933cf1f6987fc4,2021-11-01_13h52.36.282,forced_choiceRT_color,2021.2.3,Win32,60.18295619,,,,,,,,10,Ontime,long,f,0,1.9689,1,2,6,2,1,,,,,
,0.96,,,,,,,,,j,red,6096a175a2933cf1f6987fc4,2021-11-01_13h52.36.282,forced_choiceRT_color,2021.2.3,Win32,60.18295619,,,,,,,,10,Ontime,long,f,0,2.0625,1,3,7,2,1,,,,,
,1.18,,,,,,,,,k,purple,6096a175a2933cf1f6987fc4,2021-11-01_13h52.36.282,forced_choiceRT_color,2021.2.3,Win32,60.18295619,,,,,,,,10,Ontime,long,k,1,2.0612,2,0,8,3,1,,,,,
,1.84,,,,,,,,,d,orange,6096a175a2933cf1f6987fc4,2021-11-01_13h52.36.282,forced_choiceRT_color,2021.2.3,Win32,60.18295619,,,,,,,,10,Slow,long,j,0,2.1772,2,1,9,0,1,,,,,
,1.97,,,,,,,,,k,purple,6096a175a2933cf1f6987fc4,2021-11-01_13h52.36.282,forced_choiceRT_color,2021.2.3,Win32,60.18295619,,,,,,,,10,Ontime,long,j,0,2.0304,2,2,10,3,1,,,,,
,1.48,,,,,,,,,d,orange,6096a175a2933cf1f6987fc4,2021-11-01_13h52.36.282,forced_choiceRT_color,2021.2.3,Win32,60.18295619,,,,,,,,10,Ontime,long,d,1,2.0361,2,3,11,0,1,,,,,
,0.87,,,,,,,,,f,blue,6096a175a2933cf1f6987fc4,2021-11-01_13h52.36.282,forced_choiceRT_color,2021.2.3,Win32,60.18295619,,,,,,,,10,Ontime,long,f,1,2.0436,3,0,12,1,1,,,,,
,0.78,,,,,,,,,k,purple,6096a175a2933cf1f6987fc4,2021-11-01_13h52.36.282,forced_choiceRT_color,2021.2.3,Win32,60.18295619,,,,,,,,10,Ontime,long,k,1,2.0457,3,1,13,3,1,,,,,
,0.35,,,,,,,,,f,blue,6096a175a2933cf1f6987fc4,2021-11-01_13h52.36.282,forced_choiceRT_color,2021.2.3,Win32,60.18295619,,,,,,,,10,Ontime,long,f,1,1.9586,3,2,14,1,1,,,,,
,1.26,,,,,,,,,d,orange,6096a175a2933cf1f6987fc4,2021-11-01_13h52.36.282,forced_choiceRT_color,2021.2.3,Win32,60.18295619,,,,,,,,10,Ontime,long,d,1,2.0717,3,3,15,0,1,,,,,
,1.22,,,,,,,,,j,red,6096a175a2933cf1f6987fc4,2021-11-01_13h52.36.282,forced_choiceRT_color,2021.2.3,Win32,60.18295619,,,,,,,,10,Slow,long,j,1,2.1589,4,0,16,2,1,,,,,
,0.34,,,,,,,,,j,red,6096a175a2933cf1f6987fc4,2021-11-01_13h52.36.282,forced_choiceRT_color,2021.2.3,Win32,60.18295619,,,,,,,,10,Slow,long,j,1,2.102,4,1,17,2,1,,,,,
,0.84,,,,,,,,,j,red,6096a175a2933cf1f6987fc4,2021-11-01_13h52.36.282,forced_choiceRT_color,2021.2.3,Win32,60.18295619,,,,,,,,10,Ontime,long,j,1,1.9966,4,2,18,2,1,,,,,
,1.39,,,,,,,,,d,orange,6096a175a2933cf1f6987fc4,2021-11-01_13h52.36.282,forced_choiceRT_color,2021.2.3,Win32,60.18295619,,,,,,,,10,Fast,long,d,1,1.8855,4,3,19,0,1,,,,,
,0.92,,,,,,,,,f,blue,6096a175a2933cf1f6987fc4,2021-11-01_13h52.36.282,forced_choiceRT_color,2021.2.3,Win32,60.18295619,,,,,,,,10,Ontime,long,f,1,1.9757,5,0,20,1,1,,,,,
,0.76,,,,,,,,,d,orange,6096a175a2933cf1f6987fc4,2021-11-01_13h52.36.282,forced_choiceRT_color,2021.2.3,Win32,60.18295619,,,,,,,,10,Ontime,long,d,1,1.9641,5,1,21,0,1,,,,,
,1.36,,,,,,,,,k,purple,6096a175a2933cf1f6987fc4,2021-11-01_13h52.36.282,forced_choiceRT_color,2021.2.3,Win32,60.18295619,,,,,,,,10,Ontime,long,k,1,2.0258,5,2,22,3,1,,,,,
,1.79,,,,,,,,,j,red,6096a175a2933cf1f6987fc4,2021-11-01_13h52.36.282,forced_choiceRT_color,2021.2.3,Win32,60.18295619,,,,,,,,10,Ontime,long,j,1,2.0772,5,3,23,2,1,,,,,
,1.39,,,,,,,,,d,orange,6096a175a2933cf1f6987fc4,2021-11-01_13h52.36.282,forced_choiceRT_color,2021.2.3,Win32,60.18295619,,,,,,,,10,Ontime,long,d,1,1.9978,6,0,24,0,1,,,,,
,1.43,,,,,,,,,k,purple,6096a175a2933cf1f6987fc4,2021-11-01_13h52.36.282,forced_choiceRT_color,2021.2.3,Win32,60.18295619,,,,,,,,10,Ontime,long,k,1,1.9932,6,1,25,3,1,,,,,
,1.09,,,,,,,,,k,purple,6096a175a2933cf1f6987fc4,2021-11-01_13h52.36.282,forced_choiceRT_color,2021.2.3,Win32,60.18295619,,,,,,,,10,Ontime,long,k,1,2.0784,6,2,26,3,1,,,,,
,0.6,,,,,,,,,f,blue,6096a175a2933cf1f6987fc4,2021-11-01_13h52.36.282,forced_choiceRT_color,2021.2.3,Win32,60.18295619,,,,,,,,10,Ontime,long,f,1,1.9193,6,3,27,1,1,,,,,
,0.19,,,,,,,,,d,orange,6096a175a2933cf1f6987fc4,2021-11-01_13h52.36.282,forced_choiceRT_color,2021.2.3,Win32,60.18295619,,,,,,,,10,Ontime,long,d,1,1.9724,7,0,28,0,1,,,,,
,1.76,,,,,,,,,f,blue,6096a175a2933cf1f6987fc4,2021-11-01_13h52.36.282,forced_choiceRT_color,2021.2.3,Win32,60.18295619,,,,,,,,10,Ontime,long,j,0,2.0337,7,1,29,1,1,,,,,
,1.86,,,,,,,,,j,red,6096a175a2933cf1f6987fc4,2021-11-01_13h52.36.282,forced_choiceRT_color,2021.2.3,Win32,60.18295619,,,,,,,,10,Ontime,long,f,0,2.0189,7,2,30,2,1,,,,,
,1.99,,,,,,,,,f,blue,6096a175a2933cf1f6987fc4,2021-11-01_13h52.36.282,forced_choiceRT_color,2021.2.3,Win32,60.18295619,,,,,,,,10,Slow,long,j,0,2.1121,7,3,31,1,1,,,,,
,0.52,,,,,,,,,f,blue,6096a175a2933cf1f6987fc4,2021-11-01_13h52.36.282,forced_choiceRT_color,2021.2.3,Win32,60.18295619,,,,,,,,10,Ontime,long,f,1,2.0103,8,0,32,1,1,,,,,
,1.99,,,,,,,,,j,red,6096a175a2933cf1f6987fc4,2021-11-01_13h52.36.282,forced_choiceRT_color,2021.2.3,Win32,60.18295619,,,,,,,,10,Slow,long,f,0,2.1814,8,1,33,2,1,,,,,
,0.7,,,,,,,,,k,purple,6096a175a2933cf1f6987fc4,2021-11-01_13h52.36.282,forced_choiceRT_color,2021.2.3,Win32,60.18295619,,,,,,,,10,Ontime,long,k,1,1.9601,8,2,34,3,1,,,,,
,0.63,,,,,,,,,j,red,6096a175a2933cf1f6987fc4,2021-11-01_13h52.36.282,forced_choiceRT_color,2021.2.3,Win32,60.18295619,,,,,,,,10,Fast,long,j,1,1.8785,8,3,35,2,1,,,,,
,1.19,,,,,,,,,j,red,6096a175a2933cf1f6987fc4,2021-11-01_13h52.36.282,forced_choiceRT_color,2021.2.3,Win32,60.18295619,,,,,,,,10,Slow,long,j,1,2.1516,9,0,36,2,1,,,,,
,1.96,,,,,,,,,f,blue,6096a175a2933cf1f6987fc4,2021-11-01_13h52.36.282,forced_choiceRT_color,2021.2.3,Win32,60.18295619,,,,,,,,10,Ontime,long,j,0,1.9368,9,1,37,1,1,,,,,
,1.2,,,,,,,,,d,orange,6096a175a2933cf1f6987fc4,2021-11-01_13h52.36.282,forced_choiceRT_color,2021.2.3,Win32,60.18295619,,,,,,,,10,Ontime,long,j,0,1.9361,9,2,38,0,1,,,,,
,1.21,,,,,,,,,f,blue,6096a175a2933cf1f6987fc4,2021-11-01_13h52.36.282,forced_choiceRT_color,2021.2.3,Win32,60.18295619,,,,,,,,10,Fast,long,d,0,1.7264,9,3,39,1,1,,,,,
,,,,,,,,,,,,6096a175a2933cf1f6987fc4,2021-11-01_13h52.36.282,forced_choiceRT_color,2021.2.3,Win32,60.18295619,,,,,,,,,,,,,,,,,,,9,0,9,0,1
