IP_Addresss,target_onset,trial_resp_sp.keys,trial_resp_sp.corr,trial_resp_sp.rt,trials_train_loop.thisRepN,trials_train_loop.thisTrialN,trials_train_loop.thisN,trials_train_loop.thisIndex,trials_train_loop.ran,correct_key,color,participant,date,expName,psychopyVersion,OS,frameRate,trial_resp_timing.keys,trial_resp_timing.rt,trials_train_timing.thisRepN,trials_train_timing.thisTrialN,trials_train_timing.thisN,trials_train_timing.thisIndex,trials_train_timing.ran,block_id,ontime,feedback_cond,forcedRT_resp.keys,forcedRT_resp.corr,forcedRT_resp.rt,trials.thisRepN,trials.thisTrialN,trials.thisN,trials.thisIndex,trials.ran,blocks.thisRepN,blocks.thisTrialN,blocks.thisN,blocks.thisIndex,blocks.ran
205.189.58.84,0,d,1,0.9671,0,0,0,0,1,d,orange,60fd7cda95936026b622bef3,2021-11-03_11h37.46.427,forced_choiceRT_color,2021.2.3,MacIntel,60.0024001,,,,,,,,,,,,,,,,,,,,,,,
,0,k,1,0.8217,0,1,1,3,1,k,purple,60fd7cda95936026b622bef3,2021-11-03_11h37.46.427,forced_choiceRT_color,2021.2.3,MacIntel,60.0024001,,,,,,,,,,,,,,,,,,,,,,,
,0,j,1,0.5175,0,2,2,2,1,j,red,60fd7cda95936026b622bef3,2021-11-03_11h37.46.427,forced_choiceRT_color,2021.2.3,MacIntel,60.0024001,,,,,,,,,,,,,,,,,,,,,,,
,0,f,1,0.5501,0,3,3,1,1,f,blue,60fd7cda95936026b622bef3,2021-11-03_11h37.46.427,forced_choiceRT_color,2021.2.3,MacIntel,60.0024001,,,,,,,,,,,,,,,,,,,,,,,
,0,f,1,0.4834,1,0,4,1,1,f,blue,60fd7cda95936026b622bef3,2021-11-03_11h37.46.427,forced_choiceRT_color,2021.2.3,MacIntel,60.0024001,,,,,,,,,,,,,,,,,,,,,,,
,0,j,1,0.6405,1,1,5,2,1,j,red,60fd7cda95936026b622bef3,2021-11-03_11h37.46.427,forced_choiceRT_color,2021.2.3,MacIntel,60.0024001,,,,,,,,,,,,,,,,,,,,,,,
,0,f,1,0.6293,1,2,6,1,1,f,blue,60fd7cda95936026b622bef3,2021-11-03_11h37.46.427,forced_choiceRT_color,2021.2.3,MacIntel,60.0024001,,,,,,,,,,,,,,,,,,,,,,,
,0,d,1,0.9402,1,3,7,0,1,d,orange,60fd7cda95936026b622bef3,2021-11-03_11h37.46.427,forced_choiceRT_color,2021.2.3,MacIntel,60.0024001,,,,,,,,,,,,,,,,,,,,,,,
,0,d,1,0.3695,2,0,8,0,1,d,orange,60fd7cda95936026b622bef3,2021-11-03_11h37.46.427,forced_choiceRT_color,2021.2.3,MacIntel,60.0024001,,,,,,,,,,,,,,,,,,,,,,,
,0,d,1,0.3589,2,1,9,0,1,d,orange,60fd7cda95936026b622bef3,2021-11-03_11h37.46.427,forced_choiceRT_color,2021.2.3,MacIntel,60.0024001,,,,,,,,,,,,,,,,,,,,,,,
,0,d,1,0.6232,2,2,10,0,1,d,orange,60fd7cda95936026b622bef3,2021-11-03_11h37.46.427,forced_choiceRT_color,2021.2.3,MacIntel,60.0024001,,,,,,,,,,,,,,,,,,,,,,,
,0,j,1,0.8828,2,3,11,2,1,j,red,60fd7cda95936026b622bef3,2021-11-03_11h37.46.427,forced_choiceRT_color,2021.2.3,MacIntel,60.0024001,,,,,,,,,,,,,,,,,,,,,,,
,0,k,1,0.4512,3,0,12,3,1,k,purple,60fd7cda95936026b622bef3,2021-11-03_11h37.46.427,forced_choiceRT_color,2021.2.3,MacIntel,60.0024001,,,,,,,,,,,,,,,,,,,,,,,
,0,f,1,0.7185,3,1,13,1,1,f,blue,60fd7cda95936026b622bef3,2021-11-03_11h37.46.427,forced_choiceRT_color,2021.2.3,MacIntel,60.0024001,,,,,,,,,,,,,,,,,,,,,,,
,0,j,1,0.5052,3,2,14,2,1,j,red,60fd7cda95936026b622bef3,2021-11-03_11h37.46.427,forced_choiceRT_color,2021.2.3,MacIntel,60.0024001,,,,,,,,,,,,,,,,,,,,,,,
,0,f,1,0.95,3,3,15,1,1,f,blue,60fd7cda95936026b622bef3,2021-11-03_11h37.46.427,forced_choiceRT_color,2021.2.3,MacIntel,60.0024001,,,,,,,,,,,,,,,,,,,,,,,
,0,k,1,0.7004,4,0,16,3,1,k,purple,60fd7cda95936026b622bef3,2021-11-03_11h37.46.427,forced_choiceRT_color,2021.2.3,MacIntel,60.0024001,,,,,,,,,,,,,,,,,,,,,,,
,0,f,1,0.7204,4,1,17,1,1,f,blue,60fd7cda95936026b622bef3,2021-11-03_11h37.46.427,forced_choiceRT_color,2021.2.3,MacIntel,60.0024001,,,,,,,,,,,,,,,,,,,,,,,
,0,k,1,0.6865,4,2,18,3,1,k,purple,60fd7cda95936026b622bef3,2021-11-03_11h37.46.427,forced_choiceRT_color,2021.2.3,MacIntel,60.0024001,,,,,,,,,,,,,,,,,,,,,,,
,0,j,1,0.6018,4,3,19,2,1,j,red,60fd7cda95936026b622bef3,2021-11-03_11h37.46.427,forced_choiceRT_color,2021.2.3,MacIntel,60.0024001,,,,,,,,,,,,,,,,,,,,,,,
,0,f,1,0.5207,5,0,20,1,1,f,blue,60fd7cda95936026b622bef3,2021-11-03_11h37.46.427,forced_choiceRT_color,2021.2.3,MacIntel,60.0024001,,,,,,,,,,,,,,,,,,,,,,,
,0,k,1,0.5828,5,1,21,3,1,k,purple,60fd7cda95936026b622bef3,2021-11-03_11h37.46.427,forced_choiceRT_color,2021.2.3,MacIntel,60.0024001,,,,,,,,,,,,,,,,,,,,,,,
,0,d,1,0.6144,5,2,22,0,1,d,orange,60fd7cda95936026b622bef3,2021-11-03_11h37.46.427,forced_choiceRT_color,2021.2.3,MacIntel,60.0024001,,,,,,,,,,,,,,,,,,,,,,,
,0,j,1,0.5174,5,3,23,2,1,j,red,60fd7cda95936026b622bef3,2021-11-03_11h37.46.427,forced_choiceRT_color,2021.2.3,MacIntel,60.0024001,,,,,,,,,,,,,,,,,,,,,,,
,0,k,1,0.4495,6,0,24,3,1,k,purple,60fd7cda95936026b622bef3,2021-11-03_11h37.46.427,forced_choiceRT_color,2021.2.3,MacIntel,60.0024001,,,,,,,,,,,,,,,,,,,,,,,
,0,j,1,0.6167,6,1,25,2,1,j,red,60fd7cda95936026b622bef3,2021-11-03_11h37.46.427,forced_choiceRT_color,2021.2.3,MacIntel,60.0024001,,,,,,,,,,,,,,,,,,,,,,,
,0,f,1,0.6048,6,2,26,1,1,f,blue,60fd7cda95936026b622bef3,2021-11-03_11h37.46.427,forced_choiceRT_color,2021.2.3,MacIntel,60.0024001,,,,,,,,,,,,,,,,,,,,,,,
,0,j,1,0.6387,6,3,27,2,1,j,red,60fd7cda95936026b622bef3,2021-11-03_11h37.46.427,forced_choiceRT_color,2021.2.3,MacIntel,60.0024001,,,,,,,,,,,,,,,,,,,,,,,
,0,d,1,0.6832,7,0,28,0,1,d,orange,60fd7cda95936026b622bef3,2021-11-03_11h37.46.427,forced_choiceRT_color,2021.2.3,MacIntel,60.0024001,,,,,,,,,,,,,,,,,,,,,,,
,0,k,1,0.4835,7,1,29,3,1,k,purple,60fd7cda95936026b622bef3,2021-11-03_11h37.46.427,forced_choiceRT_color,2021.2.3,MacIntel,60.0024001,,,,,,,,,,,,,,,,,,,,,,,
,0,j,1,0.4137,7,2,30,2,1,j,red,60fd7cda95936026b622bef3,2021-11-03_11h37.46.427,forced_choiceRT_color,2021.2.3,MacIntel,60.0024001,,,,,,,,,,,,,,,,,,,,,,,
,0,k,1,0.3838,7,3,31,3,1,k,purple,60fd7cda95936026b622bef3,2021-11-03_11h37.46.427,forced_choiceRT_color,2021.2.3,MacIntel,60.0024001,,,,,,,,,,,,,,,,,,,,,,,
,0,j,1,0.4843,8,0,32,2,1,j,red,60fd7cda95936026b622bef3,2021-11-03_11h37.46.427,forced_choiceRT_color,2021.2.3,MacIntel,60.0024001,,,,,,,,,,,,,,,,,,,,,,,
,0,d,1,0.562,8,1,33,0,1,d,orange,60fd7cda95936026b622bef3,2021-11-03_11h37.46.427,forced_choiceRT_color,2021.2.3,MacIntel,60.0024001,,,,,,,,,,,,,,,,,,,,,,,
,0,f,1,0.4841,8,2,34,1,1,f,blue,60fd7cda95936026b622bef3,2021-11-03_11h37.46.427,forced_choiceRT_color,2021.2.3,MacIntel,60.0024001,,,,,,,,,,,,,,,,,,,,,,,
,0,f,1,0.4346,8,3,35,1,1,f,blue,60fd7cda95936026b622bef3,2021-11-03_11h37.46.427,forced_choiceRT_color,2021.2.3,MacIntel,60.0024001,,,,,,,,,,,,,,,,,,,,,,,
,0,j,0,0.4141,9,0,36,0,1,d,orange,60fd7cda95936026b622bef3,2021-11-03_11h37.46.427,forced_choiceRT_color,2021.2.3,MacIntel,60.0024001,,,,,,,,,,,,,,,,,,,,,,,
,0,k,1,0.7185,9,1,37,3,1,k,purple,60fd7cda95936026b622bef3,2021-11-03_11h37.46.427,forced_choiceRT_color,2021.2.3,MacIntel,60.0024001,,,,,,,,,,,,,,,,,,,,,,,
,0,k,1,0.5246,9,2,38,3,1,k,purple,60fd7cda95936026b622bef3,2021-11-03_11h37.46.427,forced_choiceRT_color,2021.2.3,MacIntel,60.0024001,,,,,,,,,,,,,,,,,,,,,,,
,0,f,1,0.6993,9,3,39,1,1,f,blue,60fd7cda95936026b622bef3,2021-11-03_11h37.46.427,forced_choiceRT_color,2021.2.3,MacIntel,60.0024001,,,,,,,,,,,,,,,,,,,,,,,
,0,d,1,0.5946,10,0,40,0,1,d,orange,60fd7cda95936026b622bef3,2021-11-03_11h37.46.427,forced_choiceRT_color,2021.2.3,MacIntel,60.0024001,,,,,,,,,,,,,,,,,,,,,,,
,0,d,1,0.3809,10,1,41,0,1,d,orange,60fd7cda95936026b622bef3,2021-11-03_11h37.46.427,forced_choiceRT_color,2021.2.3,MacIntel,60.0024001,,,,,,,,,,,,,,,,,,,,,,,
,0,k,1,0.5721,10,2,42,3,1,k,purple,60fd7cda95936026b622bef3,2021-11-03_11h37.46.427,forced_choiceRT_color,2021.2.3,MacIntel,60.0024001,,,,,,,,,,,,,,,,,,,,,,,
,0,d,0,0.7346,10,3,43,1,1,f,blue,60fd7cda95936026b622bef3,2021-11-03_11h37.46.427,forced_choiceRT_color,2021.2.3,MacIntel,60.0024001,,,,,,,,,,,,,,,,,,,,,,,
,0,j,1,0.7006,11,0,44,2,1,j,red,60fd7cda95936026b622bef3,2021-11-03_11h37.46.427,forced_choiceRT_color,2021.2.3,MacIntel,60.0024001,,,,,,,,,,,,,,,,,,,,,,,
,0,k,1,0.5037,11,1,45,3,1,k,purple,60fd7cda95936026b622bef3,2021-11-03_11h37.46.427,forced_choiceRT_color,2021.2.3,MacIntel,60.0024001,,,,,,,,,,,,,,,,,,,,,,,
,0,d,1,0.6703,11,2,46,0,1,d,orange,60fd7cda95936026b622bef3,2021-11-03_11h37.46.427,forced_choiceRT_color,2021.2.3,MacIntel,60.0024001,,,,,,,,,,,,,,,,,,,,,,,
,0,j,1,0.6039,11,3,47,2,1,j,red,60fd7cda95936026b622bef3,2021-11-03_11h37.46.427,forced_choiceRT_color,2021.2.3,MacIntel,60.0024001,,,,,,,,,,,,,,,,,,,,,,,
,0,f,1,0.5887,12,0,48,1,1,f,blue,60fd7cda95936026b622bef3,2021-11-03_11h37.46.427,forced_choiceRT_color,2021.2.3,MacIntel,60.0024001,,,,,,,,,,,,,,,,,,,,,,,
,0,j,1,0.5603,12,1,49,2,1,j,red,60fd7cda95936026b622bef3,2021-11-03_11h37.46.427,forced_choiceRT_color,2021.2.3,MacIntel,60.0024001,,,,,,,,,,,,,,,,,,,,,,,
,0,d,1,0.5338,12,2,50,0,1,d,orange,60fd7cda95936026b622bef3,2021-11-03_11h37.46.427,forced_choiceRT_color,2021.2.3,MacIntel,60.0024001,,,,,,,,,,,,,,,,,,,,,,,
,0,d,1,0.4429,12,3,51,0,1,d,orange,60fd7cda95936026b622bef3,2021-11-03_11h37.46.427,forced_choiceRT_color,2021.2.3,MacIntel,60.0024001,,,,,,,,,,,,,,,,,,,,,,,
,0,k,0,0.7284,13,0,52,2,1,j,red,60fd7cda95936026b622bef3,2021-11-03_11h37.46.427,forced_choiceRT_color,2021.2.3,MacIntel,60.0024001,,,,,,,,,,,,,,,,,,,,,,,
,0,k,1,0.5776,13,1,53,3,1,k,purple,60fd7cda95936026b622bef3,2021-11-03_11h37.46.427,forced_choiceRT_color,2021.2.3,MacIntel,60.0024001,,,,,,,,,,,,,,,,,,,,,,,
,0,d,1,0.6656,13,2,54,0,1,d,orange,60fd7cda95936026b622bef3,2021-11-03_11h37.46.427,forced_choiceRT_color,2021.2.3,MacIntel,60.0024001,,,,,,,,,,,,,,,,,,,,,,,
,0,k,1,0.7724,13,3,55,3,1,k,purple,60fd7cda95936026b622bef3,2021-11-03_11h37.46.427,forced_choiceRT_color,2021.2.3,MacIntel,60.0024001,,,,,,,,,,,,,,,,,,,,,,,
,0,f,1,0.6168,14,0,56,1,1,f,blue,60fd7cda95936026b622bef3,2021-11-03_11h37.46.427,forced_choiceRT_color,2021.2.3,MacIntel,60.0024001,,,,,,,,,,,,,,,,,,,,,,,
,0,j,1,0.5344,14,1,57,2,1,j,red,60fd7cda95936026b622bef3,2021-11-03_11h37.46.427,forced_choiceRT_color,2021.2.3,MacIntel,60.0024001,,,,,,,,,,,,,,,,,,,,,,,
,0,k,1,0.5837,14,2,58,3,1,k,purple,60fd7cda95936026b622bef3,2021-11-03_11h37.46.427,forced_choiceRT_color,2021.2.3,MacIntel,60.0024001,,,,,,,,,,,,,,,,,,,,,,,
,0,f,1,0.6946,14,3,59,1,1,f,blue,60fd7cda95936026b622bef3,2021-11-03_11h37.46.427,forced_choiceRT_color,2021.2.3,MacIntel,60.0024001,,,,,,,,,,,,,,,,,,,,,,,
,,,,,,,,,,,,60fd7cda95936026b622bef3,2021-11-03_11h37.46.427,forced_choiceRT_color,2021.2.3,MacIntel,60.0024001,d,4.9277,0,0,0,0,1,,,,,,,,,,,,,,,,
,,,,,,,,,,,,60fd7cda95936026b622bef3,2021-11-03_11h37.46.427,forced_choiceRT_color,2021.2.3,MacIntel,60.0024001,d,1.3668,1,0,1,0,1,,,,,,,,,,,,,,,,
,,,,,,,,,,,,60fd7cda95936026b622bef3,2021-11-03_11h37.46.427,forced_choiceRT_color,2021.2.3,MacIntel,60.0024001,d,1.4296,2,0,2,0,1,,,,,,,,,,,,,,,,
,,,,,,,,,,,,60fd7cda95936026b622bef3,2021-11-03_11h37.46.427,forced_choiceRT_color,2021.2.3,MacIntel,60.0024001,d,2.2532,3,0,3,0,1,,,,,,,,,,,,,,,,
,,,,,,,,,,,,60fd7cda95936026b622bef3,2021-11-03_11h37.46.427,forced_choiceRT_color,2021.2.3,MacIntel,60.0024001,d,2.0896,4,0,4,0,1,,,,,,,,,,,,,,,,
,,,,,,,,,,,,60fd7cda95936026b622bef3,2021-11-03_11h37.46.427,forced_choiceRT_color,2021.2.3,MacIntel,60.0024001,d,2.0994,5,0,5,0,1,,,,,,,,,,,,,,,,
,,,,,,,,,,,,60fd7cda95936026b622bef3,2021-11-03_11h37.46.427,forced_choiceRT_color,2021.2.3,MacIntel,60.0024001,d,2.0171,6,0,6,0,1,,,,,,,,,,,,,,,,
,,,,,,,,,,,,60fd7cda95936026b622bef3,2021-11-03_11h37.46.427,forced_choiceRT_color,2021.2.3,MacIntel,60.0024001,d,2.1332,7,0,7,0,1,,,,,,,,,,,,,,,,
,,,,,,,,,,,,60fd7cda95936026b622bef3,2021-11-03_11h37.46.427,forced_choiceRT_color,2021.2.3,MacIntel,60.0024001,d,2.0456,8,0,8,0,1,,,,,,,,,,,,,,,,
,,,,,,,,,,,,60fd7cda95936026b622bef3,2021-11-03_11h37.46.427,forced_choiceRT_color,2021.2.3,MacIntel,60.0024001,j,2.1449,9,0,9,0,1,,,,,,,,,,,,,,,,
,,,,,,,,,,,,60fd7cda95936026b622bef3,2021-11-03_11h37.46.427,forced_choiceRT_color,2021.2.3,MacIntel,60.0024001,j,2,10,0,10,0,1,,,,,,,,,,,,,,,,
,,,,,,,,,,,,60fd7cda95936026b622bef3,2021-11-03_11h37.46.427,forced_choiceRT_color,2021.2.3,MacIntel,60.0024001,j,1.978,11,0,11,0,1,,,,,,,,,,,,,,,,
,,,,,,,,,,,,60fd7cda95936026b622bef3,2021-11-03_11h37.46.427,forced_choiceRT_color,2021.2.3,MacIntel,60.0024001,j,1.9837,12,0,12,0,1,,,,,,,,,,,,,,,,
,,,,,,,,,,,,60fd7cda95936026b622bef3,2021-11-03_11h37.46.427,forced_choiceRT_color,2021.2.3,MacIntel,60.0024001,j,1.946,13,0,13,0,1,,,,,,,,,,,,,,,,
,,,,,,,,,,,,60fd7cda95936026b622bef3,2021-11-03_11h37.46.427,forced_choiceRT_color,2021.2.3,MacIntel,60.0024001,j,1.9626,14,0,14,0,1,,,,,,,,,,,,,,,,
,,,,,,,,,,,,60fd7cda95936026b622bef3,2021-11-03_11h37.46.427,forced_choiceRT_color,2021.2.3,MacIntel,60.0024001,j,1.9808,15,0,15,0,1,,,,,,,,,,,,,,,,
,,,,,,,,,,,,60fd7cda95936026b622bef3,2021-11-03_11h37.46.427,forced_choiceRT_color,2021.2.3,MacIntel,60.0024001,j,2.019,16,0,16,0,1,,,,,,,,,,,,,,,,
,,,,,,,,,,,,60fd7cda95936026b622bef3,2021-11-03_11h37.46.427,forced_choiceRT_color,2021.2.3,MacIntel,60.0024001,j,2.0351,17,0,17,0,1,,,,,,,,,,,,,,,,
,,,,,,,,,,,,60fd7cda95936026b622bef3,2021-11-03_11h37.46.427,forced_choiceRT_color,2021.2.3,MacIntel,60.0024001,j,2.0399,18,0,18,0,1,,,,,,,,,,,,,,,,
,,,,,,,,,,,,60fd7cda95936026b622bef3,2021-11-03_11h37.46.427,forced_choiceRT_color,2021.2.3,MacIntel,60.0024001,j,2.1326,19,0,19,0,1,,,,,,,,,,,,,,,,
,0.42,,,,,,,,,f,blue,60fd7cda95936026b622bef3,2021-11-03_11h37.46.427,forced_choiceRT_color,2021.2.3,MacIntel,60.0024001,,,,,,,,1,Ontime,long,d,0,1.9107,0,0,0,1,1,,,,,
,0.84,,,,,,,,,d,orange,60fd7cda95936026b622bef3,2021-11-03_11h37.46.427,forced_choiceRT_color,2021.2.3,MacIntel,60.0024001,,,,,,,,1,Ontime,long,d,1,1.9701,0,1,1,0,1,,,,,
,1.29,,,,,,,,,d,orange,60fd7cda95936026b622bef3,2021-11-03_11h37.46.427,forced_choiceRT_color,2021.2.3,MacIntel,60.0024001,,,,,,,,1,Ontime,long,d,1,2.0002,0,2,2,0,1,,,,,
,0.74,,,,,,,,,k,purple,60fd7cda95936026b622bef3,2021-11-03_11h37.46.427,forced_choiceRT_color,2021.2.3,MacIntel,60.0024001,,,,,,,,1,Ontime,long,k,1,2.0521,0,3,3,3,1,,,,,
,1.4,,,,,,,,,f,blue,60fd7cda95936026b622bef3,2021-11-03_11h37.46.427,forced_choiceRT_color,2021.2.3,MacIntel,60.0024001,,,,,,,,1,Ontime,long,d,0,1.9726,1,0,4,1,1,,,,,
,0.38,,,,,,,,,k,purple,60fd7cda95936026b622bef3,2021-11-03_11h37.46.427,forced_choiceRT_color,2021.2.3,MacIntel,60.0024001,,,,,,,,1,Ontime,long,k,1,2.0009,1,1,5,3,1,,,,,
,1.32,,,,,,,,,d,orange,60fd7cda95936026b622bef3,2021-11-03_11h37.46.427,forced_choiceRT_color,2021.2.3,MacIntel,60.0024001,,,,,,,,1,Ontime,long,d,1,2.061,1,2,6,0,1,,,,,
,1.01,,,,,,,,,f,blue,60fd7cda95936026b622bef3,2021-11-03_11h37.46.427,forced_choiceRT_color,2021.2.3,MacIntel,60.0024001,,,,,,,,1,Ontime,long,f,1,2.0182,1,3,7,1,1,,,,,
,0.14,,,,,,,,,f,blue,60fd7cda95936026b622bef3,2021-11-03_11h37.46.427,forced_choiceRT_color,2021.2.3,MacIntel,60.0024001,,,,,,,,1,Ontime,long,f,1,1.9651,2,0,8,1,1,,,,,
,0.82,,,,,,,,,d,orange,60fd7cda95936026b622bef3,2021-11-03_11h37.46.427,forced_choiceRT_color,2021.2.3,MacIntel,60.0024001,,,,,,,,1,Ontime,long,d,1,1.9661,2,1,9,0,1,,,,,
,0.59,,,,,,,,,j,red,60fd7cda95936026b622bef3,2021-11-03_11h37.46.427,forced_choiceRT_color,2021.2.3,MacIntel,60.0024001,,,,,,,,1,Ontime,long,j,1,2.0427,2,2,10,2,1,,,,,
,0.97,,,,,,,,,j,red,60fd7cda95936026b622bef3,2021-11-03_11h37.46.427,forced_choiceRT_color,2021.2.3,MacIntel,60.0024001,,,,,,,,1,Ontime,long,j,1,2.0616,2,3,11,2,1,,,,,
,1.02,,,,,,,,,f,blue,60fd7cda95936026b622bef3,2021-11-03_11h37.46.427,forced_choiceRT_color,2021.2.3,MacIntel,60.0024001,,,,,,,,1,Slow,long,f,1,2.1089,3,0,12,1,1,,,,,
,1.92,,,,,,,,,k,purple,60fd7cda95936026b622bef3,2021-11-03_11h37.46.427,forced_choiceRT_color,2021.2.3,MacIntel,60.0024001,,,,,,,,1,Slow,long,k,1,2.3507,3,1,13,3,1,,,,,
,1.12,,,,,,,,,j,red,60fd7cda95936026b622bef3,2021-11-03_11h37.46.427,forced_choiceRT_color,2021.2.3,MacIntel,60.0024001,,,,,,,,1,Ontime,long,j,1,2.0355,3,2,14,2,1,,,,,
,0.71,,,,,,,,,d,orange,60fd7cda95936026b622bef3,2021-11-03_11h37.46.427,forced_choiceRT_color,2021.2.3,MacIntel,60.0024001,,,,,,,,1,Ontime,long,d,1,1.9956,3,3,15,0,1,,,,,
,1.34,,,,,,,,,k,purple,60fd7cda95936026b622bef3,2021-11-03_11h37.46.427,forced_choiceRT_color,2021.2.3,MacIntel,60.0024001,,,,,,,,1,Ontime,long,k,1,1.9346,4,0,16,3,1,,,,,
,1.42,,,,,,,,,d,orange,60fd7cda95936026b622bef3,2021-11-03_11h37.46.427,forced_choiceRT_color,2021.2.3,MacIntel,60.0024001,,,,,,,,1,Ontime,long,k,0,1.9017,4,1,17,0,1,,,,,
,1.45,,,,,,,,,k,purple,60fd7cda95936026b622bef3,2021-11-03_11h37.46.427,forced_choiceRT_color,2021.2.3,MacIntel,60.0024001,,,,,,,,1,Ontime,long,k,1,1.919,4,2,18,3,1,,,,,
,1.24,,,,,,,,,j,red,60fd7cda95936026b622bef3,2021-11-03_11h37.46.427,forced_choiceRT_color,2021.2.3,MacIntel,60.0024001,,,,,,,,1,Ontime,long,j,1,2.0187,4,3,19,2,1,,,,,
,1.5,,,,,,,,,k,purple,60fd7cda95936026b622bef3,2021-11-03_11h37.46.427,forced_choiceRT_color,2021.2.3,MacIntel,60.0024001,,,,,,,,1,Ontime,long,k,1,1.9662,5,0,20,3,1,,,,,
,1.74,,,,,,,,,j,red,60fd7cda95936026b622bef3,2021-11-03_11h37.46.427,forced_choiceRT_color,2021.2.3,MacIntel,60.0024001,,,,,,,,1,Ontime,long,d,0,1.9993,5,1,21,2,1,,,,,
,0.55,,,,,,,,,j,red,60fd7cda95936026b622bef3,2021-11-03_11h37.46.427,forced_choiceRT_color,2021.2.3,MacIntel,60.0024001,,,,,,,,1,Ontime,long,j,1,1.9689,5,2,22,2,1,,,,,
,0.32,,,,,,,,,k,purple,60fd7cda95936026b622bef3,2021-11-03_11h37.46.427,forced_choiceRT_color,2021.2.3,MacIntel,60.0024001,,,,,,,,1,Ontime,long,k,1,1.9623,5,3,23,3,1,,,,,
,0.34,,,,,,,,,d,orange,60fd7cda95936026b622bef3,2021-11-03_11h37.46.427,forced_choiceRT_color,2021.2.3,MacIntel,60.0024001,,,,,,,,1,Ontime,long,d,1,1.9328,6,0,24,0,1,,,,,
,0.61,,,,,,,,,f,blue,60fd7cda95936026b622bef3,2021-11-03_11h37.46.427,forced_choiceRT_color,2021.2.3,MacIntel,60.0024001,,,,,,,,1,Ontime,long,f,1,1.9837,6,1,25,1,1,,,,,
,0.9,,,,,,,,,f,blue,60fd7cda95936026b622bef3,2021-11-03_11h37.46.427,forced_choiceRT_color,2021.2.3,MacIntel,60.0024001,,,,,,,,1,Ontime,long,f,1,1.9523,6,2,26,1,1,,,,,
,0.59,,,,,,,,,j,red,60fd7cda95936026b622bef3,2021-11-03_11h37.46.427,forced_choiceRT_color,2021.2.3,MacIntel,60.0024001,,,,,,,,1,Ontime,long,j,1,2.0277,6,3,27,2,1,,,,,
,0.64,,,,,,,,,k,purple,60fd7cda95936026b622bef3,2021-11-03_11h37.46.427,forced_choiceRT_color,2021.2.3,MacIntel,60.0024001,,,,,,,,1,Ontime,long,k,1,2.0306,7,0,28,3,1,,,,,
,0.16,,,,,,,,,j,red,60fd7cda95936026b622bef3,2021-11-03_11h37.46.427,forced_choiceRT_color,2021.2.3,MacIntel,60.0024001,,,,,,,,1,Ontime,long,j,1,2.0768,7,1,29,2,1,,,,,
,0.75,,,,,,,,,d,orange,60fd7cda95936026b622bef3,2021-11-03_11h37.46.427,forced_choiceRT_color,2021.2.3,MacIntel,60.0024001,,,,,,,,1,Ontime,long,f,0,2.0181,7,2,30,0,1,,,,,
,1.91,,,,,,,,,f,blue,60fd7cda95936026b622bef3,2021-11-03_11h37.46.427,forced_choiceRT_color,2021.2.3,MacIntel,60.0024001,,,,,,,,1,Slow,long,k,0,2.1016,7,3,31,1,1,,,,,
,1.99,,,,,,,,,d,orange,60fd7cda95936026b622bef3,2021-11-03_11h37.46.427,forced_choiceRT_color,2021.2.3,MacIntel,60.0024001,,,,,,,,1,Ontime,long,j,0,1.9846,8,0,32,0,1,,,,,
,0.32,,,,,,,,,f,blue,60fd7cda95936026b622bef3,2021-11-03_11h37.46.427,forced_choiceRT_color,2021.2.3,MacIntel,60.0024001,,,,,,,,1,Ontime,long,f,1,1.9839,8,1,33,1,1,,,,,
,0.75,,,,,,,,,d,orange,60fd7cda95936026b622bef3,2021-11-03_11h37.46.427,forced_choiceRT_color,2021.2.3,MacIntel,60.0024001,,,,,,,,1,Ontime,long,d,1,1.9672,8,2,34,0,1,,,,,
,1.1,,,,,,,,,k,purple,60fd7cda95936026b622bef3,2021-11-03_11h37.46.427,forced_choiceRT_color,2021.2.3,MacIntel,60.0024001,,,,,,,,1,Ontime,long,k,1,2.0143,8,3,35,3,1,,,,,
,0.55,,,,,,,,,f,blue,60fd7cda95936026b622bef3,2021-11-03_11h37.46.427,forced_choiceRT_color,2021.2.3,MacIntel,60.0024001,,,,,,,,1,Slow,long,f,1,2.1132,9,0,36,1,1,,,,,
,1.37,,,,,,,,,k,purple,60fd7cda95936026b622bef3,2021-11-03_11h37.46.427,forced_choiceRT_color,2021.2.3,MacIntel,60.0024001,,,,,,,,1,Ontime,long,k,1,1.9996,9,1,37,3,1,,,,,
,1.92,,,,,,,,,j,red,60fd7cda95936026b622bef3,2021-11-03_11h37.46.427,forced_choiceRT_color,2021.2.3,MacIntel,60.0024001,,,,,,,,1,Slow,long,d,0,2.1613,9,2,38,2,1,,,,,
,0.43,,,,,,,,,j,red,60fd7cda95936026b622bef3,2021-11-03_11h37.46.427,forced_choiceRT_color,2021.2.3,MacIntel,60.0024001,,,,,,,,1,Ontime,long,j,1,1.983,9,3,39,2,1,,,,,
,,,,,,,,,,,,60fd7cda95936026b622bef3,2021-11-03_11h37.46.427,forced_choiceRT_color,2021.2.3,MacIntel,60.0024001,,,,,,,,,,,,,,,,,,,0,0,0,0,1
,0.2,,,,,,,,,j,red,60fd7cda95936026b622bef3,2021-11-03_11h37.46.427,forced_choiceRT_color,2021.2.3,MacIntel,60.0024001,,,,,,,,2,Ontime,long,j,1,2.0245,0,0,0,2,1,,,,,
,1.51,,,,,,,,,j,red,60fd7cda95936026b622bef3,2021-11-03_11h37.46.427,forced_choiceRT_color,2021.2.3,MacIntel,60.0024001,,,,,,,,2,Slow,long,j,1,2.1166,0,1,1,2,1,,,,,
,0.07,,,,,,,,,d,orange,60fd7cda95936026b622bef3,2021-11-03_11h37.46.427,forced_choiceRT_color,2021.2.3,MacIntel,60.0024001,,,,,,,,2,Ontime,long,d,1,1.929,0,2,2,0,1,,,,,
,0.49,,,,,,,,,j,red,60fd7cda95936026b622bef3,2021-11-03_11h37.46.427,forced_choiceRT_color,2021.2.3,MacIntel,60.0024001,,,,,,,,2,Ontime,long,j,1,2.0459,0,3,3,2,1,,,,,
,0.47,,,,,,,,,f,blue,60fd7cda95936026b622bef3,2021-11-03_11h37.46.427,forced_choiceRT_color,2021.2.3,MacIntel,60.0024001,,,,,,,,2,Ontime,long,f,1,2.0175,1,0,4,1,1,,,,,
,1.41,,,,,,,,,d,orange,60fd7cda95936026b622bef3,2021-11-03_11h37.46.427,forced_choiceRT_color,2021.2.3,MacIntel,60.0024001,,,,,,,,2,Ontime,long,d,1,2.0167,1,1,5,0,1,,,,,
,0.47,,,,,,,,,j,red,60fd7cda95936026b622bef3,2021-11-03_11h37.46.427,forced_choiceRT_color,2021.2.3,MacIntel,60.0024001,,,,,,,,2,Ontime,long,j,1,1.978,1,2,6,2,1,,,,,
,0.52,,,,,,,,,k,purple,60fd7cda95936026b622bef3,2021-11-03_11h37.46.427,forced_choiceRT_color,2021.2.3,MacIntel,60.0024001,,,,,,,,2,Ontime,long,k,1,1.9788,1,3,7,3,1,,,,,
,1.86,,,,,,,,,f,blue,60fd7cda95936026b622bef3,2021-11-03_11h37.46.427,forced_choiceRT_color,2021.2.3,MacIntel,60.0024001,,,,,,,,2,Ontime,long,j,0,2.036,2,0,8,1,1,,,,,
,0.04,,,,,,,,,k,purple,60fd7cda95936026b622bef3,2021-11-03_11h37.46.427,forced_choiceRT_color,2021.2.3,MacIntel,60.0024001,,,,,,,,2,Ontime,long,k,1,1.9852,2,1,9,3,1,,,,,
,1.46,,,,,,,,,f,blue,60fd7cda95936026b622bef3,2021-11-03_11h37.46.427,forced_choiceRT_color,2021.2.3,MacIntel,60.0024001,,,,,,,,2,Ontime,long,j,0,1.9772,2,2,10,1,1,,,,,
,0.19,,,,,,,,,k,purple,60fd7cda95936026b622bef3,2021-11-03_11h37.46.427,forced_choiceRT_color,2021.2.3,MacIntel,60.0024001,,,,,,,,2,Fast,long,k,1,1.8826,2,3,11,3,1,,,,,
,0.29,,,,,,,,,j,red,60fd7cda95936026b622bef3,2021-11-03_11h37.46.427,forced_choiceRT_color,2021.2.3,MacIntel,60.0024001,,,,,,,,2,Ontime,long,j,1,1.9674,3,0,12,2,1,,,,,
,1.25,,,,,,,,,k,purple,60fd7cda95936026b622bef3,2021-11-03_11h37.46.427,forced_choiceRT_color,2021.2.3,MacIntel,60.0024001,,,,,,,,2,Ontime,long,k,1,1.9503,3,1,13,3,1,,,,,
,1.38,,,,,,,,,k,purple,60fd7cda95936026b622bef3,2021-11-03_11h37.46.427,forced_choiceRT_color,2021.2.3,MacIntel,60.0024001,,,,,,,,2,Fast,long,k,1,1.8859,3,2,14,3,1,,,,,
,1.14,,,,,,,,,j,red,60fd7cda95936026b622bef3,2021-11-03_11h37.46.427,forced_choiceRT_color,2021.2.3,MacIntel,60.0024001,,,,,,,,2,Ontime,long,j,1,1.965,3,3,15,2,1,,,,,
,0.99,,,,,,,,,f,blue,60fd7cda95936026b622bef3,2021-11-03_11h37.46.427,forced_choiceRT_color,2021.2.3,MacIntel,60.0024001,,,,,,,,2,Ontime,long,f,1,1.9105,4,0,16,1,1,,,,,
,0.7,,,,,,,,,d,orange,60fd7cda95936026b622bef3,2021-11-03_11h37.46.427,forced_choiceRT_color,2021.2.3,MacIntel,60.0024001,,,,,,,,2,Ontime,long,d,1,1.9847,4,1,17,0,1,,,,,
,0.54,,,,,,,,,d,orange,60fd7cda95936026b622bef3,2021-11-03_11h37.46.427,forced_choiceRT_color,2021.2.3,MacIntel,60.0024001,,,,,,,,2,Ontime,long,d,1,1.9851,4,2,18,0,1,,,,,
,0.27,,,,,,,,,k,purple,60fd7cda95936026b622bef3,2021-11-03_11h37.46.427,forced_choiceRT_color,2021.2.3,MacIntel,60.0024001,,,,,,,,2,Ontime,long,k,1,2.0189,4,3,19,3,1,,,,,
,0.17,,,,,,,,,f,blue,60fd7cda95936026b622bef3,2021-11-03_11h37.46.427,forced_choiceRT_color,2021.2.3,MacIntel,60.0024001,,,,,,,,2,Ontime,long,f,1,2.001,5,0,20,1,1,,,,,
,1.33,,,,,,,,,d,orange,60fd7cda95936026b622bef3,2021-11-03_11h37.46.427,forced_choiceRT_color,2021.2.3,MacIntel,60.0024001,,,,,,,,2,Ontime,long,d,1,2.0475,5,1,21,0,1,,,,,
,0.29,,,,,,,,,d,orange,60fd7cda95936026b622bef3,2021-11-03_11h37.46.427,forced_choiceRT_color,2021.2.3,MacIntel,60.0024001,,,,,,,,2,Ontime,long,d,1,1.9666,5,2,22,0,1,,,,,
,0.65,,,,,,,,,f,blue,60fd7cda95936026b622bef3,2021-11-03_11h37.46.427,forced_choiceRT_color,2021.2.3,MacIntel,60.0024001,,,,,,,,2,Ontime,long,f,1,2.0009,5,3,23,1,1,,,,,
,0.78,,,,,,,,,f,blue,60fd7cda95936026b622bef3,2021-11-03_11h37.46.427,forced_choiceRT_color,2021.2.3,MacIntel,60.0024001,,,,,,,,2,Ontime,long,f,1,1.9834,6,0,24,1,1,,,,,
,1.04,,,,,,,,,f,blue,60fd7cda95936026b622bef3,2021-11-03_11h37.46.427,forced_choiceRT_color,2021.2.3,MacIntel,60.0024001,,,,,,,,2,Ontime,long,f,1,2.0005,6,1,25,1,1,,,,,
,0.08,,,,,,,,,j,red,60fd7cda95936026b622bef3,2021-11-03_11h37.46.427,forced_choiceRT_color,2021.2.3,MacIntel,60.0024001,,,,,,,,2,Ontime,long,j,1,2.0002,6,2,26,2,1,,,,,
,1.76,,,,,,,,,f,blue,60fd7cda95936026b622bef3,2021-11-03_11h37.46.427,forced_choiceRT_color,2021.2.3,MacIntel,60.0024001,,,,,,,,2,Ontime,long,j,0,2.0277,6,3,27,1,1,,,,,
,1.22,,,,,,,,,j,red,60fd7cda95936026b622bef3,2021-11-03_11h37.46.427,forced_choiceRT_color,2021.2.3,MacIntel,60.0024001,,,,,,,,2,Ontime,long,j,1,1.9007,7,0,28,2,1,,,,,
,1.13,,,,,,,,,d,orange,60fd7cda95936026b622bef3,2021-11-03_11h37.46.427,forced_choiceRT_color,2021.2.3,MacIntel,60.0024001,,,,,,,,2,Ontime,long,d,1,1.9838,7,1,29,0,1,,,,,
,1.31,,,,,,,,,j,red,60fd7cda95936026b622bef3,2021-11-03_11h37.46.427,forced_choiceRT_color,2021.2.3,MacIntel,60.0024001,,,,,,,,2,Ontime,long,j,1,1.9789,7,2,30,2,1,,,,,
,0.94,,,,,,,,,k,purple,60fd7cda95936026b622bef3,2021-11-03_11h37.46.427,forced_choiceRT_color,2021.2.3,MacIntel,60.0024001,,,,,,,,2,Ontime,long,k,1,1.9769,7,3,31,3,1,,,,,
,0.87,,,,,,,,,d,orange,60fd7cda95936026b622bef3,2021-11-03_11h37.46.427,forced_choiceRT_color,2021.2.3,MacIntel,60.0024001,,,,,,,,2,Ontime,long,d,1,2.0101,8,0,32,0,1,,,,,
,1.18,,,,,,,,,d,orange,60fd7cda95936026b622bef3,2021-11-03_11h37.46.427,forced_choiceRT_color,2021.2.3,MacIntel,60.0024001,,,,,,,,2,Ontime,long,d,1,2.0351,8,1,33,0,1,,,,,
,0.89,,,,,,,,,k,purple,60fd7cda95936026b622bef3,2021-11-03_11h37.46.427,forced_choiceRT_color,2021.2.3,MacIntel,60.0024001,,,,,,,,2,Ontime,long,k,1,1.9844,8,2,34,3,1,,,,,
,0.63,,,,,,,,,k,purple,60fd7cda95936026b622bef3,2021-11-03_11h37.46.427,forced_choiceRT_color,2021.2.3,MacIntel,60.0024001,,,,,,,,2,Ontime,long,k,1,2.0301,8,3,35,3,1,,,,,
,1.56,,,,,,,,,j,red,60fd7cda95936026b622bef3,2021-11-03_11h37.46.427,forced_choiceRT_color,2021.2.3,MacIntel,60.0024001,,,,,,,,2,Slow,long,j,1,2.1843,9,0,36,2,1,,,,,
,0.52,,,,,,,,,k,purple,60fd7cda95936026b622bef3,2021-11-03_11h37.46.427,forced_choiceRT_color,2021.2.3,MacIntel,60.0024001,,,,,,,,2,Ontime,long,k,1,2.0124,9,1,37,3,1,,,,,
,0.97,,,,,,,,,d,orange,60fd7cda95936026b622bef3,2021-11-03_11h37.46.427,forced_choiceRT_color,2021.2.3,MacIntel,60.0024001,,,,,,,,2,Ontime,long,d,1,2.0439,9,2,38,0,1,,,,,
,0.14,,,,,,,,,f,blue,60fd7cda95936026b622bef3,2021-11-03_11h37.46.427,forced_choiceRT_color,2021.2.3,MacIntel,60.0024001,,,,,,,,2,Ontime,long,f,1,2.0002,9,3,39,1,1,,,,,
,,,,,,,,,,,,60fd7cda95936026b622bef3,2021-11-03_11h37.46.427,forced_choiceRT_color,2021.2.3,MacIntel,60.0024001,,,,,,,,,,,,,,,,,,,1,0,1,0,1
,0.99,,,,,,,,,j,red,60fd7cda95936026b622bef3,2021-11-03_11h37.46.427,forced_choiceRT_color,2021.2.3,MacIntel,60.0024001,,,,,,,,3,Fast,long,k,0,1.7522,0,0,0,2,1,,,,,
,0.9,,,,,,,,,k,purple,60fd7cda95936026b622bef3,2021-11-03_11h37.46.427,forced_choiceRT_color,2021.2.3,MacIntel,60.0024001,,,,,,,,3,Ontime,long,k,1,1.9004,0,1,1,3,1,,,,,
,0.67,,,,,,,,,j,red,60fd7cda95936026b622bef3,2021-11-03_11h37.46.427,forced_choiceRT_color,2021.2.3,MacIntel,60.0024001,,,,,,,,3,Ontime,long,j,1,1.9787,0,2,2,2,1,,,,,
,0.97,,,,,,,,,d,orange,60fd7cda95936026b622bef3,2021-11-03_11h37.46.427,forced_choiceRT_color,2021.2.3,MacIntel,60.0024001,,,,,,,,3,Fast,long,d,1,1.8841,0,3,3,0,1,,,,,
,0.14,,,,,,,,,d,orange,60fd7cda95936026b622bef3,2021-11-03_11h37.46.427,forced_choiceRT_color,2021.2.3,MacIntel,60.0024001,,,,,,,,3,Fast,long,d,1,0.4093,1,0,4,0,1,,,,,
,1.18,,,,,,,,,f,blue,60fd7cda95936026b622bef3,2021-11-03_11h37.46.427,forced_choiceRT_color,2021.2.3,MacIntel,60.0024001,,,,,,,,3,Slow,long,f,1,2.1084,1,1,5,1,1,,,,,
,0.47,,,,,,,,,j,red,60fd7cda95936026b622bef3,2021-11-03_11h37.46.427,forced_choiceRT_color,2021.2.3,MacIntel,60.0024001,,,,,,,,3,Ontime,long,j,1,2.0033,1,2,6,2,1,,,,,
,1.84,,,,,,,,,j,red,60fd7cda95936026b622bef3,2021-11-03_11h37.46.427,forced_choiceRT_color,2021.2.3,MacIntel,60.0024001,,,,,,,,3,Slow,long,k,0,2.1606,1,3,7,2,1,,,,,
,1.32,,,,,,,,,d,orange,60fd7cda95936026b622bef3,2021-11-03_11h37.46.427,forced_choiceRT_color,2021.2.3,MacIntel,60.0024001,,,,,,,,3,Ontime,long,d,1,1.9771,2,0,8,0,1,,,,,
,1.4,,,,,,,,,j,red,60fd7cda95936026b622bef3,2021-11-03_11h37.46.427,forced_choiceRT_color,2021.2.3,MacIntel,60.0024001,,,,,,,,3,Ontime,long,j,1,2.0499,2,1,9,2,1,,,,,
,0.59,,,,,,,,,f,blue,60fd7cda95936026b622bef3,2021-11-03_11h37.46.427,forced_choiceRT_color,2021.2.3,MacIntel,60.0024001,,,,,,,,3,Ontime,long,f,1,1.9834,2,2,10,1,1,,,,,
,0.87,,,,,,,,,d,orange,60fd7cda95936026b622bef3,2021-11-03_11h37.46.427,forced_choiceRT_color,2021.2.3,MacIntel,60.0024001,,,,,,,,3,Ontime,long,d,1,1.9834,2,3,11,0,1,,,,,
,0.74,,,,,,,,,d,orange,60fd7cda95936026b622bef3,2021-11-03_11h37.46.427,forced_choiceRT_color,2021.2.3,MacIntel,60.0024001,,,,,,,,3,Ontime,long,d,1,1.9979,3,0,12,0,1,,,,,
,0.2,,,,,,,,,f,blue,60fd7cda95936026b622bef3,2021-11-03_11h37.46.427,forced_choiceRT_color,2021.2.3,MacIntel,60.0024001,,,,,,,,3,Ontime,long,f,1,1.9828,3,1,13,1,1,,,,,
,1.11,,,,,,,,,d,orange,60fd7cda95936026b622bef3,2021-11-03_11h37.46.427,forced_choiceRT_color,2021.2.3,MacIntel,60.0024001,,,,,,,,3,Ontime,long,d,1,1.9679,3,2,14,0,1,,,,,
,1.8,,,,,,,,,f,blue,60fd7cda95936026b622bef3,2021-11-03_11h37.46.427,forced_choiceRT_color,2021.2.3,MacIntel,60.0024001,,,,,,,,3,Slow,long,d,0,2.1592,3,3,15,1,1,,,,,
,0.25,,,,,,,,,f,blue,60fd7cda95936026b622bef3,2021-11-03_11h37.46.427,forced_choiceRT_color,2021.2.3,MacIntel,60.0024001,,,,,,,,3,Ontime,long,f,1,2.0331,4,0,16,1,1,,,,,
,0.44,,,,,,,,,j,red,60fd7cda95936026b622bef3,2021-11-03_11h37.46.427,forced_choiceRT_color,2021.2.3,MacIntel,60.0024001,,,,,,,,3,Ontime,long,j,1,2.0981,4,1,17,2,1,,,,,
,1.25,,,,,,,,,k,purple,60fd7cda95936026b622bef3,2021-11-03_11h37.46.427,forced_choiceRT_color,2021.2.3,MacIntel,60.0024001,,,,,,,,3,Ontime,long,k,1,2.0529,4,2,18,3,1,,,,,
,0.28,,,,,,,,,f,blue,60fd7cda95936026b622bef3,2021-11-03_11h37.46.427,forced_choiceRT_color,2021.2.3,MacIntel,60.0024001,,,,,,,,3,Fast,long,j,0,1.8967,4,3,19,1,1,,,,,
,0.02,,,,,,,,,f,blue,60fd7cda95936026b622bef3,2021-11-03_11h37.46.427,forced_choiceRT_color,2021.2.3,MacIntel,60.0024001,,,,,,,,3,Ontime,long,f,1,1.9379,5,0,20,1,1,,,,,
,1.64,,,,,,,,,k,purple,60fd7cda95936026b622bef3,2021-11-03_11h37.46.427,forced_choiceRT_color,2021.2.3,MacIntel,60.0024001,,,,,,,,3,Slow,long,k,1,2.196,5,1,21,3,1,,,,,
,1.66,,,,,,,,,k,purple,60fd7cda95936026b622bef3,2021-11-03_11h37.46.427,forced_choiceRT_color,2021.2.3,MacIntel,60.0024001,,,,,,,,3,Ontime,long,d,0,1.9851,5,2,22,3,1,,,,,
,0.68,,,,,,,,,j,red,60fd7cda95936026b622bef3,2021-11-03_11h37.46.427,forced_choiceRT_color,2021.2.3,MacIntel,60.0024001,,,,,,,,3,Ontime,long,j,1,1.9848,5,3,23,2,1,,,,,
,0.39,,,,,,,,,f,blue,60fd7cda95936026b622bef3,2021-11-03_11h37.46.427,forced_choiceRT_color,2021.2.3,MacIntel,60.0024001,,,,,,,,3,Ontime,long,f,1,1.9683,6,0,24,1,1,,,,,
,0.35,,,,,,,,,k,purple,60fd7cda95936026b622bef3,2021-11-03_11h37.46.427,forced_choiceRT_color,2021.2.3,MacIntel,60.0024001,,,,,,,,3,Fast,long,k,1,1.6161,6,1,25,3,1,,,,,
,1.39,,,,,,,,,f,blue,60fd7cda95936026b622bef3,2021-11-03_11h37.46.427,forced_choiceRT_color,2021.2.3,MacIntel,60.0024001,,,,,,,,3,Ontime,long,f,1,1.915,6,2,26,1,1,,,,,
,0.44,,,,,,,,,k,purple,60fd7cda95936026b622bef3,2021-11-03_11h37.46.427,forced_choiceRT_color,2021.2.3,MacIntel,60.0024001,,,,,,,,3,Fast,long,k,1,1.8522,6,3,27,3,1,,,,,
,0.66,,,,,,,,,k,purple,60fd7cda95936026b622bef3,2021-11-03_11h37.46.427,forced_choiceRT_color,2021.2.3,MacIntel,60.0024001,,,,,,,,3,Fast,long,k,1,1.8844,7,0,28,3,1,,,,,
,0.44,,,,,,,,,j,red,60fd7cda95936026b622bef3,2021-11-03_11h37.46.427,forced_choiceRT_color,2021.2.3,MacIntel,60.0024001,,,,,,,,3,Fast,long,j,1,1.884,7,1,29,2,1,,,,,
,1.14,,,,,,,,,j,red,60fd7cda95936026b622bef3,2021-11-03_11h37.46.427,forced_choiceRT_color,2021.2.3,MacIntel,60.0024001,,,,,,,,3,Ontime,long,j,1,2.0621,7,2,30,2,1,,,,,
,0.2,,,,,,,,,k,purple,60fd7cda95936026b622bef3,2021-11-03_11h37.46.427,forced_choiceRT_color,2021.2.3,MacIntel,60.0024001,,,,,,,,3,Ontime,long,k,1,1.933,7,3,31,3,1,,,,,
,0.03,,,,,,,,,k,purple,60fd7cda95936026b622bef3,2021-11-03_11h37.46.427,forced_choiceRT_color,2021.2.3,MacIntel,60.0024001,,,,,,,,3,Fast,long,k,1,1.8935,8,0,32,3,1,,,,,
,0.74,,,,,,,,,k,purple,60fd7cda95936026b622bef3,2021-11-03_11h37.46.427,forced_choiceRT_color,2021.2.3,MacIntel,60.0024001,,,,,,,,3,Ontime,long,k,1,1.9414,8,1,33,3,1,,,,,
,1.62,,,,,,,,,d,orange,60fd7cda95936026b622bef3,2021-11-03_11h37.46.427,forced_choiceRT_color,2021.2.3,MacIntel,60.0024001,,,,,,,,3,Ontime,long,j,0,1.9001,8,2,34,0,1,,,,,
,1.24,,,,,,,,,f,blue,60fd7cda95936026b622bef3,2021-11-03_11h37.46.427,forced_choiceRT_color,2021.2.3,MacIntel,60.0024001,,,,,,,,3,Ontime,long,f,1,1.9504,8,3,35,1,1,,,,,
,1.76,,,,,,,,,d,orange,60fd7cda95936026b622bef3,2021-11-03_11h37.46.427,forced_choiceRT_color,2021.2.3,MacIntel,60.0024001,,,,,,,,3,Ontime,long,d,1,1.9931,9,0,36,0,1,,,,,
,0.97,,,,,,,,,d,orange,60fd7cda95936026b622bef3,2021-11-03_11h37.46.427,forced_choiceRT_color,2021.2.3,MacIntel,60.0024001,,,,,,,,3,Fast,long,d,1,1.8855,9,1,37,0,1,,,,,
,1.24,,,,,,,,,d,orange,60fd7cda95936026b622bef3,2021-11-03_11h37.46.427,forced_choiceRT_color,2021.2.3,MacIntel,60.0024001,,,,,,,,3,Ontime,long,d,1,2.0207,9,2,38,0,1,,,,,
,1.92,,,,,,,,,j,red,60fd7cda95936026b622bef3,2021-11-03_11h37.46.427,forced_choiceRT_color,2021.2.3,MacIntel,60.0024001,,,,,,,,3,Ontime,long,d,0,2.0511,9,3,39,2,1,,,,,
,,,,,,,,,,,,60fd7cda95936026b622bef3,2021-11-03_11h37.46.427,forced_choiceRT_color,2021.2.3,MacIntel,60.0024001,,,,,,,,,,,,,,,,,,,2,0,2,0,1
,0.28,,,,,,,,,k,purple,60fd7cda95936026b622bef3,2021-11-03_11h37.46.427,forced_choiceRT_color,2021.2.3,MacIntel,60.0024001,,,,,,,,4,Ontime,long,k,1,1.9978,0,0,0,3,1,,,,,
,0.87,,,,,,,,,d,orange,60fd7cda95936026b622bef3,2021-11-03_11h37.46.427,forced_choiceRT_color,2021.2.3,MacIntel,60.0024001,,,,,,,,4,Ontime,long,d,1,2.0268,0,1,1,0,1,,,,,
,1.23,,,,,,,,,f,blue,60fd7cda95936026b622bef3,2021-11-03_11h37.46.427,forced_choiceRT_color,2021.2.3,MacIntel,60.0024001,,,,,,,,4,Ontime,long,f,1,1.9121,0,2,2,1,1,,,,,
,1.4,,,,,,,,,d,orange,60fd7cda95936026b622bef3,2021-11-03_11h37.46.427,forced_choiceRT_color,2021.2.3,MacIntel,60.0024001,,,,,,,,4,Fast,long,d,1,1.8786,0,3,3,0,1,,,,,
,1.82,,,,,,,,,f,blue,60fd7cda95936026b622bef3,2021-11-03_11h37.46.427,forced_choiceRT_color,2021.2.3,MacIntel,60.0024001,,,,,,,,4,Ontime,long,d,0,2.0092,1,0,4,1,1,,,,,
,1.77,,,,,,,,,k,purple,60fd7cda95936026b622bef3,2021-11-03_11h37.46.427,forced_choiceRT_color,2021.2.3,MacIntel,60.0024001,,,,,,,,4,Ontime,long,d,0,1.9796,1,1,5,3,1,,,,,
,0.24,,,,,,,,,d,orange,60fd7cda95936026b622bef3,2021-11-03_11h37.46.427,forced_choiceRT_color,2021.2.3,MacIntel,60.0024001,,,,,,,,4,Fast,long,d,1,1.8678,1,2,6,0,1,,,,,
,0.7,,,,,,,,,k,purple,60fd7cda95936026b622bef3,2021-11-03_11h37.46.427,forced_choiceRT_color,2021.2.3,MacIntel,60.0024001,,,,,,,,4,Ontime,long,k,1,1.9824,1,3,7,3,1,,,,,
,0.52,,,,,,,,,j,red,60fd7cda95936026b622bef3,2021-11-03_11h37.46.427,forced_choiceRT_color,2021.2.3,MacIntel,60.0024001,,,,,,,,4,Ontime,long,j,1,2.0006,2,0,8,2,1,,,,,
,1.88,,,,,,,,,j,red,60fd7cda95936026b622bef3,2021-11-03_11h37.46.427,forced_choiceRT_color,2021.2.3,MacIntel,60.0024001,,,,,,,,4,Ontime,long,k,0,2.068,2,1,9,2,1,,,,,
,1.15,,,,,,,,,j,red,60fd7cda95936026b622bef3,2021-11-03_11h37.46.427,forced_choiceRT_color,2021.2.3,MacIntel,60.0024001,,,,,,,,4,Ontime,long,j,1,1.9546,2,2,10,2,1,,,,,
,0.66,,,,,,,,,d,orange,60fd7cda95936026b622bef3,2021-11-03_11h37.46.427,forced_choiceRT_color,2021.2.3,MacIntel,60.0024001,,,,,,,,4,Ontime,long,d,1,1.9348,2,3,11,0,1,,,,,
,1.05,,,,,,,,,k,purple,60fd7cda95936026b622bef3,2021-11-03_11h37.46.427,forced_choiceRT_color,2021.2.3,MacIntel,60.0024001,,,,,,,,4,Ontime,long,k,1,1.911,3,0,12,3,1,,,,,
,0.66,,,,,,,,,k,purple,60fd7cda95936026b622bef3,2021-11-03_11h37.46.427,forced_choiceRT_color,2021.2.3,MacIntel,60.0024001,,,,,,,,4,Ontime,long,k,1,2.0514,3,1,13,3,1,,,,,
,0.38,,,,,,,,,f,blue,60fd7cda95936026b622bef3,2021-11-03_11h37.46.427,forced_choiceRT_color,2021.2.3,MacIntel,60.0024001,,,,,,,,4,Ontime,long,f,1,2.0315,3,2,14,1,1,,,,,
,1.95,,,,,,,,,j,red,60fd7cda95936026b622bef3,2021-11-03_11h37.46.427,forced_choiceRT_color,2021.2.3,MacIntel,60.0024001,,,,,,,,4,Ontime,long,j,1,2.0677,3,3,15,2,1,,,,,
,0.37,,,,,,,,,j,red,60fd7cda95936026b622bef3,2021-11-03_11h37.46.427,forced_choiceRT_color,2021.2.3,MacIntel,60.0024001,,,,,,,,4,Ontime,long,j,1,1.9812,4,0,16,2,1,,,,,
,1.22,,,,,,,,,k,purple,60fd7cda95936026b622bef3,2021-11-03_11h37.46.427,forced_choiceRT_color,2021.2.3,MacIntel,60.0024001,,,,,,,,4,Ontime,long,k,1,2.0922,4,1,17,3,1,,,,,
,0.09,,,,,,,,,f,blue,60fd7cda95936026b622bef3,2021-11-03_11h37.46.427,forced_choiceRT_color,2021.2.3,MacIntel,60.0024001,,,,,,,,4,Ontime,long,f,1,1.9422,4,2,18,1,1,,,,,
,1.3,,,,,,,,,f,blue,60fd7cda95936026b622bef3,2021-11-03_11h37.46.427,forced_choiceRT_color,2021.2.3,MacIntel,60.0024001,,,,,,,,4,Ontime,long,f,1,2.0168,4,3,19,1,1,,,,,
,1.4,,,,,,,,,k,purple,60fd7cda95936026b622bef3,2021-11-03_11h37.46.427,forced_choiceRT_color,2021.2.3,MacIntel,60.0024001,,,,,,,,4,Ontime,long,k,1,1.9592,5,0,20,3,1,,,,,
,0.95,,,,,,,,,d,orange,60fd7cda95936026b622bef3,2021-11-03_11h37.46.427,forced_choiceRT_color,2021.2.3,MacIntel,60.0024001,,,,,,,,4,Fast,long,d,1,1.8971,5,1,21,0,1,,,,,
,1.77,,,,,,,,,k,purple,60fd7cda95936026b622bef3,2021-11-03_11h37.46.427,forced_choiceRT_color,2021.2.3,MacIntel,60.0024001,,,,,,,,4,Ontime,long,d,0,1.9983,5,2,22,3,1,,,,,
,0.99,,,,,,,,,d,orange,60fd7cda95936026b622bef3,2021-11-03_11h37.46.427,forced_choiceRT_color,2021.2.3,MacIntel,60.0024001,,,,,,,,4,Ontime,long,d,1,1.9939,5,3,23,0,1,,,,,
,0.49,,,,,,,,,f,blue,60fd7cda95936026b622bef3,2021-11-03_11h37.46.427,forced_choiceRT_color,2021.2.3,MacIntel,60.0024001,,,,,,,,4,Ontime,long,f,1,1.9755,6,0,24,1,1,,,,,
,0.72,,,,,,,,,j,red,60fd7cda95936026b622bef3,2021-11-03_11h37.46.427,forced_choiceRT_color,2021.2.3,MacIntel,60.0024001,,,,,,,,4,Ontime,long,j,1,1.9515,6,1,25,2,1,,,,,
,1.77,,,,,,,,,j,red,60fd7cda95936026b622bef3,2021-11-03_11h37.46.427,forced_choiceRT_color,2021.2.3,MacIntel,60.0024001,,,,,,,,4,Ontime,long,j,1,1.9823,6,2,26,2,1,,,,,
,1.08,,,,,,,,,d,orange,60fd7cda95936026b622bef3,2021-11-03_11h37.46.427,forced_choiceRT_color,2021.2.3,MacIntel,60.0024001,,,,,,,,4,Ontime,long,d,1,1.9332,6,3,27,0,1,,,,,
,1.32,,,,,,,,,f,blue,60fd7cda95936026b622bef3,2021-11-03_11h37.46.427,forced_choiceRT_color,2021.2.3,MacIntel,60.0024001,,,,,,,,4,Slow,long,f,1,2.1699,7,0,28,1,1,,,,,
,1.25,,,,,,,,,k,purple,60fd7cda95936026b622bef3,2021-11-03_11h37.46.427,forced_choiceRT_color,2021.2.3,MacIntel,60.0024001,,,,,,,,4,Ontime,long,k,1,1.946,7,1,29,3,1,,,,,
,1.61,,,,,,,,,f,blue,60fd7cda95936026b622bef3,2021-11-03_11h37.46.427,forced_choiceRT_color,2021.2.3,MacIntel,60.0024001,,,,,,,,4,Fast,long,k,0,1.864,7,2,30,1,1,,,,,
,1.63,,,,,,,,,f,blue,60fd7cda95936026b622bef3,2021-11-03_11h37.46.427,forced_choiceRT_color,2021.2.3,MacIntel,60.0024001,,,,,,,,4,Fast,long,j,0,1.7517,7,3,31,1,1,,,,,
,0.82,,,,,,,,,d,orange,60fd7cda95936026b622bef3,2021-11-03_11h37.46.427,forced_choiceRT_color,2021.2.3,MacIntel,60.0024001,,,,,,,,4,Ontime,long,d,1,1.9699,8,0,32,0,1,,,,,
,1.38,,,,,,,,,k,purple,60fd7cda95936026b622bef3,2021-11-03_11h37.46.427,forced_choiceRT_color,2021.2.3,MacIntel,60.0024001,,,,,,,,4,Ontime,long,k,1,1.9588,8,1,33,3,1,,,,,
,0.03,,,,,,,,,d,orange,60fd7cda95936026b622bef3,2021-11-03_11h37.46.427,forced_choiceRT_color,2021.2.3,MacIntel,60.0024001,,,,,,,,4,Fast,long,d,1,1.8801,8,2,34,0,1,,,,,
,1.89,,,,,,,,,j,red,60fd7cda95936026b622bef3,2021-11-03_11h37.46.427,forced_choiceRT_color,2021.2.3,MacIntel,60.0024001,,,,,,,,4,Ontime,long,d,0,1.9838,8,3,35,2,1,,,,,
,1.39,,,,,,,,,d,orange,60fd7cda95936026b622bef3,2021-11-03_11h37.46.427,forced_choiceRT_color,2021.2.3,MacIntel,60.0024001,,,,,,,,4,Ontime,long,d,1,1.9159,9,0,36,0,1,,,,,
,0.74,,,,,,,,,j,red,60fd7cda95936026b622bef3,2021-11-03_11h37.46.427,forced_choiceRT_color,2021.2.3,MacIntel,60.0024001,,,,,,,,4,Ontime,long,j,1,1.9837,9,1,37,2,1,,,,,
,1.73,,,,,,,,,j,red,60fd7cda95936026b622bef3,2021-11-03_11h37.46.427,forced_choiceRT_color,2021.2.3,MacIntel,60.0024001,,,,,,,,4,Ontime,long,k,0,1.9764,9,2,38,2,1,,,,,
,1.03,,,,,,,,,f,blue,60fd7cda95936026b622bef3,2021-11-03_11h37.46.427,forced_choiceRT_color,2021.2.3,MacIntel,60.0024001,,,,,,,,4,Ontime,long,f,1,1.9672,9,3,39,1,1,,,,,
,,,,,,,,,,,,60fd7cda95936026b622bef3,2021-11-03_11h37.46.427,forced_choiceRT_color,2021.2.3,MacIntel,60.0024001,,,,,,,,,,,,,,,,,,,3,0,3,0,1
,1.7,,,,,,,,,k,purple,60fd7cda95936026b622bef3,2021-11-03_11h37.46.427,forced_choiceRT_color,2021.2.3,MacIntel,60.0024001,,,,,,,,5,Slow,long,d,0,10.9051,0,0,0,3,1,,,,,
,1.76,,,,,,,,,d,orange,60fd7cda95936026b622bef3,2021-11-03_11h37.46.427,forced_choiceRT_color,2021.2.3,MacIntel,60.0024001,,,,,,,,5,Slow,long,d,1,2.1769,0,1,1,0,1,,,,,
,0.76,,,,,,,,,f,blue,60fd7cda95936026b622bef3,2021-11-03_11h37.46.427,forced_choiceRT_color,2021.2.3,MacIntel,60.0024001,,,,,,,,5,Ontime,long,f,1,1.9634,0,2,2,1,1,,,,,
,1.76,,,,,,,,,f,blue,60fd7cda95936026b622bef3,2021-11-03_11h37.46.427,forced_choiceRT_color,2021.2.3,MacIntel,60.0024001,,,,,,,,5,Ontime,long,d,0,2.0045,0,3,3,1,1,,,,,
,1.33,,,,,,,,,k,purple,60fd7cda95936026b622bef3,2021-11-03_11h37.46.427,forced_choiceRT_color,2021.2.3,MacIntel,60.0024001,,,,,,,,5,Fast,long,k,1,1.8951,1,0,4,3,1,,,,,
,0.86,,,,,,,,,k,purple,60fd7cda95936026b622bef3,2021-11-03_11h37.46.427,forced_choiceRT_color,2021.2.3,MacIntel,60.0024001,,,,,,,,5,Ontime,long,k,1,1.9935,1,1,5,3,1,,,,,
,1.08,,,,,,,,,k,purple,60fd7cda95936026b622bef3,2021-11-03_11h37.46.427,forced_choiceRT_color,2021.2.3,MacIntel,60.0024001,,,,,,,,5,Ontime,long,k,1,1.9183,1,2,6,3,1,,,,,
,0.28,,,,,,,,,f,blue,60fd7cda95936026b622bef3,2021-11-03_11h37.46.427,forced_choiceRT_color,2021.2.3,MacIntel,60.0024001,,,,,,,,5,Ontime,long,f,1,2.0516,1,3,7,1,1,,,,,
,0.85,,,,,,,,,d,orange,60fd7cda95936026b622bef3,2021-11-03_11h37.46.427,forced_choiceRT_color,2021.2.3,MacIntel,60.0024001,,,,,,,,5,Ontime,long,d,1,1.9794,2,0,8,0,1,,,,,
,0.96,,,,,,,,,f,blue,60fd7cda95936026b622bef3,2021-11-03_11h37.46.427,forced_choiceRT_color,2021.2.3,MacIntel,60.0024001,,,,,,,,5,Ontime,long,f,1,2.0665,2,1,9,1,1,,,,,
,1.42,,,,,,,,,k,purple,60fd7cda95936026b622bef3,2021-11-03_11h37.46.427,forced_choiceRT_color,2021.2.3,MacIntel,60.0024001,,,,,,,,5,Ontime,long,d,0,1.9747,2,2,10,3,1,,,,,
,1.75,,,,,,,,,f,blue,60fd7cda95936026b622bef3,2021-11-03_11h37.46.427,forced_choiceRT_color,2021.2.3,MacIntel,60.0024001,,,,,,,,5,Ontime,long,j,0,1.9442,2,3,11,1,1,,,,,
,1.5,,,,,,,,,k,purple,60fd7cda95936026b622bef3,2021-11-03_11h37.46.427,forced_choiceRT_color,2021.2.3,MacIntel,60.0024001,,,,,,,,5,Ontime,long,f,0,1.9656,3,0,12,3,1,,,,,
,1.42,,,,,,,,,k,purple,60fd7cda95936026b622bef3,2021-11-03_11h37.46.427,forced_choiceRT_color,2021.2.3,MacIntel,60.0024001,,,,,,,,5,Ontime,long,j,0,1.9694,3,1,13,3,1,,,,,
,0.96,,,,,,,,,d,orange,60fd7cda95936026b622bef3,2021-11-03_11h37.46.427,forced_choiceRT_color,2021.2.3,MacIntel,60.0024001,,,,,,,,5,Ontime,long,d,1,1.9271,3,2,14,0,1,,,,,
,1.56,,,,,,,,,j,red,60fd7cda95936026b622bef3,2021-11-03_11h37.46.427,forced_choiceRT_color,2021.2.3,MacIntel,60.0024001,,,,,,,,5,Fast,long,d,0,1.8977,3,3,15,2,1,,,,,
,1.09,,,,,,,,,k,purple,60fd7cda95936026b622bef3,2021-11-03_11h37.46.427,forced_choiceRT_color,2021.2.3,MacIntel,60.0024001,,,,,,,,5,Fast,long,j,0,0.0677,4,0,16,3,1,,,,,
,1.26,,,,,,,,,f,blue,60fd7cda95936026b622bef3,2021-11-03_11h37.46.427,forced_choiceRT_color,2021.2.3,MacIntel,60.0024001,,,,,,,,5,Fast,long,j,0,0.0459,4,1,17,1,1,,,,,
,0,,,,,,,,,d,orange,60fd7cda95936026b622bef3,2021-11-03_11h37.46.427,forced_choiceRT_color,2021.2.3,MacIntel,60.0024001,,,,,,,,5,Ontime,long,d,1,2.0022,4,2,18,0,1,,,,,
,1.14,,,,,,,,,d,orange,60fd7cda95936026b622bef3,2021-11-03_11h37.46.427,forced_choiceRT_color,2021.2.3,MacIntel,60.0024001,,,,,,,,5,Ontime,long,d,1,1.9359,4,3,19,0,1,,,,,
,0.09,,,,,,,,,d,orange,60fd7cda95936026b622bef3,2021-11-03_11h37.46.427,forced_choiceRT_color,2021.2.3,MacIntel,60.0024001,,,,,,,,5,Ontime,long,d,1,1.9504,5,0,20,0,1,,,,,
,1.07,,,,,,,,,d,orange,60fd7cda95936026b622bef3,2021-11-03_11h37.46.427,forced_choiceRT_color,2021.2.3,MacIntel,60.0024001,,,,,,,,5,Ontime,long,d,1,1.9511,5,1,21,0,1,,,,,
,1.27,,,,,,,,,f,blue,60fd7cda95936026b622bef3,2021-11-03_11h37.46.427,forced_choiceRT_color,2021.2.3,MacIntel,60.0024001,,,,,,,,5,Ontime,long,j,0,1.9662,5,2,22,1,1,,,,,
,0.74,,,,,,,,,j,red,60fd7cda95936026b622bef3,2021-11-03_11h37.46.427,forced_choiceRT_color,2021.2.3,MacIntel,60.0024001,,,,,,,,5,Fast,long,j,1,1.7344,5,3,23,2,1,,,,,
,0.07,,,,,,,,,d,orange,60fd7cda95936026b622bef3,2021-11-03_11h37.46.427,forced_choiceRT_color,2021.2.3,MacIntel,60.0024001,,,,,,,,5,Slow,long,d,1,2.1265,6,0,24,0,1,,,,,
,1.79,,,,,,,,,j,red,60fd7cda95936026b622bef3,2021-11-03_11h37.46.427,forced_choiceRT_color,2021.2.3,MacIntel,60.0024001,,,,,,,,5,Slow,long,j,1,2.2946,6,1,25,2,1,,,,,
,1.16,,,,,,,,,d,orange,60fd7cda95936026b622bef3,2021-11-03_11h37.46.427,forced_choiceRT_color,2021.2.3,MacIntel,60.0024001,,,,,,,,5,Ontime,long,d,1,2.0644,6,2,26,0,1,,,,,
,0.38,,,,,,,,,d,orange,60fd7cda95936026b622bef3,2021-11-03_11h37.46.427,forced_choiceRT_color,2021.2.3,MacIntel,60.0024001,,,,,,,,5,Slow,long,d,1,2.2188,6,3,27,0,1,,,,,
,0.12,,,,,,,,,f,blue,60fd7cda95936026b622bef3,2021-11-03_11h37.46.427,forced_choiceRT_color,2021.2.3,MacIntel,60.0024001,,,,,,,,5,Ontime,long,f,1,2.0845,7,0,28,1,1,,,,,
,1.84,,,,,,,,,f,blue,60fd7cda95936026b622bef3,2021-11-03_11h37.46.427,forced_choiceRT_color,2021.2.3,MacIntel,60.0024001,,,,,,,,5,Ontime,long,j,0,2.016,7,1,29,1,1,,,,,
,1.06,,,,,,,,,j,red,60fd7cda95936026b622bef3,2021-11-03_11h37.46.427,forced_choiceRT_color,2021.2.3,MacIntel,60.0024001,,,,,,,,5,Ontime,long,j,1,2.0666,7,2,30,2,1,,,,,
,1.64,,,,,,,,,j,red,60fd7cda95936026b622bef3,2021-11-03_11h37.46.427,forced_choiceRT_color,2021.2.3,MacIntel,60.0024001,,,,,,,,5,Ontime,long,j,1,2.0449,7,3,31,2,1,,,,,
,1.17,,,,,,,,,k,purple,60fd7cda95936026b622bef3,2021-11-03_11h37.46.427,forced_choiceRT_color,2021.2.3,MacIntel,60.0024001,,,,,,,,5,Ontime,long,k,1,2.0021,8,0,32,3,1,,,,,
,1.97,,,,,,,,,j,red,60fd7cda95936026b622bef3,2021-11-03_11h37.46.427,forced_choiceRT_color,2021.2.3,MacIntel,60.0024001,,,,,,,,5,Ontime,long,j,1,1.9584,8,1,33,2,1,,,,,
,1.97,,,,,,,,,j,red,60fd7cda95936026b622bef3,2021-11-03_11h37.46.427,forced_choiceRT_color,2021.2.3,MacIntel,60.0024001,,,,,,,,5,Ontime,long,k,0,2.0357,8,2,34,2,1,,,,,
,0.18,,,,,,,,,k,purple,60fd7cda95936026b622bef3,2021-11-03_11h37.46.427,forced_choiceRT_color,2021.2.3,MacIntel,60.0024001,,,,,,,,5,Ontime,long,k,1,2.0355,8,3,35,3,1,,,,,
,1.95,,,,,,,,,j,red,60fd7cda95936026b622bef3,2021-11-03_11h37.46.427,forced_choiceRT_color,2021.2.3,MacIntel,60.0024001,,,,,,,,5,Ontime,long,j,1,1.9703,9,0,36,2,1,,,,,
,0.34,,,,,,,,,j,red,60fd7cda95936026b622bef3,2021-11-03_11h37.46.427,forced_choiceRT_color,2021.2.3,MacIntel,60.0024001,,,,,,,,5,Ontime,long,j,1,1.9528,9,1,37,2,1,,,,,
,0.31,,,,,,,,,f,blue,60fd7cda95936026b622bef3,2021-11-03_11h37.46.427,forced_choiceRT_color,2021.2.3,MacIntel,60.0024001,,,,,,,,5,Fast,long,d,0,1.8671,9,2,38,1,1,,,,,
,1.89,,,,,,,,,j,red,60fd7cda95936026b622bef3,2021-11-03_11h37.46.427,forced_choiceRT_color,2021.2.3,MacIntel,60.0024001,,,,,,,,5,Ontime,long,d,0,2.0029,9,3,39,2,1,,,,,
,,,,,,,,,,,,60fd7cda95936026b622bef3,2021-11-03_11h37.46.427,forced_choiceRT_color,2021.2.3,MacIntel,60.0024001,,,,,,,,,,,,,,,,,,,4,0,4,0,1
,1.14,,,,,,,,,d,orange,60fd7cda95936026b622bef3,2021-11-03_11h37.46.427,forced_choiceRT_color,2021.2.3,MacIntel,60.0024001,,,,,,,,6,Ontime,long,d,1,2.0801,0,0,0,0,1,,,,,
,0.33,,,,,,,,,j,red,60fd7cda95936026b622bef3,2021-11-03_11h37.46.427,forced_choiceRT_color,2021.2.3,MacIntel,60.0024001,,,,,,,,6,Ontime,long,j,1,2.0506,0,1,1,2,1,,,,,
,0.39,,,,,,,,,f,blue,60fd7cda95936026b622bef3,2021-11-03_11h37.46.427,forced_choiceRT_color,2021.2.3,MacIntel,60.0024001,,,,,,,,6,Ontime,long,f,1,2.0663,0,2,2,1,1,,,,,
,0.98,,,,,,,,,f,blue,60fd7cda95936026b622bef3,2021-11-03_11h37.46.427,forced_choiceRT_color,2021.2.3,MacIntel,60.0024001,,,,,,,,6,Ontime,long,f,1,2.0283,0,3,3,1,1,,,,,
,0.39,,,,,,,,,j,red,60fd7cda95936026b622bef3,2021-11-03_11h37.46.427,forced_choiceRT_color,2021.2.3,MacIntel,60.0024001,,,,,,,,6,Ontime,long,j,1,1.992,1,0,4,2,1,,,,,
,0.11,,,,,,,,,j,red,60fd7cda95936026b622bef3,2021-11-03_11h37.46.427,forced_choiceRT_color,2021.2.3,MacIntel,60.0024001,,,,,,,,6,Ontime,long,j,1,2.066,1,1,5,2,1,,,,,
,0.81,,,,,,,,,j,red,60fd7cda95936026b622bef3,2021-11-03_11h37.46.427,forced_choiceRT_color,2021.2.3,MacIntel,60.0024001,,,,,,,,6,Ontime,long,j,1,1.9619,1,2,6,2,1,,,,,
,1.72,,,,,,,,,k,purple,60fd7cda95936026b622bef3,2021-11-03_11h37.46.427,forced_choiceRT_color,2021.2.3,MacIntel,60.0024001,,,,,,,,6,Ontime,long,k,1,2.0866,1,3,7,3,1,,,,,
,1.4,,,,,,,,,j,red,60fd7cda95936026b622bef3,2021-11-03_11h37.46.427,forced_choiceRT_color,2021.2.3,MacIntel,60.0024001,,,,,,,,6,Ontime,long,j,1,1.975,2,0,8,2,1,,,,,
,0.91,,,,,,,,,k,purple,60fd7cda95936026b622bef3,2021-11-03_11h37.46.427,forced_choiceRT_color,2021.2.3,MacIntel,60.0024001,,,,,,,,6,Ontime,long,k,1,1.9633,2,1,9,3,1,,,,,
,0.92,,,,,,,,,d,orange,60fd7cda95936026b622bef3,2021-11-03_11h37.46.427,forced_choiceRT_color,2021.2.3,MacIntel,60.0024001,,,,,,,,6,Ontime,long,d,1,2.0496,2,2,10,0,1,,,,,
,1.53,,,,,,,,,d,orange,60fd7cda95936026b622bef3,2021-11-03_11h37.46.427,forced_choiceRT_color,2021.2.3,MacIntel,60.0024001,,,,,,,,6,Ontime,long,d,1,1.9266,2,3,11,0,1,,,,,
,1.03,,,,,,,,,j,red,60fd7cda95936026b622bef3,2021-11-03_11h37.46.427,forced_choiceRT_color,2021.2.3,MacIntel,60.0024001,,,,,,,,6,Ontime,long,j,1,2.0505,3,0,12,2,1,,,,,
,1.26,,,,,,,,,k,purple,60fd7cda95936026b622bef3,2021-11-03_11h37.46.427,forced_choiceRT_color,2021.2.3,MacIntel,60.0024001,,,,,,,,6,Ontime,long,k,1,2.0116,3,1,13,3,1,,,,,
,1.39,,,,,,,,,d,orange,60fd7cda95936026b622bef3,2021-11-03_11h37.46.427,forced_choiceRT_color,2021.2.3,MacIntel,60.0024001,,,,,,,,6,Ontime,long,d,1,2.061,3,2,14,0,1,,,,,
,0.44,,,,,,,,,j,red,60fd7cda95936026b622bef3,2021-11-03_11h37.46.427,forced_choiceRT_color,2021.2.3,MacIntel,60.0024001,,,,,,,,6,Ontime,long,j,1,2.0996,3,3,15,2,1,,,,,
,0.4,,,,,,,,,d,orange,60fd7cda95936026b622bef3,2021-11-03_11h37.46.427,forced_choiceRT_color,2021.2.3,MacIntel,60.0024001,,,,,,,,6,Ontime,long,d,1,2.0492,4,0,16,0,1,,,,,
,0.91,,,,,,,,,f,blue,60fd7cda95936026b622bef3,2021-11-03_11h37.46.427,forced_choiceRT_color,2021.2.3,MacIntel,60.0024001,,,,,,,,6,Ontime,long,f,1,2.0496,4,1,17,1,1,,,,,
,1.39,,,,,,,,,j,red,60fd7cda95936026b622bef3,2021-11-03_11h37.46.427,forced_choiceRT_color,2021.2.3,MacIntel,60.0024001,,,,,,,,6,Ontime,long,j,1,2.0488,4,2,18,2,1,,,,,
,0.54,,,,,,,,,k,purple,60fd7cda95936026b622bef3,2021-11-03_11h37.46.427,forced_choiceRT_color,2021.2.3,MacIntel,60.0024001,,,,,,,,6,Ontime,long,k,1,2.0016,4,3,19,3,1,,,,,
,0.4,,,,,,,,,d,orange,60fd7cda95936026b622bef3,2021-11-03_11h37.46.427,forced_choiceRT_color,2021.2.3,MacIntel,60.0024001,,,,,,,,6,Ontime,long,d,1,2.0825,5,0,20,0,1,,,,,
,0.1,,,,,,,,,f,blue,60fd7cda95936026b622bef3,2021-11-03_11h37.46.427,forced_choiceRT_color,2021.2.3,MacIntel,60.0024001,,,,,,,,6,Slow,long,f,1,2.1363,5,1,21,1,1,,,,,
,0.01,,,,,,,,,d,orange,60fd7cda95936026b622bef3,2021-11-03_11h37.46.427,forced_choiceRT_color,2021.2.3,MacIntel,60.0024001,,,,,,,,6,Ontime,long,d,1,2.0976,5,2,22,0,1,,,,,
,0.48,,,,,,,,,f,blue,60fd7cda95936026b622bef3,2021-11-03_11h37.46.427,forced_choiceRT_color,2021.2.3,MacIntel,60.0024001,,,,,,,,6,Ontime,long,f,1,2.0354,5,3,23,1,1,,,,,
,0.45,,,,,,,,,j,red,60fd7cda95936026b622bef3,2021-11-03_11h37.46.427,forced_choiceRT_color,2021.2.3,MacIntel,60.0024001,,,,,,,,6,Ontime,long,j,1,2.0334,6,0,24,2,1,,,,,
,0.48,,,,,,,,,d,orange,60fd7cda95936026b622bef3,2021-11-03_11h37.46.427,forced_choiceRT_color,2021.2.3,MacIntel,60.0024001,,,,,,,,6,Ontime,long,d,1,2.0305,6,1,25,0,1,,,,,
,0.63,,,,,,,,,k,purple,60fd7cda95936026b622bef3,2021-11-03_11h37.46.427,forced_choiceRT_color,2021.2.3,MacIntel,60.0024001,,,,,,,,6,Ontime,long,k,1,2.0493,6,2,26,3,1,,,,,
,1.38,,,,,,,,,k,purple,60fd7cda95936026b622bef3,2021-11-03_11h37.46.427,forced_choiceRT_color,2021.2.3,MacIntel,60.0024001,,,,,,,,6,Ontime,long,k,1,2.0054,6,3,27,3,1,,,,,
,1.65,,,,,,,,,f,blue,60fd7cda95936026b622bef3,2021-11-03_11h37.46.427,forced_choiceRT_color,2021.2.3,MacIntel,60.0024001,,,,,,,,6,Ontime,long,j,0,1.9367,7,0,28,1,1,,,,,
,1.82,,,,,,,,,d,orange,60fd7cda95936026b622bef3,2021-11-03_11h37.46.427,forced_choiceRT_color,2021.2.3,MacIntel,60.0024001,,,,,,,,6,Ontime,long,k,0,2,7,1,29,0,1,,,,,
,0.05,,,,,,,,,k,purple,60fd7cda95936026b622bef3,2021-11-03_11h37.46.427,forced_choiceRT_color,2021.2.3,MacIntel,60.0024001,,,,,,,,6,Ontime,long,k,1,1.9611,7,2,30,3,1,,,,,
,1.58,,,,,,,,,f,blue,60fd7cda95936026b622bef3,2021-11-03_11h37.46.427,forced_choiceRT_color,2021.2.3,MacIntel,60.0024001,,,,,,,,6,Ontime,long,j,0,1.9351,7,3,31,1,1,,,,,
,1.16,,,,,,,,,f,blue,60fd7cda95936026b622bef3,2021-11-03_11h37.46.427,forced_choiceRT_color,2021.2.3,MacIntel,60.0024001,,,,,,,,6,Ontime,long,j,0,1.97,8,0,32,1,1,,,,,
,1.56,,,,,,,,,k,purple,60fd7cda95936026b622bef3,2021-11-03_11h37.46.427,forced_choiceRT_color,2021.2.3,MacIntel,60.0024001,,,,,,,,6,Ontime,long,j,0,2.0386,8,1,33,3,1,,,,,
,1.12,,,,,,,,,d,orange,60fd7cda95936026b622bef3,2021-11-03_11h37.46.427,forced_choiceRT_color,2021.2.3,MacIntel,60.0024001,,,,,,,,6,Ontime,long,d,1,1.9157,8,2,34,0,1,,,,,
,1.95,,,,,,,,,k,purple,60fd7cda95936026b622bef3,2021-11-03_11h37.46.427,forced_choiceRT_color,2021.2.3,MacIntel,60.0024001,,,,,,,,6,Ontime,long,d,0,2.0899,8,3,35,3,1,,,,,
,1.62,,,,,,,,,f,blue,60fd7cda95936026b622bef3,2021-11-03_11h37.46.427,forced_choiceRT_color,2021.2.3,MacIntel,60.0024001,,,,,,,,6,Ontime,long,d,0,1.9839,9,0,36,1,1,,,,,
,1.04,,,,,,,,,k,purple,60fd7cda95936026b622bef3,2021-11-03_11h37.46.427,forced_choiceRT_color,2021.2.3,MacIntel,60.0024001,,,,,,,,6,Ontime,long,k,1,2.0697,9,1,37,3,1,,,,,
,0.09,,,,,,,,,j,red,60fd7cda95936026b622bef3,2021-11-03_11h37.46.427,forced_choiceRT_color,2021.2.3,MacIntel,60.0024001,,,,,,,,6,Ontime,long,j,1,2.0008,9,2,38,2,1,,,,,
,0.63,,,,,,,,,f,blue,60fd7cda95936026b622bef3,2021-11-03_11h37.46.427,forced_choiceRT_color,2021.2.3,MacIntel,60.0024001,,,,,,,,6,Ontime,long,f,1,2.0514,9,3,39,1,1,,,,,
,,,,,,,,,,,,60fd7cda95936026b622bef3,2021-11-03_11h37.46.427,forced_choiceRT_color,2021.2.3,MacIntel,60.0024001,,,,,,,,,,,,,,,,,,,5,0,5,0,1
,1.47,,,,,,,,,k,purple,60fd7cda95936026b622bef3,2021-11-03_11h37.46.427,forced_choiceRT_color,2021.2.3,MacIntel,60.0024001,,,,,,,,7,Slow,long,k,1,2.1036,0,0,0,3,1,,,,,
,0.91,,,,,,,,,f,blue,60fd7cda95936026b622bef3,2021-11-03_11h37.46.427,forced_choiceRT_color,2021.2.3,MacIntel,60.0024001,,,,,,,,7,Ontime,long,f,1,2.0484,0,1,1,1,1,,,,,
,1.25,,,,,,,,,f,blue,60fd7cda95936026b622bef3,2021-11-03_11h37.46.427,forced_choiceRT_color,2021.2.3,MacIntel,60.0024001,,,,,,,,7,Ontime,long,f,1,2.0125,0,2,2,1,1,,,,,
,0.41,,,,,,,,,j,red,60fd7cda95936026b622bef3,2021-11-03_11h37.46.427,forced_choiceRT_color,2021.2.3,MacIntel,60.0024001,,,,,,,,7,Ontime,long,j,1,1.9383,0,3,3,2,1,,,,,
,1.7,,,,,,,,,d,orange,60fd7cda95936026b622bef3,2021-11-03_11h37.46.427,forced_choiceRT_color,2021.2.3,MacIntel,60.0024001,,,,,,,,7,Fast,long,j,0,1.8915,1,0,4,0,1,,,,,
,1.28,,,,,,,,,k,purple,60fd7cda95936026b622bef3,2021-11-03_11h37.46.427,forced_choiceRT_color,2021.2.3,MacIntel,60.0024001,,,,,,,,7,Fast,long,k,1,1.7593,1,1,5,3,1,,,,,
,0.71,,,,,,,,,j,red,60fd7cda95936026b622bef3,2021-11-03_11h37.46.427,forced_choiceRT_color,2021.2.3,MacIntel,60.0024001,,,,,,,,7,Fast,long,j,1,1.6412,1,2,6,2,1,,,,,
,1.62,,,,,,,,,k,purple,60fd7cda95936026b622bef3,2021-11-03_11h37.46.427,forced_choiceRT_color,2021.2.3,MacIntel,60.0024001,,,,,,,,7,Ontime,long,j,0,1.9178,1,3,7,3,1,,,,,
,1.24,,,,,,,,,k,purple,60fd7cda95936026b622bef3,2021-11-03_11h37.46.427,forced_choiceRT_color,2021.2.3,MacIntel,60.0024001,,,,,,,,7,Ontime,long,k,1,1.9757,2,0,8,3,1,,,,,
,0.58,,,,,,,,,d,orange,60fd7cda95936026b622bef3,2021-11-03_11h37.46.427,forced_choiceRT_color,2021.2.3,MacIntel,60.0024001,,,,,,,,7,Ontime,long,d,1,1.9185,2,1,9,0,1,,,,,
,1.2,,,,,,,,,f,blue,60fd7cda95936026b622bef3,2021-11-03_11h37.46.427,forced_choiceRT_color,2021.2.3,MacIntel,60.0024001,,,,,,,,7,Ontime,long,f,1,2.0592,2,2,10,1,1,,,,,
,1.79,,,,,,,,,d,orange,60fd7cda95936026b622bef3,2021-11-03_11h37.46.427,forced_choiceRT_color,2021.2.3,MacIntel,60.0024001,,,,,,,,7,Ontime,long,d,1,2.0691,2,3,11,0,1,,,,,
,1.09,,,,,,,,,j,red,60fd7cda95936026b622bef3,2021-11-03_11h37.46.427,forced_choiceRT_color,2021.2.3,MacIntel,60.0024001,,,,,,,,7,Ontime,long,j,1,1.9601,3,0,12,2,1,,,,,
,1.9,,,,,,,,,d,orange,60fd7cda95936026b622bef3,2021-11-03_11h37.46.427,forced_choiceRT_color,2021.2.3,MacIntel,60.0024001,,,,,,,,7,Ontime,long,j,0,1.9771,3,1,13,0,1,,,,,
,0.3,,,,,,,,,j,red,60fd7cda95936026b622bef3,2021-11-03_11h37.46.427,forced_choiceRT_color,2021.2.3,MacIntel,60.0024001,,,,,,,,7,Fast,long,j,1,1.8267,3,2,14,2,1,,,,,
,0.21,,,,,,,,,d,orange,60fd7cda95936026b622bef3,2021-11-03_11h37.46.427,forced_choiceRT_color,2021.2.3,MacIntel,60.0024001,,,,,,,,7,Ontime,long,d,1,2.002,3,3,15,0,1,,,,,
,0.54,,,,,,,,,f,blue,60fd7cda95936026b622bef3,2021-11-03_11h37.46.427,forced_choiceRT_color,2021.2.3,MacIntel,60.0024001,,,,,,,,7,Fast,long,j,0,1.8778,4,0,16,1,1,,,,,
,0.97,,,,,,,,,f,blue,60fd7cda95936026b622bef3,2021-11-03_11h37.46.427,forced_choiceRT_color,2021.2.3,MacIntel,60.0024001,,,,,,,,7,Fast,long,f,1,1.8989,4,1,17,1,1,,,,,
,0.82,,,,,,,,,f,blue,60fd7cda95936026b622bef3,2021-11-03_11h37.46.427,forced_choiceRT_color,2021.2.3,MacIntel,60.0024001,,,,,,,,7,Fast,long,f,1,1.7804,4,2,18,1,1,,,,,
,0.01,,,,,,,,,f,blue,60fd7cda95936026b622bef3,2021-11-03_11h37.46.427,forced_choiceRT_color,2021.2.3,MacIntel,60.0024001,,,,,,,,7,Ontime,long,f,1,1.9524,4,3,19,1,1,,,,,
,1.34,,,,,,,,,k,purple,60fd7cda95936026b622bef3,2021-11-03_11h37.46.427,forced_choiceRT_color,2021.2.3,MacIntel,60.0024001,,,,,,,,7,Ontime,long,k,1,1.933,5,0,20,3,1,,,,,
,0.49,,,,,,,,,j,red,60fd7cda95936026b622bef3,2021-11-03_11h37.46.427,forced_choiceRT_color,2021.2.3,MacIntel,60.0024001,,,,,,,,7,Ontime,long,j,1,2.0355,5,1,21,2,1,,,,,
,1.8,,,,,,,,,j,red,60fd7cda95936026b622bef3,2021-11-03_11h37.46.427,forced_choiceRT_color,2021.2.3,MacIntel,60.0024001,,,,,,,,7,Ontime,long,j,1,2.0533,5,2,22,2,1,,,,,
,1.59,,,,,,,,,d,orange,60fd7cda95936026b622bef3,2021-11-03_11h37.46.427,forced_choiceRT_color,2021.2.3,MacIntel,60.0024001,,,,,,,,7,Ontime,long,k,0,2.0575,5,3,23,0,1,,,,,
,1.2,,,,,,,,,d,orange,60fd7cda95936026b622bef3,2021-11-03_11h37.46.427,forced_choiceRT_color,2021.2.3,MacIntel,60.0024001,,,,,,,,7,Ontime,long,d,1,1.9352,6,0,24,0,1,,,,,
,1.34,,,,,,,,,j,red,60fd7cda95936026b622bef3,2021-11-03_11h37.46.427,forced_choiceRT_color,2021.2.3,MacIntel,60.0024001,,,,,,,,7,Ontime,long,j,1,1.9251,6,1,25,2,1,,,,,
,0.79,,,,,,,,,f,blue,60fd7cda95936026b622bef3,2021-11-03_11h37.46.427,forced_choiceRT_color,2021.2.3,MacIntel,60.0024001,,,,,,,,7,Ontime,long,f,1,2.0345,6,2,26,1,1,,,,,
,1.29,,,,,,,,,j,red,60fd7cda95936026b622bef3,2021-11-03_11h37.46.427,forced_choiceRT_color,2021.2.3,MacIntel,60.0024001,,,,,,,,7,Ontime,long,j,1,2.0652,6,3,27,2,1,,,,,
,0.3,,,,,,,,,j,red,60fd7cda95936026b622bef3,2021-11-03_11h37.46.427,forced_choiceRT_color,2021.2.3,MacIntel,60.0024001,,,,,,,,7,Ontime,long,j,1,1.9994,7,0,28,2,1,,,,,
,1.99,,,,,,,,,d,orange,60fd7cda95936026b622bef3,2021-11-03_11h37.46.427,forced_choiceRT_color,2021.2.3,MacIntel,60.0024001,,,,,,,,7,Ontime,long,j,0,2.0587,7,1,29,0,1,,,,,
,0.52,,,,,,,,,k,purple,60fd7cda95936026b622bef3,2021-11-03_11h37.46.427,forced_choiceRT_color,2021.2.3,MacIntel,60.0024001,,,,,,,,7,Fast,long,k,1,1.8974,7,2,30,3,1,,,,,
,1.16,,,,,,,,,k,purple,60fd7cda95936026b622bef3,2021-11-03_11h37.46.427,forced_choiceRT_color,2021.2.3,MacIntel,60.0024001,,,,,,,,7,Fast,long,j,0,1.7929,7,3,31,3,1,,,,,
,0.11,,,,,,,,,k,purple,60fd7cda95936026b622bef3,2021-11-03_11h37.46.427,forced_choiceRT_color,2021.2.3,MacIntel,60.0024001,,,,,,,,7,Fast,long,k,1,1.7183,8,0,32,3,1,,,,,
,0.13,,,,,,,,,j,red,60fd7cda95936026b622bef3,2021-11-03_11h37.46.427,forced_choiceRT_color,2021.2.3,MacIntel,60.0024001,,,,,,,,7,Ontime,long,j,1,1.951,8,1,33,2,1,,,,,
,0.1,,,,,,,,,f,blue,60fd7cda95936026b622bef3,2021-11-03_11h37.46.427,forced_choiceRT_color,2021.2.3,MacIntel,60.0024001,,,,,,,,7,Fast,long,d,0,1.8443,8,2,34,1,1,,,,,
,1.91,,,,,,,,,d,orange,60fd7cda95936026b622bef3,2021-11-03_11h37.46.427,forced_choiceRT_color,2021.2.3,MacIntel,60.0024001,,,,,,,,7,Ontime,long,j,0,1.9816,8,3,35,0,1,,,,,
,1.54,,,,,,,,,k,purple,60fd7cda95936026b622bef3,2021-11-03_11h37.46.427,forced_choiceRT_color,2021.2.3,MacIntel,60.0024001,,,,,,,,7,Ontime,long,k,1,2.0841,9,0,36,3,1,,,,,
,1.73,,,,,,,,,k,purple,60fd7cda95936026b622bef3,2021-11-03_11h37.46.427,forced_choiceRT_color,2021.2.3,MacIntel,60.0024001,,,,,,,,7,Slow,long,k,1,2.1993,9,1,37,3,1,,,,,
,0.69,,,,,,,,,f,blue,60fd7cda95936026b622bef3,2021-11-03_11h37.46.427,forced_choiceRT_color,2021.2.3,MacIntel,60.0024001,,,,,,,,7,Ontime,long,f,1,2.0031,9,2,38,1,1,,,,,
,1.73,,,,,,,,,d,orange,60fd7cda95936026b622bef3,2021-11-03_11h37.46.427,forced_choiceRT_color,2021.2.3,MacIntel,60.0024001,,,,,,,,7,Ontime,long,d,1,2.0854,9,3,39,0,1,,,,,
,,,,,,,,,,,,60fd7cda95936026b622bef3,2021-11-03_11h37.46.427,forced_choiceRT_color,2021.2.3,MacIntel,60.0024001,,,,,,,,,,,,,,,,,,,6,0,6,0,1
,0.03,,,,,,,,,k,purple,60fd7cda95936026b622bef3,2021-11-03_11h37.46.427,forced_choiceRT_color,2021.2.3,MacIntel,60.0024001,,,,,,,,8,Ontime,long,k,1,1.9759,0,0,0,3,1,,,,,
,0.26,,,,,,,,,f,blue,60fd7cda95936026b622bef3,2021-11-03_11h37.46.427,forced_choiceRT_color,2021.2.3,MacIntel,60.0024001,,,,,,,,8,Ontime,long,f,1,2.0351,0,1,1,1,1,,,,,
,1.39,,,,,,,,,k,purple,60fd7cda95936026b622bef3,2021-11-03_11h37.46.427,forced_choiceRT_color,2021.2.3,MacIntel,60.0024001,,,,,,,,8,Ontime,long,k,1,1.9708,0,2,2,3,1,,,,,
,0.39,,,,,,,,,d,orange,60fd7cda95936026b622bef3,2021-11-03_11h37.46.427,forced_choiceRT_color,2021.2.3,MacIntel,60.0024001,,,,,,,,8,Ontime,long,d,1,1.9669,0,3,3,0,1,,,,,
,1.9,,,,,,,,,j,red,60fd7cda95936026b622bef3,2021-11-03_11h37.46.427,forced_choiceRT_color,2021.2.3,MacIntel,60.0024001,,,,,,,,8,Ontime,long,k,0,2.0492,1,0,4,2,1,,,,,
,0.46,,,,,,,,,k,purple,60fd7cda95936026b622bef3,2021-11-03_11h37.46.427,forced_choiceRT_color,2021.2.3,MacIntel,60.0024001,,,,,,,,8,Ontime,long,k,1,1.9496,1,1,5,3,1,,,,,
,0.26,,,,,,,,,k,purple,60fd7cda95936026b622bef3,2021-11-03_11h37.46.427,forced_choiceRT_color,2021.2.3,MacIntel,60.0024001,,,,,,,,8,Ontime,long,k,1,2.0171,1,2,6,3,1,,,,,
,0.34,,,,,,,,,j,red,60fd7cda95936026b622bef3,2021-11-03_11h37.46.427,forced_choiceRT_color,2021.2.3,MacIntel,60.0024001,,,,,,,,8,Ontime,long,j,1,1.9494,1,3,7,2,1,,,,,
,0.77,,,,,,,,,j,red,60fd7cda95936026b622bef3,2021-11-03_11h37.46.427,forced_choiceRT_color,2021.2.3,MacIntel,60.0024001,,,,,,,,8,Ontime,long,j,1,1.9158,2,0,8,2,1,,,,,
,0.17,,,,,,,,,f,blue,60fd7cda95936026b622bef3,2021-11-03_11h37.46.427,forced_choiceRT_color,2021.2.3,MacIntel,60.0024001,,,,,,,,8,Ontime,long,f,1,2.0022,2,1,9,1,1,,,,,
,0.91,,,,,,,,,f,blue,60fd7cda95936026b622bef3,2021-11-03_11h37.46.427,forced_choiceRT_color,2021.2.3,MacIntel,60.0024001,,,,,,,,8,Ontime,long,f,1,1.9679,2,2,10,1,1,,,,,
,0.4,,,,,,,,,k,purple,60fd7cda95936026b622bef3,2021-11-03_11h37.46.427,forced_choiceRT_color,2021.2.3,MacIntel,60.0024001,,,,,,,,8,Fast,long,k,1,1.8886,2,3,11,3,1,,,,,
,1.39,,,,,,,,,d,orange,60fd7cda95936026b622bef3,2021-11-03_11h37.46.427,forced_choiceRT_color,2021.2.3,MacIntel,60.0024001,,,,,,,,8,Ontime,long,j,0,1.9646,3,0,12,0,1,,,,,
,1.6,,,,,,,,,d,orange,60fd7cda95936026b622bef3,2021-11-03_11h37.46.427,forced_choiceRT_color,2021.2.3,MacIntel,60.0024001,,,,,,,,8,Slow,long,d,1,2.1253,3,1,13,0,1,,,,,
,0.38,,,,,,,,,j,red,60fd7cda95936026b622bef3,2021-11-03_11h37.46.427,forced_choiceRT_color,2021.2.3,MacIntel,60.0024001,,,,,,,,8,Ontime,long,j,1,2.0764,3,2,14,2,1,,,,,
,0.68,,,,,,,,,j,red,60fd7cda95936026b622bef3,2021-11-03_11h37.46.427,forced_choiceRT_color,2021.2.3,MacIntel,60.0024001,,,,,,,,8,Ontime,long,j,1,2.0651,3,3,15,2,1,,,,,
,0.83,,,,,,,,,k,purple,60fd7cda95936026b622bef3,2021-11-03_11h37.46.427,forced_choiceRT_color,2021.2.3,MacIntel,60.0024001,,,,,,,,8,Ontime,long,k,1,2.0672,4,0,16,3,1,,,,,
,0.09,,,,,,,,,d,orange,60fd7cda95936026b622bef3,2021-11-03_11h37.46.427,forced_choiceRT_color,2021.2.3,MacIntel,60.0024001,,,,,,,,8,Slow,long,d,1,2.1466,4,1,17,0,1,,,,,
,1.66,,,,,,,,,d,orange,60fd7cda95936026b622bef3,2021-11-03_11h37.46.427,forced_choiceRT_color,2021.2.3,MacIntel,60.0024001,,,,,,,,8,Ontime,long,d,1,1.9659,4,2,18,0,1,,,,,
,1.06,,,,,,,,,j,red,60fd7cda95936026b622bef3,2021-11-03_11h37.46.427,forced_choiceRT_color,2021.2.3,MacIntel,60.0024001,,,,,,,,8,Ontime,long,j,1,2.0333,4,3,19,2,1,,,,,
,0.27,,,,,,,,,d,orange,60fd7cda95936026b622bef3,2021-11-03_11h37.46.427,forced_choiceRT_color,2021.2.3,MacIntel,60.0024001,,,,,,,,8,Ontime,long,d,1,2.0447,5,0,20,0,1,,,,,
,0.05,,,,,,,,,j,red,60fd7cda95936026b622bef3,2021-11-03_11h37.46.427,forced_choiceRT_color,2021.2.3,MacIntel,60.0024001,,,,,,,,8,Ontime,long,j,1,2.0935,5,1,21,2,1,,,,,
,1.48,,,,,,,,,d,orange,60fd7cda95936026b622bef3,2021-11-03_11h37.46.427,forced_choiceRT_color,2021.2.3,MacIntel,60.0024001,,,,,,,,8,Slow,long,d,1,2.1172,5,2,22,0,1,,,,,
,0.43,,,,,,,,,f,blue,60fd7cda95936026b622bef3,2021-11-03_11h37.46.427,forced_choiceRT_color,2021.2.3,MacIntel,60.0024001,,,,,,,,8,Ontime,long,f,1,2.0993,5,3,23,1,1,,,,,
,0.61,,,,,,,,,d,orange,60fd7cda95936026b622bef3,2021-11-03_11h37.46.427,forced_choiceRT_color,2021.2.3,MacIntel,60.0024001,,,,,,,,8,Slow,long,d,1,2.1576,6,0,24,0,1,,,,,
,0.42,,,,,,,,,k,purple,60fd7cda95936026b622bef3,2021-11-03_11h37.46.427,forced_choiceRT_color,2021.2.3,MacIntel,60.0024001,,,,,,,,8,Ontime,long,k,1,1.9595,6,1,25,3,1,,,,,
,0.19,,,,,,,,,f,blue,60fd7cda95936026b622bef3,2021-11-03_11h37.46.427,forced_choiceRT_color,2021.2.3,MacIntel,60.0024001,,,,,,,,8,Slow,long,f,1,2.1441,6,2,26,1,1,,,,,
,0.34,,,,,,,,,d,orange,60fd7cda95936026b622bef3,2021-11-03_11h37.46.427,forced_choiceRT_color,2021.2.3,MacIntel,60.0024001,,,,,,,,8,Ontime,long,d,1,2.0157,6,3,27,0,1,,,,,
,0.1,,,,,,,,,j,red,60fd7cda95936026b622bef3,2021-11-03_11h37.46.427,forced_choiceRT_color,2021.2.3,MacIntel,60.0024001,,,,,,,,8,Ontime,long,j,1,2.0675,7,0,28,2,1,,,,,
,0.74,,,,,,,,,d,orange,60fd7cda95936026b622bef3,2021-11-03_11h37.46.427,forced_choiceRT_color,2021.2.3,MacIntel,60.0024001,,,,,,,,8,Ontime,long,d,1,2.0609,7,1,29,0,1,,,,,
,1.25,,,,,,,,,j,red,60fd7cda95936026b622bef3,2021-11-03_11h37.46.427,forced_choiceRT_color,2021.2.3,MacIntel,60.0024001,,,,,,,,8,Ontime,long,j,1,1.968,7,2,30,2,1,,,,,
,0.71,,,,,,,,,f,blue,60fd7cda95936026b622bef3,2021-11-03_11h37.46.427,forced_choiceRT_color,2021.2.3,MacIntel,60.0024001,,,,,,,,8,Ontime,long,f,1,2.0338,7,3,31,1,1,,,,,
,1.4,,,,,,,,,j,red,60fd7cda95936026b622bef3,2021-11-03_11h37.46.427,forced_choiceRT_color,2021.2.3,MacIntel,60.0024001,,,,,,,,8,Ontime,long,j,1,2.0447,8,0,32,2,1,,,,,
,0.12,,,,,,,,,f,blue,60fd7cda95936026b622bef3,2021-11-03_11h37.46.427,forced_choiceRT_color,2021.2.3,MacIntel,60.0024001,,,,,,,,8,Ontime,long,f,1,1.9963,8,1,33,1,1,,,,,
,0.58,,,,,,,,,k,purple,60fd7cda95936026b622bef3,2021-11-03_11h37.46.427,forced_choiceRT_color,2021.2.3,MacIntel,60.0024001,,,,,,,,8,Ontime,long,k,1,1.9844,8,2,34,3,1,,,,,
,0.63,,,,,,,,,f,blue,60fd7cda95936026b622bef3,2021-11-03_11h37.46.427,forced_choiceRT_color,2021.2.3,MacIntel,60.0024001,,,,,,,,8,Ontime,long,f,1,1.9762,8,3,35,1,1,,,,,
,1.48,,,,,,,,,k,purple,60fd7cda95936026b622bef3,2021-11-03_11h37.46.427,forced_choiceRT_color,2021.2.3,MacIntel,60.0024001,,,,,,,,8,Ontime,long,k,1,2.0999,9,0,36,3,1,,,,,
,1.57,,,,,,,,,k,purple,60fd7cda95936026b622bef3,2021-11-03_11h37.46.427,forced_choiceRT_color,2021.2.3,MacIntel,60.0024001,,,,,,,,8,Ontime,long,k,1,2.0801,9,1,37,3,1,,,,,
,1.55,,,,,,,,,f,blue,60fd7cda95936026b622bef3,2021-11-03_11h37.46.427,forced_choiceRT_color,2021.2.3,MacIntel,60.0024001,,,,,,,,8,Ontime,long,k,0,2.0605,9,2,38,1,1,,,,,
,0.45,,,,,,,,,f,blue,60fd7cda95936026b622bef3,2021-11-03_11h37.46.427,forced_choiceRT_color,2021.2.3,MacIntel,60.0024001,,,,,,,,8,Ontime,long,f,1,1.9856,9,3,39,1,1,,,,,
,,,,,,,,,,,,60fd7cda95936026b622bef3,2021-11-03_11h37.46.427,forced_choiceRT_color,2021.2.3,MacIntel,60.0024001,,,,,,,,,,,,,,,,,,,7,0,7,0,1
,0.74,,,,,,,,,f,blue,60fd7cda95936026b622bef3,2021-11-03_11h37.46.427,forced_choiceRT_color,2021.2.3,MacIntel,60.0024001,,,,,,,,9,Ontime,long,f,1,2.0027,0,0,0,1,1,,,,,
,0.94,,,,,,,,,d,orange,60fd7cda95936026b622bef3,2021-11-03_11h37.46.427,forced_choiceRT_color,2021.2.3,MacIntel,60.0024001,,,,,,,,9,Ontime,long,d,1,1.9949,0,1,1,0,1,,,,,
,0.33,,,,,,,,,k,purple,60fd7cda95936026b622bef3,2021-11-03_11h37.46.427,forced_choiceRT_color,2021.2.3,MacIntel,60.0024001,,,,,,,,9,Ontime,long,k,1,2.0146,0,2,2,3,1,,,,,
,1.79,,,,,,,,,k,purple,60fd7cda95936026b622bef3,2021-11-03_11h37.46.427,forced_choiceRT_color,2021.2.3,MacIntel,60.0024001,,,,,,,,9,Ontime,long,j,0,1.9625,0,3,3,3,1,,,,,
,1.85,,,,,,,,,k,purple,60fd7cda95936026b622bef3,2021-11-03_11h37.46.427,forced_choiceRT_color,2021.2.3,MacIntel,60.0024001,,,,,,,,9,Ontime,long,j,0,2.0317,1,0,4,3,1,,,,,
,1.99,,,,,,,,,j,red,60fd7cda95936026b622bef3,2021-11-03_11h37.46.427,forced_choiceRT_color,2021.2.3,MacIntel,60.0024001,,,,,,,,9,Ontime,long,k,0,2.0121,1,1,5,2,1,,,,,
,1.2,,,,,,,,,j,red,60fd7cda95936026b622bef3,2021-11-03_11h37.46.427,forced_choiceRT_color,2021.2.3,MacIntel,60.0024001,,,,,,,,9,Ontime,long,j,1,1.952,1,2,6,2,1,,,,,
,0.85,,,,,,,,,f,blue,60fd7cda95936026b622bef3,2021-11-03_11h37.46.427,forced_choiceRT_color,2021.2.3,MacIntel,60.0024001,,,,,,,,9,Ontime,long,f,1,1.9811,1,3,7,1,1,,,,,
,0.21,,,,,,,,,f,blue,60fd7cda95936026b622bef3,2021-11-03_11h37.46.427,forced_choiceRT_color,2021.2.3,MacIntel,60.0024001,,,,,,,,9,Ontime,long,f,1,2.0419,2,0,8,1,1,,,,,
,0.33,,,,,,,,,d,orange,60fd7cda95936026b622bef3,2021-11-03_11h37.46.427,forced_choiceRT_color,2021.2.3,MacIntel,60.0024001,,,,,,,,9,Ontime,long,d,1,2.015,2,1,9,0,1,,,,,
,1.95,,,,,,,,,f,blue,60fd7cda95936026b622bef3,2021-11-03_11h37.46.427,forced_choiceRT_color,2021.2.3,MacIntel,60.0024001,,,,,,,,9,Slow,long,f,1,2.2998,2,2,10,1,1,,,,,
,0.45,,,,,,,,,k,purple,60fd7cda95936026b622bef3,2021-11-03_11h37.46.427,forced_choiceRT_color,2021.2.3,MacIntel,60.0024001,,,,,,,,9,Ontime,long,k,1,1.9855,2,3,11,3,1,,,,,
,0.1,,,,,,,,,f,blue,60fd7cda95936026b622bef3,2021-11-03_11h37.46.427,forced_choiceRT_color,2021.2.3,MacIntel,60.0024001,,,,,,,,9,Ontime,long,f,1,2.0474,3,0,12,1,1,,,,,
,1.27,,,,,,,,,f,blue,60fd7cda95936026b622bef3,2021-11-03_11h37.46.427,forced_choiceRT_color,2021.2.3,MacIntel,60.0024001,,,,,,,,9,Ontime,long,f,1,2.0632,3,1,13,1,1,,,,,
,1.05,,,,,,,,,d,orange,60fd7cda95936026b622bef3,2021-11-03_11h37.46.427,forced_choiceRT_color,2021.2.3,MacIntel,60.0024001,,,,,,,,9,Ontime,long,d,1,2.07,3,2,14,0,1,,,,,
,1.28,,,,,,,,,k,purple,60fd7cda95936026b622bef3,2021-11-03_11h37.46.427,forced_choiceRT_color,2021.2.3,MacIntel,60.0024001,,,,,,,,9,Ontime,long,f,0,1.9481,3,3,15,3,1,,,,,
,1.6,,,,,,,,,j,red,60fd7cda95936026b622bef3,2021-11-03_11h37.46.427,forced_choiceRT_color,2021.2.3,MacIntel,60.0024001,,,,,,,,9,Ontime,long,j,1,2.0079,4,0,16,2,1,,,,,
,1.74,,,,,,,,,j,red,60fd7cda95936026b622bef3,2021-11-03_11h37.46.427,forced_choiceRT_color,2021.2.3,MacIntel,60.0024001,,,,,,,,9,Ontime,long,j,1,2.0338,4,1,17,2,1,,,,,
,1.3,,,,,,,,,d,orange,60fd7cda95936026b622bef3,2021-11-03_11h37.46.427,forced_choiceRT_color,2021.2.3,MacIntel,60.0024001,,,,,,,,9,Ontime,long,d,1,2.0345,4,2,18,0,1,,,,,
,0.21,,,,,,,,,j,red,60fd7cda95936026b622bef3,2021-11-03_11h37.46.427,forced_choiceRT_color,2021.2.3,MacIntel,60.0024001,,,,,,,,9,Ontime,long,j,1,2.0504,4,3,19,2,1,,,,,
,1.23,,,,,,,,,j,red,60fd7cda95936026b622bef3,2021-11-03_11h37.46.427,forced_choiceRT_color,2021.2.3,MacIntel,60.0024001,,,,,,,,9,Ontime,long,j,1,2.0445,5,0,20,2,1,,,,,
,0.26,,,,,,,,,d,orange,60fd7cda95936026b622bef3,2021-11-03_11h37.46.427,forced_choiceRT_color,2021.2.3,MacIntel,60.0024001,,,,,,,,9,Ontime,long,d,1,1.9981,5,1,21,0,1,,,,,
,1.73,,,,,,,,,j,red,60fd7cda95936026b622bef3,2021-11-03_11h37.46.427,forced_choiceRT_color,2021.2.3,MacIntel,60.0024001,,,,,,,,9,Slow,long,k,0,2.2519,5,2,22,2,1,,,,,
,1.07,,,,,,,,,k,purple,60fd7cda95936026b622bef3,2021-11-03_11h37.46.427,forced_choiceRT_color,2021.2.3,MacIntel,60.0024001,,,,,,,,9,Ontime,long,k,1,2.0503,5,3,23,3,1,,,,,
,0.77,,,,,,,,,j,red,60fd7cda95936026b622bef3,2021-11-03_11h37.46.427,forced_choiceRT_color,2021.2.3,MacIntel,60.0024001,,,,,,,,9,Slow,long,j,1,2.1657,6,0,24,2,1,,,,,
,1.76,,,,,,,,,k,purple,60fd7cda95936026b622bef3,2021-11-03_11h37.46.427,forced_choiceRT_color,2021.2.3,MacIntel,60.0024001,,,,,,,,9,Slow,long,j,0,2.1163,6,1,25,3,1,,,,,
,1.16,,,,,,,,,d,orange,60fd7cda95936026b622bef3,2021-11-03_11h37.46.427,forced_choiceRT_color,2021.2.3,MacIntel,60.0024001,,,,,,,,9,Ontime,long,d,1,1.9849,6,2,26,0,1,,,,,
,0.62,,,,,,,,,d,orange,60fd7cda95936026b622bef3,2021-11-03_11h37.46.427,forced_choiceRT_color,2021.2.3,MacIntel,60.0024001,,,,,,,,9,Ontime,long,d,1,1.9624,6,3,27,0,1,,,,,
,0.49,,,,,,,,,d,orange,60fd7cda95936026b622bef3,2021-11-03_11h37.46.427,forced_choiceRT_color,2021.2.3,MacIntel,60.0024001,,,,,,,,9,Ontime,long,d,1,1.9149,7,0,28,0,1,,,,,
,0.54,,,,,,,,,j,red,60fd7cda95936026b622bef3,2021-11-03_11h37.46.427,forced_choiceRT_color,2021.2.3,MacIntel,60.0024001,,,,,,,,9,Ontime,long,j,1,1.9337,7,1,29,2,1,,,,,
,0.83,,,,,,,,,k,purple,60fd7cda95936026b622bef3,2021-11-03_11h37.46.427,forced_choiceRT_color,2021.2.3,MacIntel,60.0024001,,,,,,,,9,Ontime,long,k,1,1.9351,7,2,30,3,1,,,,,
,1.81,,,,,,,,,d,orange,60fd7cda95936026b622bef3,2021-11-03_11h37.46.427,forced_choiceRT_color,2021.2.3,MacIntel,60.0024001,,,,,,,,9,Ontime,long,k,0,2.0337,7,3,31,0,1,,,,,
,1.32,,,,,,,,,f,blue,60fd7cda95936026b622bef3,2021-11-03_11h37.46.427,forced_choiceRT_color,2021.2.3,MacIntel,60.0024001,,,,,,,,9,Fast,long,d,0,1.8834,8,0,32,1,1,,,,,
,0.35,,,,,,,,,k,purple,60fd7cda95936026b622bef3,2021-11-03_11h37.46.427,forced_choiceRT_color,2021.2.3,MacIntel,60.0024001,,,,,,,,9,Fast,long,k,1,1.8172,8,1,33,3,1,,,,,
,0.4,,,,,,,,,j,red,60fd7cda95936026b622bef3,2021-11-03_11h37.46.427,forced_choiceRT_color,2021.2.3,MacIntel,60.0024001,,,,,,,,9,Ontime,long,j,1,1.9332,8,2,34,2,1,,,,,
,1.76,,,,,,,,,k,purple,60fd7cda95936026b622bef3,2021-11-03_11h37.46.427,forced_choiceRT_color,2021.2.3,MacIntel,60.0024001,,,,,,,,9,Ontime,long,d,0,1.9664,8,3,35,3,1,,,,,
,0.22,,,,,,,,,f,blue,60fd7cda95936026b622bef3,2021-11-03_11h37.46.427,forced_choiceRT_color,2021.2.3,MacIntel,60.0024001,,,,,,,,9,Ontime,long,f,1,2.002,9,0,36,1,1,,,,,
,1.84,,,,,,,,,f,blue,60fd7cda95936026b622bef3,2021-11-03_11h37.46.427,forced_choiceRT_color,2021.2.3,MacIntel,60.0024001,,,,,,,,9,Ontime,long,d,0,2.033,9,1,37,1,1,,,,,
,0.56,,,,,,,,,f,blue,60fd7cda95936026b622bef3,2021-11-03_11h37.46.427,forced_choiceRT_color,2021.2.3,MacIntel,60.0024001,,,,,,,,9,Ontime,long,f,1,2.0436,9,2,38,1,1,,,,,
,1.15,,,,,,,,,d,orange,60fd7cda95936026b622bef3,2021-11-03_11h37.46.427,forced_choiceRT_color,2021.2.3,MacIntel,60.0024001,,,,,,,,9,Ontime,long,d,1,1.9672,9,3,39,0,1,,,,,
,,,,,,,,,,,,60fd7cda95936026b622bef3,2021-11-03_11h37.46.427,forced_choiceRT_color,2021.2.3,MacIntel,60.0024001,,,,,,,,,,,,,,,,,,,8,0,8,0,1
,0.45,,,,,,,,,j,red,60fd7cda95936026b622bef3,2021-11-03_11h37.46.427,forced_choiceRT_color,2021.2.3,MacIntel,60.0024001,,,,,,,,10,Ontime,long,j,1,1.9737,0,0,0,2,1,,,,,
,0.15,,,,,,,,,k,purple,60fd7cda95936026b622bef3,2021-11-03_11h37.46.427,forced_choiceRT_color,2021.2.3,MacIntel,60.0024001,,,,,,,,10,Ontime,long,k,1,2.0908,0,1,1,3,1,,,,,
,0.56,,,,,,,,,d,orange,60fd7cda95936026b622bef3,2021-11-03_11h37.46.427,forced_choiceRT_color,2021.2.3,MacIntel,60.0024001,,,,,,,,10,Ontime,long,d,1,2.0773,0,2,2,0,1,,,,,
,0.19,,,,,,,,,j,red,60fd7cda95936026b622bef3,2021-11-03_11h37.46.427,forced_choiceRT_color,2021.2.3,MacIntel,60.0024001,,,,,,,,10,Ontime,long,j,1,2.0484,0,3,3,2,1,,,,,
,1.73,,,,,,,,,j,red,60fd7cda95936026b622bef3,2021-11-03_11h37.46.427,forced_choiceRT_color,2021.2.3,MacIntel,60.0024001,,,,,,,,10,Ontime,long,d,0,2.0517,1,0,4,2,1,,,,,
,1.72,,,,,,,,,d,orange,60fd7cda95936026b622bef3,2021-11-03_11h37.46.427,forced_choiceRT_color,2021.2.3,MacIntel,60.0024001,,,,,,,,10,Slow,long,k,0,2.1483,1,1,5,0,1,,,,,
,1.78,,,,,,,,,f,blue,60fd7cda95936026b622bef3,2021-11-03_11h37.46.427,forced_choiceRT_color,2021.2.3,MacIntel,60.0024001,,,,,,,,10,Ontime,long,j,0,2.0833,1,2,6,1,1,,,,,
,1.21,,,,,,,,,d,orange,60fd7cda95936026b622bef3,2021-11-03_11h37.46.427,forced_choiceRT_color,2021.2.3,MacIntel,60.0024001,,,,,,,,10,Ontime,long,d,1,1.9328,1,3,7,0,1,,,,,
,1.01,,,,,,,,,d,orange,60fd7cda95936026b622bef3,2021-11-03_11h37.46.427,forced_choiceRT_color,2021.2.3,MacIntel,60.0024001,,,,,,,,10,Ontime,long,d,1,2.0078,2,0,8,0,1,,,,,
,0.91,,,,,,,,,j,red,60fd7cda95936026b622bef3,2021-11-03_11h37.46.427,forced_choiceRT_color,2021.2.3,MacIntel,60.0024001,,,,,,,,10,Ontime,long,j,1,2.0008,2,1,9,2,1,,,,,
,1.77,,,,,,,,,k,purple,60fd7cda95936026b622bef3,2021-11-03_11h37.46.427,forced_choiceRT_color,2021.2.3,MacIntel,60.0024001,,,,,,,,10,Ontime,long,j,0,2.0778,2,2,10,3,1,,,,,
,1.52,,,,,,,,,j,red,60fd7cda95936026b622bef3,2021-11-03_11h37.46.427,forced_choiceRT_color,2021.2.3,MacIntel,60.0024001,,,,,,,,10,Ontime,long,j,1,2.0686,2,3,11,2,1,,,,,
,1.34,,,,,,,,,f,blue,60fd7cda95936026b622bef3,2021-11-03_11h37.46.427,forced_choiceRT_color,2021.2.3,MacIntel,60.0024001,,,,,,,,10,Ontime,long,d,0,2.0175,3,0,12,1,1,,,,,
,1.48,,,,,,,,,k,purple,60fd7cda95936026b622bef3,2021-11-03_11h37.46.427,forced_choiceRT_color,2021.2.3,MacIntel,60.0024001,,,,,,,,10,Ontime,long,k,1,1.9838,3,1,13,3,1,,,,,
,1.17,,,,,,,,,d,orange,60fd7cda95936026b622bef3,2021-11-03_11h37.46.427,forced_choiceRT_color,2021.2.3,MacIntel,60.0024001,,,,,,,,10,Ontime,long,d,1,1.9774,3,2,14,0,1,,,,,
,0.55,,,,,,,,,d,orange,60fd7cda95936026b622bef3,2021-11-03_11h37.46.427,forced_choiceRT_color,2021.2.3,MacIntel,60.0024001,,,,,,,,10,Ontime,long,d,1,1.9822,3,3,15,0,1,,,,,
,0.95,,,,,,,,,d,orange,60fd7cda95936026b622bef3,2021-11-03_11h37.46.427,forced_choiceRT_color,2021.2.3,MacIntel,60.0024001,,,,,,,,10,Ontime,long,d,1,2.0327,4,0,16,0,1,,,,,
,1.44,,,,,,,,,k,purple,60fd7cda95936026b622bef3,2021-11-03_11h37.46.427,forced_choiceRT_color,2021.2.3,MacIntel,60.0024001,,,,,,,,10,Ontime,long,j,0,2.0473,4,1,17,3,1,,,,,
,0.25,,,,,,,,,j,red,60fd7cda95936026b622bef3,2021-11-03_11h37.46.427,forced_choiceRT_color,2021.2.3,MacIntel,60.0024001,,,,,,,,10,Ontime,long,j,1,2.018,4,2,18,2,1,,,,,
,1.99,,,,,,,,,f,blue,60fd7cda95936026b622bef3,2021-11-03_11h37.46.427,forced_choiceRT_color,2021.2.3,MacIntel,60.0024001,,,,,,,,10,Slow,long,k,0,2.1167,4,3,19,1,1,,,,,
,0.07,,,,,,,,,k,purple,60fd7cda95936026b622bef3,2021-11-03_11h37.46.427,forced_choiceRT_color,2021.2.3,MacIntel,60.0024001,,,,,,,,10,Ontime,long,k,1,1.9629,5,0,20,3,1,,,,,
,0.94,,,,,,,,,j,red,60fd7cda95936026b622bef3,2021-11-03_11h37.46.427,forced_choiceRT_color,2021.2.3,MacIntel,60.0024001,,,,,,,,10,Ontime,long,j,1,2.0268,5,1,21,2,1,,,,,
,1.52,,,,,,,,,f,blue,60fd7cda95936026b622bef3,2021-11-03_11h37.46.427,forced_choiceRT_color,2021.2.3,MacIntel,60.0024001,,,,,,,,10,Ontime,long,d,0,2.0448,5,2,22,1,1,,,,,
,1.65,,,,,,,,,f,blue,60fd7cda95936026b622bef3,2021-11-03_11h37.46.427,forced_choiceRT_color,2021.2.3,MacIntel,60.0024001,,,,,,,,10,Slow,long,f,1,2.1113,5,3,23,1,1,,,,,
,1.91,,,,,,,,,k,purple,60fd7cda95936026b622bef3,2021-11-03_11h37.46.427,forced_choiceRT_color,2021.2.3,MacIntel,60.0024001,,,,,,,,10,Ontime,long,d,0,2.0676,6,0,24,3,1,,,,,
,0.21,,,,,,,,,f,blue,60fd7cda95936026b622bef3,2021-11-03_11h37.46.427,forced_choiceRT_color,2021.2.3,MacIntel,60.0024001,,,,,,,,10,Ontime,long,f,1,1.982,6,1,25,1,1,,,,,
,1.87,,,,,,,,,d,orange,60fd7cda95936026b622bef3,2021-11-03_11h37.46.427,forced_choiceRT_color,2021.2.3,MacIntel,60.0024001,,,,,,,,10,Ontime,long,d,1,2.0179,6,2,26,0,1,,,,,
,0.23,,,,,,,,,k,purple,60fd7cda95936026b622bef3,2021-11-03_11h37.46.427,forced_choiceRT_color,2021.2.3,MacIntel,60.0024001,,,,,,,,10,Ontime,long,k,1,1.9839,6,3,27,3,1,,,,,
,0.97,,,,,,,,,d,orange,60fd7cda95936026b622bef3,2021-11-03_11h37.46.427,forced_choiceRT_color,2021.2.3,MacIntel,60.0024001,,,,,,,,10,Ontime,long,d,1,2.0253,7,0,28,0,1,,,,,
,0.6,,,,,,,,,f,blue,60fd7cda95936026b622bef3,2021-11-03_11h37.46.427,forced_choiceRT_color,2021.2.3,MacIntel,60.0024001,,,,,,,,10,Ontime,long,f,1,1.9994,7,1,29,1,1,,,,,
,1.71,,,,,,,,,k,purple,60fd7cda95936026b622bef3,2021-11-03_11h37.46.427,forced_choiceRT_color,2021.2.3,MacIntel,60.0024001,,,,,,,,10,Ontime,long,d,0,1.9999,7,2,30,3,1,,,,,
,1.87,,,,,,,,,d,orange,60fd7cda95936026b622bef3,2021-11-03_11h37.46.427,forced_choiceRT_color,2021.2.3,MacIntel,60.0024001,,,,,,,,10,Ontime,long,k,0,2.0363,7,3,31,0,1,,,,,
,0.79,,,,,,,,,f,blue,60fd7cda95936026b622bef3,2021-11-03_11h37.46.427,forced_choiceRT_color,2021.2.3,MacIntel,60.0024001,,,,,,,,10,Ontime,long,f,1,1.949,8,0,32,1,1,,,,,
,0.04,,,,,,,,,j,red,60fd7cda95936026b622bef3,2021-11-03_11h37.46.427,forced_choiceRT_color,2021.2.3,MacIntel,60.0024001,,,,,,,,10,Ontime,long,j,1,1.9015,8,1,33,2,1,,,,,
,0.75,,,,,,,,,f,blue,60fd7cda95936026b622bef3,2021-11-03_11h37.46.427,forced_choiceRT_color,2021.2.3,MacIntel,60.0024001,,,,,,,,10,Fast,long,f,1,1.8589,8,2,34,1,1,,,,,
,1.19,,,,,,,,,k,purple,60fd7cda95936026b622bef3,2021-11-03_11h37.46.427,forced_choiceRT_color,2021.2.3,MacIntel,60.0024001,,,,,,,,10,Slow,long,k,1,2.1167,8,3,35,3,1,,,,,
,0.78,,,,,,,,,j,red,60fd7cda95936026b622bef3,2021-11-03_11h37.46.427,forced_choiceRT_color,2021.2.3,MacIntel,60.0024001,,,,,,,,10,Ontime,long,j,1,1.9452,9,0,36,2,1,,,,,
,0.08,,,,,,,,,j,red,60fd7cda95936026b622bef3,2021-11-03_11h37.46.427,forced_choiceRT_color,2021.2.3,MacIntel,60.0024001,,,,,,,,10,Ontime,long,j,1,1.9534,9,1,37,2,1,,,,,
,1.57,,,,,,,,,k,purple,60fd7cda95936026b622bef3,2021-11-03_11h37.46.427,forced_choiceRT_color,2021.2.3,MacIntel,60.0024001,,,,,,,,10,Ontime,long,k,1,1.9924,9,2,38,3,1,,,,,
,1.67,,,,,,,,,f,blue,60fd7cda95936026b622bef3,2021-11-03_11h37.46.427,forced_choiceRT_color,2021.2.3,MacIntel,60.0024001,,,,,,,,10,Ontime,long,j,0,1.9786,9,3,39,1,1,,,,,
,,,,,,,,,,,,60fd7cda95936026b622bef3,2021-11-03_11h37.46.427,forced_choiceRT_color,2021.2.3,MacIntel,60.0024001,,,,,,,,,,,,,,,,,,,9,0,9,0,1
