IP_Addresss,target_onset,trial_resp_sp.keys,trial_resp_sp.corr,trial_resp_sp.rt,trials_train_loop.thisRepN,trials_train_loop.thisTrialN,trials_train_loop.thisN,trials_train_loop.thisIndex,trials_train_loop.ran,correct_key,color,participant,date,expName,psychopyVersion,OS,frameRate,trial_resp_timing.keys,trial_resp_timing.rt,trials_train_timing.thisRepN,trials_train_timing.thisTrialN,trials_train_timing.thisN,trials_train_timing.thisIndex,trials_train_timing.ran,block_id,ontime,feedback_cond,forcedRT_resp.keys,forcedRT_resp.corr,forcedRT_resp.rt,trials.thisRepN,trials.thisTrialN,trials.thisN,trials.thisIndex,trials.ran,blocks.thisRepN,blocks.thisTrialN,blocks.thisN,blocks.thisIndex,blocks.ran
174.100.243.26,0,j,1,1.8111,0,0,0,2,1,j,red,60fe1a9d554d192b202ed74d,2021-11-03_11h26.25.850,forced_choiceRT_color,2021.2.3,MacIntel,59.84082341,,,,,,,,,,,,,,,,,,,,,,,
,0,j,1,1.0032,0,1,1,2,1,j,red,60fe1a9d554d192b202ed74d,2021-11-03_11h26.25.850,forced_choiceRT_color,2021.2.3,MacIntel,59.84082341,,,,,,,,,,,,,,,,,,,,,,,
,0,j,1,0.6191,0,2,2,2,1,j,red,60fe1a9d554d192b202ed74d,2021-11-03_11h26.25.850,forced_choiceRT_color,2021.2.3,MacIntel,59.84082341,,,,,,,,,,,,,,,,,,,,,,,
,0,k,1,1.1693,0,3,3,3,1,k,purple,60fe1a9d554d192b202ed74d,2021-11-03_11h26.25.850,forced_choiceRT_color,2021.2.3,MacIntel,59.84082341,,,,,,,,,,,,,,,,,,,,,,,
,0,d,1,1.3109,1,0,4,0,1,d,orange,60fe1a9d554d192b202ed74d,2021-11-03_11h26.25.850,forced_choiceRT_color,2021.2.3,MacIntel,59.84082341,,,,,,,,,,,,,,,,,,,,,,,
,0,d,1,2.0223,1,1,5,0,1,d,orange,60fe1a9d554d192b202ed74d,2021-11-03_11h26.25.850,forced_choiceRT_color,2021.2.3,MacIntel,59.84082341,,,,,,,,,,,,,,,,,,,,,,,
,0,f,1,1.3685,1,2,6,1,1,f,blue,60fe1a9d554d192b202ed74d,2021-11-03_11h26.25.850,forced_choiceRT_color,2021.2.3,MacIntel,59.84082341,,,,,,,,,,,,,,,,,,,,,,,
,0,d,1,1.1338,1,3,7,0,1,d,orange,60fe1a9d554d192b202ed74d,2021-11-03_11h26.25.850,forced_choiceRT_color,2021.2.3,MacIntel,59.84082341,,,,,,,,,,,,,,,,,,,,,,,
,0,k,1,1.0173,2,0,8,3,1,k,purple,60fe1a9d554d192b202ed74d,2021-11-03_11h26.25.850,forced_choiceRT_color,2021.2.3,MacIntel,59.84082341,,,,,,,,,,,,,,,,,,,,,,,
,0,k,1,0.6066,2,1,9,3,1,k,purple,60fe1a9d554d192b202ed74d,2021-11-03_11h26.25.850,forced_choiceRT_color,2021.2.3,MacIntel,59.84082341,,,,,,,,,,,,,,,,,,,,,,,
,0,d,1,0.6818,2,2,10,0,1,d,orange,60fe1a9d554d192b202ed74d,2021-11-03_11h26.25.850,forced_choiceRT_color,2021.2.3,MacIntel,59.84082341,,,,,,,,,,,,,,,,,,,,,,,
,0,d,1,0.5204,2,3,11,0,1,d,orange,60fe1a9d554d192b202ed74d,2021-11-03_11h26.25.850,forced_choiceRT_color,2021.2.3,MacIntel,59.84082341,,,,,,,,,,,,,,,,,,,,,,,
,0,k,1,0.5197,3,0,12,3,1,k,purple,60fe1a9d554d192b202ed74d,2021-11-03_11h26.25.850,forced_choiceRT_color,2021.2.3,MacIntel,59.84082341,,,,,,,,,,,,,,,,,,,,,,,
,0,j,1,1.669,3,1,13,2,1,j,red,60fe1a9d554d192b202ed74d,2021-11-03_11h26.25.850,forced_choiceRT_color,2021.2.3,MacIntel,59.84082341,,,,,,,,,,,,,,,,,,,,,,,
,0,f,1,1.0192,3,2,14,1,1,f,blue,60fe1a9d554d192b202ed74d,2021-11-03_11h26.25.850,forced_choiceRT_color,2021.2.3,MacIntel,59.84082341,,,,,,,,,,,,,,,,,,,,,,,
,0,f,1,0.6531,3,3,15,1,1,f,blue,60fe1a9d554d192b202ed74d,2021-11-03_11h26.25.850,forced_choiceRT_color,2021.2.3,MacIntel,59.84082341,,,,,,,,,,,,,,,,,,,,,,,
,0,f,1,0.4685,4,0,16,1,1,f,blue,60fe1a9d554d192b202ed74d,2021-11-03_11h26.25.850,forced_choiceRT_color,2021.2.3,MacIntel,59.84082341,,,,,,,,,,,,,,,,,,,,,,,
,0,j,1,0.5863,4,1,17,2,1,j,red,60fe1a9d554d192b202ed74d,2021-11-03_11h26.25.850,forced_choiceRT_color,2021.2.3,MacIntel,59.84082341,,,,,,,,,,,,,,,,,,,,,,,
,0,d,1,0.6064,4,2,18,0,1,d,orange,60fe1a9d554d192b202ed74d,2021-11-03_11h26.25.850,forced_choiceRT_color,2021.2.3,MacIntel,59.84082341,,,,,,,,,,,,,,,,,,,,,,,
,0,j,1,0.5849,4,3,19,2,1,j,red,60fe1a9d554d192b202ed74d,2021-11-03_11h26.25.850,forced_choiceRT_color,2021.2.3,MacIntel,59.84082341,,,,,,,,,,,,,,,,,,,,,,,
,0,j,1,0.6023,5,0,20,2,1,j,red,60fe1a9d554d192b202ed74d,2021-11-03_11h26.25.850,forced_choiceRT_color,2021.2.3,MacIntel,59.84082341,,,,,,,,,,,,,,,,,,,,,,,
,0,k,1,0.5179,5,1,21,3,1,k,purple,60fe1a9d554d192b202ed74d,2021-11-03_11h26.25.850,forced_choiceRT_color,2021.2.3,MacIntel,59.84082341,,,,,,,,,,,,,,,,,,,,,,,
,0,d,1,0.5521,5,2,22,0,1,d,orange,60fe1a9d554d192b202ed74d,2021-11-03_11h26.25.850,forced_choiceRT_color,2021.2.3,MacIntel,59.84082341,,,,,,,,,,,,,,,,,,,,,,,
,0,j,1,0.6175,5,3,23,2,1,j,red,60fe1a9d554d192b202ed74d,2021-11-03_11h26.25.850,forced_choiceRT_color,2021.2.3,MacIntel,59.84082341,,,,,,,,,,,,,,,,,,,,,,,
,0,j,1,0.5608,6,0,24,2,1,j,red,60fe1a9d554d192b202ed74d,2021-11-03_11h26.25.850,forced_choiceRT_color,2021.2.3,MacIntel,59.84082341,,,,,,,,,,,,,,,,,,,,,,,
,0,d,1,0.6351,6,1,25,0,1,d,orange,60fe1a9d554d192b202ed74d,2021-11-03_11h26.25.850,forced_choiceRT_color,2021.2.3,MacIntel,59.84082341,,,,,,,,,,,,,,,,,,,,,,,
,0,j,1,0.4925,6,2,26,2,1,j,red,60fe1a9d554d192b202ed74d,2021-11-03_11h26.25.850,forced_choiceRT_color,2021.2.3,MacIntel,59.84082341,,,,,,,,,,,,,,,,,,,,,,,
,0,j,1,0.606,6,3,27,2,1,j,red,60fe1a9d554d192b202ed74d,2021-11-03_11h26.25.850,forced_choiceRT_color,2021.2.3,MacIntel,59.84082341,,,,,,,,,,,,,,,,,,,,,,,
,0,f,1,1.9055,7,0,28,1,1,f,blue,60fe1a9d554d192b202ed74d,2021-11-03_11h26.25.850,forced_choiceRT_color,2021.2.3,MacIntel,59.84082341,,,,,,,,,,,,,,,,,,,,,,,
,0,f,1,0.4872,7,1,29,1,1,f,blue,60fe1a9d554d192b202ed74d,2021-11-03_11h26.25.850,forced_choiceRT_color,2021.2.3,MacIntel,59.84082341,,,,,,,,,,,,,,,,,,,,,,,
,0,j,1,0.6737,7,2,30,2,1,j,red,60fe1a9d554d192b202ed74d,2021-11-03_11h26.25.850,forced_choiceRT_color,2021.2.3,MacIntel,59.84082341,,,,,,,,,,,,,,,,,,,,,,,
,0,k,1,0.5349,7,3,31,3,1,k,purple,60fe1a9d554d192b202ed74d,2021-11-03_11h26.25.850,forced_choiceRT_color,2021.2.3,MacIntel,59.84082341,,,,,,,,,,,,,,,,,,,,,,,
,0,k,1,0.503,8,0,32,3,1,k,purple,60fe1a9d554d192b202ed74d,2021-11-03_11h26.25.850,forced_choiceRT_color,2021.2.3,MacIntel,59.84082341,,,,,,,,,,,,,,,,,,,,,,,
,0,d,1,0.6696,8,1,33,0,1,d,orange,60fe1a9d554d192b202ed74d,2021-11-03_11h26.25.850,forced_choiceRT_color,2021.2.3,MacIntel,59.84082341,,,,,,,,,,,,,,,,,,,,,,,
,0,f,1,0.488,8,2,34,1,1,f,blue,60fe1a9d554d192b202ed74d,2021-11-03_11h26.25.850,forced_choiceRT_color,2021.2.3,MacIntel,59.84082341,,,,,,,,,,,,,,,,,,,,,,,
,0,k,1,0.6536,8,3,35,3,1,k,purple,60fe1a9d554d192b202ed74d,2021-11-03_11h26.25.850,forced_choiceRT_color,2021.2.3,MacIntel,59.84082341,,,,,,,,,,,,,,,,,,,,,,,
,0,k,1,0.6703,9,0,36,3,1,k,purple,60fe1a9d554d192b202ed74d,2021-11-03_11h26.25.850,forced_choiceRT_color,2021.2.3,MacIntel,59.84082341,,,,,,,,,,,,,,,,,,,,,,,
,0,f,1,1.4922,9,1,37,1,1,f,blue,60fe1a9d554d192b202ed74d,2021-11-03_11h26.25.850,forced_choiceRT_color,2021.2.3,MacIntel,59.84082341,,,,,,,,,,,,,,,,,,,,,,,
,0,f,1,0.5715,9,2,38,1,1,f,blue,60fe1a9d554d192b202ed74d,2021-11-03_11h26.25.850,forced_choiceRT_color,2021.2.3,MacIntel,59.84082341,,,,,,,,,,,,,,,,,,,,,,,
,0,j,1,0.8429,9,3,39,2,1,j,red,60fe1a9d554d192b202ed74d,2021-11-03_11h26.25.850,forced_choiceRT_color,2021.2.3,MacIntel,59.84082341,,,,,,,,,,,,,,,,,,,,,,,
,0,j,1,0.5511,10,0,40,2,1,j,red,60fe1a9d554d192b202ed74d,2021-11-03_11h26.25.850,forced_choiceRT_color,2021.2.3,MacIntel,59.84082341,,,,,,,,,,,,,,,,,,,,,,,
,0,d,1,0.6208,10,1,41,0,1,d,orange,60fe1a9d554d192b202ed74d,2021-11-03_11h26.25.850,forced_choiceRT_color,2021.2.3,MacIntel,59.84082341,,,,,,,,,,,,,,,,,,,,,,,
,0,k,1,0.7201,10,2,42,3,1,k,purple,60fe1a9d554d192b202ed74d,2021-11-03_11h26.25.850,forced_choiceRT_color,2021.2.3,MacIntel,59.84082341,,,,,,,,,,,,,,,,,,,,,,,
,0,d,1,0.7943,10,3,43,0,1,d,orange,60fe1a9d554d192b202ed74d,2021-11-03_11h26.25.850,forced_choiceRT_color,2021.2.3,MacIntel,59.84082341,,,,,,,,,,,,,,,,,,,,,,,
,0,f,1,0.7017,11,0,44,1,1,f,blue,60fe1a9d554d192b202ed74d,2021-11-03_11h26.25.850,forced_choiceRT_color,2021.2.3,MacIntel,59.84082341,,,,,,,,,,,,,,,,,,,,,,,
,0,f,0,0.5668,11,1,45,0,1,d,orange,60fe1a9d554d192b202ed74d,2021-11-03_11h26.25.850,forced_choiceRT_color,2021.2.3,MacIntel,59.84082341,,,,,,,,,,,,,,,,,,,,,,,
,0,f,1,1.6396,11,2,46,1,1,f,blue,60fe1a9d554d192b202ed74d,2021-11-03_11h26.25.850,forced_choiceRT_color,2021.2.3,MacIntel,59.84082341,,,,,,,,,,,,,,,,,,,,,,,
,0,k,1,0.595,11,3,47,3,1,k,purple,60fe1a9d554d192b202ed74d,2021-11-03_11h26.25.850,forced_choiceRT_color,2021.2.3,MacIntel,59.84082341,,,,,,,,,,,,,,,,,,,,,,,
,0,f,1,0.6254,12,0,48,1,1,f,blue,60fe1a9d554d192b202ed74d,2021-11-03_11h26.25.850,forced_choiceRT_color,2021.2.3,MacIntel,59.84082341,,,,,,,,,,,,,,,,,,,,,,,
,0,k,1,0.5687,12,1,49,3,1,k,purple,60fe1a9d554d192b202ed74d,2021-11-03_11h26.25.850,forced_choiceRT_color,2021.2.3,MacIntel,59.84082341,,,,,,,,,,,,,,,,,,,,,,,
,0,d,1,0.4423,12,2,50,0,1,d,orange,60fe1a9d554d192b202ed74d,2021-11-03_11h26.25.850,forced_choiceRT_color,2021.2.3,MacIntel,59.84082341,,,,,,,,,,,,,,,,,,,,,,,
,0,k,1,0.4689,12,3,51,3,1,k,purple,60fe1a9d554d192b202ed74d,2021-11-03_11h26.25.850,forced_choiceRT_color,2021.2.3,MacIntel,59.84082341,,,,,,,,,,,,,,,,,,,,,,,
,0,j,1,0.9555,13,0,52,2,1,j,red,60fe1a9d554d192b202ed74d,2021-11-03_11h26.25.850,forced_choiceRT_color,2021.2.3,MacIntel,59.84082341,,,,,,,,,,,,,,,,,,,,,,,
,0,k,1,0.6709,13,1,53,3,1,k,purple,60fe1a9d554d192b202ed74d,2021-11-03_11h26.25.850,forced_choiceRT_color,2021.2.3,MacIntel,59.84082341,,,,,,,,,,,,,,,,,,,,,,,
,0,k,1,0.4339,13,2,54,3,1,k,purple,60fe1a9d554d192b202ed74d,2021-11-03_11h26.25.850,forced_choiceRT_color,2021.2.3,MacIntel,59.84082341,,,,,,,,,,,,,,,,,,,,,,,
,0,d,1,0.6021,13,3,55,0,1,d,orange,60fe1a9d554d192b202ed74d,2021-11-03_11h26.25.850,forced_choiceRT_color,2021.2.3,MacIntel,59.84082341,,,,,,,,,,,,,,,,,,,,,,,
,0,f,1,0.4873,14,0,56,1,1,f,blue,60fe1a9d554d192b202ed74d,2021-11-03_11h26.25.850,forced_choiceRT_color,2021.2.3,MacIntel,59.84082341,,,,,,,,,,,,,,,,,,,,,,,
,0,d,1,0.554,14,1,57,0,1,d,orange,60fe1a9d554d192b202ed74d,2021-11-03_11h26.25.850,forced_choiceRT_color,2021.2.3,MacIntel,59.84082341,,,,,,,,,,,,,,,,,,,,,,,
,0,f,1,0.4229,14,2,58,1,1,f,blue,60fe1a9d554d192b202ed74d,2021-11-03_11h26.25.850,forced_choiceRT_color,2021.2.3,MacIntel,59.84082341,,,,,,,,,,,,,,,,,,,,,,,
,0,f,1,0.4861,14,3,59,1,1,f,blue,60fe1a9d554d192b202ed74d,2021-11-03_11h26.25.850,forced_choiceRT_color,2021.2.3,MacIntel,59.84082341,,,,,,,,,,,,,,,,,,,,,,,
,,,,,,,,,,,,60fe1a9d554d192b202ed74d,2021-11-03_11h26.25.850,forced_choiceRT_color,2021.2.3,MacIntel,59.84082341,f,4.3276,0,0,0,0,1,,,,,,,,,,,,,,,,
,,,,,,,,,,,,60fe1a9d554d192b202ed74d,2021-11-03_11h26.25.850,forced_choiceRT_color,2021.2.3,MacIntel,59.84082341,k,1.7969,1,0,1,0,1,,,,,,,,,,,,,,,,
,,,,,,,,,,,,60fe1a9d554d192b202ed74d,2021-11-03_11h26.25.850,forced_choiceRT_color,2021.2.3,MacIntel,59.84082341,k,2.292,2,0,2,0,1,,,,,,,,,,,,,,,,
,,,,,,,,,,,,60fe1a9d554d192b202ed74d,2021-11-03_11h26.25.850,forced_choiceRT_color,2021.2.3,MacIntel,59.84082341,k,1.8566,3,0,3,0,1,,,,,,,,,,,,,,,,
,,,,,,,,,,,,60fe1a9d554d192b202ed74d,2021-11-03_11h26.25.850,forced_choiceRT_color,2021.2.3,MacIntel,59.84082341,f,1.8161,4,0,4,0,1,,,,,,,,,,,,,,,,
,,,,,,,,,,,,60fe1a9d554d192b202ed74d,2021-11-03_11h26.25.850,forced_choiceRT_color,2021.2.3,MacIntel,59.84082341,f,2.2468,5,0,5,0,1,,,,,,,,,,,,,,,,
,,,,,,,,,,,,60fe1a9d554d192b202ed74d,2021-11-03_11h26.25.850,forced_choiceRT_color,2021.2.3,MacIntel,59.84082341,f,1.894,6,0,6,0,1,,,,,,,,,,,,,,,,
,,,,,,,,,,,,60fe1a9d554d192b202ed74d,2021-11-03_11h26.25.850,forced_choiceRT_color,2021.2.3,MacIntel,59.84082341,f,2.1894,7,0,7,0,1,,,,,,,,,,,,,,,,
,,,,,,,,,,,,60fe1a9d554d192b202ed74d,2021-11-03_11h26.25.850,forced_choiceRT_color,2021.2.3,MacIntel,59.84082341,f,2.0099,8,0,8,0,1,,,,,,,,,,,,,,,,
,,,,,,,,,,,,60fe1a9d554d192b202ed74d,2021-11-03_11h26.25.850,forced_choiceRT_color,2021.2.3,MacIntel,59.84082341,f,2.1907,9,0,9,0,1,,,,,,,,,,,,,,,,
,,,,,,,,,,,,60fe1a9d554d192b202ed74d,2021-11-03_11h26.25.850,forced_choiceRT_color,2021.2.3,MacIntel,59.84082341,k,1.9244,10,0,10,0,1,,,,,,,,,,,,,,,,
,,,,,,,,,,,,60fe1a9d554d192b202ed74d,2021-11-03_11h26.25.850,forced_choiceRT_color,2021.2.3,MacIntel,59.84082341,k,1.9558,11,0,11,0,1,,,,,,,,,,,,,,,,
,,,,,,,,,,,,60fe1a9d554d192b202ed74d,2021-11-03_11h26.25.850,forced_choiceRT_color,2021.2.3,MacIntel,59.84082341,k,2.0262,12,0,12,0,1,,,,,,,,,,,,,,,,
,,,,,,,,,,,,60fe1a9d554d192b202ed74d,2021-11-03_11h26.25.850,forced_choiceRT_color,2021.2.3,MacIntel,59.84082341,d,1.8235,13,0,13,0,1,,,,,,,,,,,,,,,,
,,,,,,,,,,,,60fe1a9d554d192b202ed74d,2021-11-03_11h26.25.850,forced_choiceRT_color,2021.2.3,MacIntel,59.84082341,d,1.9224,14,0,14,0,1,,,,,,,,,,,,,,,,
,,,,,,,,,,,,60fe1a9d554d192b202ed74d,2021-11-03_11h26.25.850,forced_choiceRT_color,2021.2.3,MacIntel,59.84082341,d,2.0053,15,0,15,0,1,,,,,,,,,,,,,,,,
,,,,,,,,,,,,60fe1a9d554d192b202ed74d,2021-11-03_11h26.25.850,forced_choiceRT_color,2021.2.3,MacIntel,59.84082341,d,2.0397,16,0,16,0,1,,,,,,,,,,,,,,,,
,,,,,,,,,,,,60fe1a9d554d192b202ed74d,2021-11-03_11h26.25.850,forced_choiceRT_color,2021.2.3,MacIntel,59.84082341,f,1.9877,17,0,17,0,1,,,,,,,,,,,,,,,,
,,,,,,,,,,,,60fe1a9d554d192b202ed74d,2021-11-03_11h26.25.850,forced_choiceRT_color,2021.2.3,MacIntel,59.84082341,j,1.893,18,0,18,0,1,,,,,,,,,,,,,,,,
,,,,,,,,,,,,60fe1a9d554d192b202ed74d,2021-11-03_11h26.25.850,forced_choiceRT_color,2021.2.3,MacIntel,59.84082341,k,2.0725,19,0,19,0,1,,,,,,,,,,,,,,,,
,1.14,,,,,,,,,k,purple,60fe1a9d554d192b202ed74d,2021-11-03_11h26.25.850,forced_choiceRT_color,2021.2.3,MacIntel,59.84082341,,,,,,,,1,Fast,long,j,0,1.7381,0,0,0,3,1,,,,,
,0.12,,,,,,,,,d,orange,60fe1a9d554d192b202ed74d,2021-11-03_11h26.25.850,forced_choiceRT_color,2021.2.3,MacIntel,59.84082341,,,,,,,,1,Fast,long,d,1,1.5743,0,1,1,0,1,,,,,
,0.9,,,,,,,,,f,blue,60fe1a9d554d192b202ed74d,2021-11-03_11h26.25.850,forced_choiceRT_color,2021.2.3,MacIntel,59.84082341,,,,,,,,1,Slow,long,f,1,2.1966,0,2,2,1,1,,,,,
,1.4,,,,,,,,,j,red,60fe1a9d554d192b202ed74d,2021-11-03_11h26.25.850,forced_choiceRT_color,2021.2.3,MacIntel,59.84082341,,,,,,,,1,Slow,long,d,0,3.0631,0,3,3,2,1,,,,,
,1.35,,,,,,,,,k,purple,60fe1a9d554d192b202ed74d,2021-11-03_11h26.25.850,forced_choiceRT_color,2021.2.3,MacIntel,59.84082341,,,,,,,,1,Slow,long,k,1,2.6281,1,0,4,3,1,,,,,
,0.82,,,,,,,,,f,blue,60fe1a9d554d192b202ed74d,2021-11-03_11h26.25.850,forced_choiceRT_color,2021.2.3,MacIntel,59.84082341,,,,,,,,1,Fast,long,d,0,1.8829,1,1,5,1,1,,,,,
,0.73,,,,,,,,,j,red,60fe1a9d554d192b202ed74d,2021-11-03_11h26.25.850,forced_choiceRT_color,2021.2.3,MacIntel,59.84082341,,,,,,,,1,Ontime,long,j,1,1.9276,1,2,6,2,1,,,,,
,1.53,,,,,,,,,f,blue,60fe1a9d554d192b202ed74d,2021-11-03_11h26.25.850,forced_choiceRT_color,2021.2.3,MacIntel,59.84082341,,,,,,,,1,Ontime,long,d,0,2.0487,1,3,7,1,1,,,,,
,1.33,,,,,,,,,f,blue,60fe1a9d554d192b202ed74d,2021-11-03_11h26.25.850,forced_choiceRT_color,2021.2.3,MacIntel,59.84082341,,,,,,,,1,Slow,long,d,0,2.1322,2,0,8,1,1,,,,,
,1.79,,,,,,,,,f,blue,60fe1a9d554d192b202ed74d,2021-11-03_11h26.25.850,forced_choiceRT_color,2021.2.3,MacIntel,59.84082341,,,,,,,,1,Slow,long,d,0,2.3793,2,1,9,1,1,,,,,
,0.54,,,,,,,,,k,purple,60fe1a9d554d192b202ed74d,2021-11-03_11h26.25.850,forced_choiceRT_color,2021.2.3,MacIntel,59.84082341,,,,,,,,1,Fast,long,k,1,1.7883,2,2,10,3,1,,,,,
,1.99,,,,,,,,,k,purple,60fe1a9d554d192b202ed74d,2021-11-03_11h26.25.850,forced_choiceRT_color,2021.2.3,MacIntel,59.84082341,,,,,,,,1,Slow,long,k,1,2.4991,2,3,11,3,1,,,,,
,1.2,,,,,,,,,d,orange,60fe1a9d554d192b202ed74d,2021-11-03_11h26.25.850,forced_choiceRT_color,2021.2.3,MacIntel,59.84082341,,,,,,,,1,Ontime,long,d,1,2.0607,3,0,12,0,1,,,,,
,1.25,,,,,,,,,d,orange,60fe1a9d554d192b202ed74d,2021-11-03_11h26.25.850,forced_choiceRT_color,2021.2.3,MacIntel,59.84082341,,,,,,,,1,Fast,long,d,1,1.827,3,1,13,0,1,,,,,
,0.67,,,,,,,,,d,orange,60fe1a9d554d192b202ed74d,2021-11-03_11h26.25.850,forced_choiceRT_color,2021.2.3,MacIntel,59.84082341,,,,,,,,1,Ontime,long,d,1,1.9194,3,2,14,0,1,,,,,
,0.79,,,,,,,,,j,red,60fe1a9d554d192b202ed74d,2021-11-03_11h26.25.850,forced_choiceRT_color,2021.2.3,MacIntel,59.84082341,,,,,,,,1,Fast,long,f,0,1.8639,3,3,15,2,1,,,,,
,1.52,,,,,,,,,j,red,60fe1a9d554d192b202ed74d,2021-11-03_11h26.25.850,forced_choiceRT_color,2021.2.3,MacIntel,59.84082341,,,,,,,,1,Slow,long,j,1,2.1119,4,0,16,2,1,,,,,
,1.8,,,,,,,,,d,orange,60fe1a9d554d192b202ed74d,2021-11-03_11h26.25.850,forced_choiceRT_color,2021.2.3,MacIntel,59.84082341,,,,,,,,1,Slow,long,f,0,2.2941,4,1,17,0,1,,,,,
,0.49,,,,,,,,,f,blue,60fe1a9d554d192b202ed74d,2021-11-03_11h26.25.850,forced_choiceRT_color,2021.2.3,MacIntel,59.84082341,,,,,,,,1,Ontime,long,f,1,1.9886,4,2,18,1,1,,,,,
,0.96,,,,,,,,,j,red,60fe1a9d554d192b202ed74d,2021-11-03_11h26.25.850,forced_choiceRT_color,2021.2.3,MacIntel,59.84082341,,,,,,,,1,Ontime,long,d,0,1.9828,4,3,19,2,1,,,,,
,1.6,,,,,,,,,k,purple,60fe1a9d554d192b202ed74d,2021-11-03_11h26.25.850,forced_choiceRT_color,2021.2.3,MacIntel,59.84082341,,,,,,,,1,Ontime,long,k,1,2.0918,5,0,20,3,1,,,,,
,0.74,,,,,,,,,d,orange,60fe1a9d554d192b202ed74d,2021-11-03_11h26.25.850,forced_choiceRT_color,2021.2.3,MacIntel,59.84082341,,,,,,,,1,Ontime,long,f,0,2.0886,5,1,21,0,1,,,,,
,1.38,,,,,,,,,j,red,60fe1a9d554d192b202ed74d,2021-11-03_11h26.25.850,forced_choiceRT_color,2021.2.3,MacIntel,59.84082341,,,,,,,,1,Slow,long,f,0,2.1242,5,2,22,2,1,,,,,
,1.97,,,,,,,,,f,blue,60fe1a9d554d192b202ed74d,2021-11-03_11h26.25.850,forced_choiceRT_color,2021.2.3,MacIntel,59.84082341,,,,,,,,1,Slow,long,k,0,2.3866,5,3,23,1,1,,,,,
,1.9,,,,,,,,,f,blue,60fe1a9d554d192b202ed74d,2021-11-03_11h26.25.850,forced_choiceRT_color,2021.2.3,MacIntel,59.84082341,,,,,,,,1,Slow,long,j,0,2.328,6,0,24,1,1,,,,,
,0.94,,,,,,,,,k,purple,60fe1a9d554d192b202ed74d,2021-11-03_11h26.25.850,forced_choiceRT_color,2021.2.3,MacIntel,59.84082341,,,,,,,,1,Fast,long,k,1,1.8389,6,1,25,3,1,,,,,
,1.07,,,,,,,,,d,orange,60fe1a9d554d192b202ed74d,2021-11-03_11h26.25.850,forced_choiceRT_color,2021.2.3,MacIntel,59.84082341,,,,,,,,1,Ontime,long,d,1,1.9432,6,2,26,0,1,,,,,
,1.21,,,,,,,,,k,purple,60fe1a9d554d192b202ed74d,2021-11-03_11h26.25.850,forced_choiceRT_color,2021.2.3,MacIntel,59.84082341,,,,,,,,1,Fast,long,k,1,1.8437,6,3,27,3,1,,,,,
,1.94,,,,,,,,,d,orange,60fe1a9d554d192b202ed74d,2021-11-03_11h26.25.850,forced_choiceRT_color,2021.2.3,MacIntel,59.84082341,,,,,,,,1,Slow,long,d,1,2.3977,7,0,28,0,1,,,,,
,0.25,,,,,,,,,f,blue,60fe1a9d554d192b202ed74d,2021-11-03_11h26.25.850,forced_choiceRT_color,2021.2.3,MacIntel,59.84082341,,,,,,,,1,Fast,long,j,0,1.8272,7,1,29,1,1,,,,,
,1.89,,,,,,,,,k,purple,60fe1a9d554d192b202ed74d,2021-11-03_11h26.25.850,forced_choiceRT_color,2021.2.3,MacIntel,59.84082341,,,,,,,,1,Slow,long,k,1,2.2902,7,2,30,3,1,,,,,
,0.68,,,,,,,,,d,orange,60fe1a9d554d192b202ed74d,2021-11-03_11h26.25.850,forced_choiceRT_color,2021.2.3,MacIntel,59.84082341,,,,,,,,1,Ontime,long,f,0,1.9109,7,3,31,0,1,,,,,
,0.11,,,,,,,,,d,orange,60fe1a9d554d192b202ed74d,2021-11-03_11h26.25.850,forced_choiceRT_color,2021.2.3,MacIntel,59.84082341,,,,,,,,1,Fast,long,d,1,1.6922,8,0,32,0,1,,,,,
,0.94,,,,,,,,,j,red,60fe1a9d554d192b202ed74d,2021-11-03_11h26.25.850,forced_choiceRT_color,2021.2.3,MacIntel,59.84082341,,,,,,,,1,Ontime,long,j,1,1.992,8,1,33,2,1,,,,,
,1.36,,,,,,,,,f,blue,60fe1a9d554d192b202ed74d,2021-11-03_11h26.25.850,forced_choiceRT_color,2021.2.3,MacIntel,59.84082341,,,,,,,,1,Ontime,long,d,0,1.9924,8,2,34,1,1,,,,,
,1.29,,,,,,,,,k,purple,60fe1a9d554d192b202ed74d,2021-11-03_11h26.25.850,forced_choiceRT_color,2021.2.3,MacIntel,59.84082341,,,,,,,,1,Fast,long,k,1,1.8936,8,3,35,3,1,,,,,
,1.71,,,,,,,,,k,purple,60fe1a9d554d192b202ed74d,2021-11-03_11h26.25.850,forced_choiceRT_color,2021.2.3,MacIntel,59.84082341,,,,,,,,1,Slow,long,k,1,2.1576,9,0,36,3,1,,,,,
,1.55,,,,,,,,,j,red,60fe1a9d554d192b202ed74d,2021-11-03_11h26.25.850,forced_choiceRT_color,2021.2.3,MacIntel,59.84082341,,,,,,,,1,Slow,long,d,0,2.1685,9,1,37,2,1,,,,,
,0.11,,,,,,,,,j,red,60fe1a9d554d192b202ed74d,2021-11-03_11h26.25.850,forced_choiceRT_color,2021.2.3,MacIntel,59.84082341,,,,,,,,1,Fast,long,j,1,1.8756,9,2,38,2,1,,,,,
,0.54,,,,,,,,,j,red,60fe1a9d554d192b202ed74d,2021-11-03_11h26.25.850,forced_choiceRT_color,2021.2.3,MacIntel,59.84082341,,,,,,,,1,Ontime,long,j,1,1.9058,9,3,39,2,1,,,,,
,,,,,,,,,,,,60fe1a9d554d192b202ed74d,2021-11-03_11h26.25.850,forced_choiceRT_color,2021.2.3,MacIntel,59.84082341,,,,,,,,,,,,,,,,,,,0,0,0,0,1
,0.27,,,,,,,,,d,orange,60fe1a9d554d192b202ed74d,2021-11-03_11h26.25.850,forced_choiceRT_color,2021.2.3,MacIntel,59.84082341,,,,,,,,2,Fast,long,d,1,1.7672,0,0,0,0,1,,,,,
,0.28,,,,,,,,,f,blue,60fe1a9d554d192b202ed74d,2021-11-03_11h26.25.850,forced_choiceRT_color,2021.2.3,MacIntel,59.84082341,,,,,,,,2,Fast,long,j,0,1.7591,0,1,1,1,1,,,,,
,0.49,,,,,,,,,k,purple,60fe1a9d554d192b202ed74d,2021-11-03_11h26.25.850,forced_choiceRT_color,2021.2.3,MacIntel,59.84082341,,,,,,,,2,Fast,long,k,1,1.8733,0,2,2,3,1,,,,,
,0.98,,,,,,,,,k,purple,60fe1a9d554d192b202ed74d,2021-11-03_11h26.25.850,forced_choiceRT_color,2021.2.3,MacIntel,59.84082341,,,,,,,,2,Fast,long,k,1,1.8897,0,3,3,3,1,,,,,
,1.73,,,,,,,,,k,purple,60fe1a9d554d192b202ed74d,2021-11-03_11h26.25.850,forced_choiceRT_color,2021.2.3,MacIntel,59.84082341,,,,,,,,2,Slow,long,k,1,2.1573,1,0,4,3,1,,,,,
,0.84,,,,,,,,,j,red,60fe1a9d554d192b202ed74d,2021-11-03_11h26.25.850,forced_choiceRT_color,2021.2.3,MacIntel,59.84082341,,,,,,,,2,Ontime,long,f,0,1.9938,1,1,5,2,1,,,,,
,1.87,,,,,,,,,f,blue,60fe1a9d554d192b202ed74d,2021-11-03_11h26.25.850,forced_choiceRT_color,2021.2.3,MacIntel,59.84082341,,,,,,,,2,Slow,long,j,0,2.3951,1,2,6,1,1,,,,,
,0.02,,,,,,,,,d,orange,60fe1a9d554d192b202ed74d,2021-11-03_11h26.25.850,forced_choiceRT_color,2021.2.3,MacIntel,59.84082341,,,,,,,,2,Fast,long,d,1,1.8724,1,3,7,0,1,,,,,
,0.35,,,,,,,,,d,orange,60fe1a9d554d192b202ed74d,2021-11-03_11h26.25.850,forced_choiceRT_color,2021.2.3,MacIntel,59.84082341,,,,,,,,2,Ontime,long,d,1,1.9562,2,0,8,0,1,,,,,
,0.22,,,,,,,,,d,orange,60fe1a9d554d192b202ed74d,2021-11-03_11h26.25.850,forced_choiceRT_color,2021.2.3,MacIntel,59.84082341,,,,,,,,2,Fast,long,d,1,1.8125,2,1,9,0,1,,,,,
,1.82,,,,,,,,,d,orange,60fe1a9d554d192b202ed74d,2021-11-03_11h26.25.850,forced_choiceRT_color,2021.2.3,MacIntel,59.84082341,,,,,,,,2,Slow,long,d,1,2.2291,2,2,10,0,1,,,,,
,0.19,,,,,,,,,j,red,60fe1a9d554d192b202ed74d,2021-11-03_11h26.25.850,forced_choiceRT_color,2021.2.3,MacIntel,59.84082341,,,,,,,,2,Ontime,long,j,1,2.0406,2,3,11,2,1,,,,,
,1.4,,,,,,,,,f,blue,60fe1a9d554d192b202ed74d,2021-11-03_11h26.25.850,forced_choiceRT_color,2021.2.3,MacIntel,59.84082341,,,,,,,,2,Ontime,long,d,0,2.0261,3,0,12,1,1,,,,,
,1.85,,,,,,,,,f,blue,60fe1a9d554d192b202ed74d,2021-11-03_11h26.25.850,forced_choiceRT_color,2021.2.3,MacIntel,59.84082341,,,,,,,,2,Slow,long,d,0,2.2257,3,1,13,1,1,,,,,
,0.88,,,,,,,,,k,purple,60fe1a9d554d192b202ed74d,2021-11-03_11h26.25.850,forced_choiceRT_color,2021.2.3,MacIntel,59.84082341,,,,,,,,2,Ontime,long,k,1,2.0574,3,2,14,3,1,,,,,
,0.6,,,,,,,,,j,red,60fe1a9d554d192b202ed74d,2021-11-03_11h26.25.850,forced_choiceRT_color,2021.2.3,MacIntel,59.84082341,,,,,,,,2,Ontime,long,j,1,2.0483,3,3,15,2,1,,,,,
,0.35,,,,,,,,,d,orange,60fe1a9d554d192b202ed74d,2021-11-03_11h26.25.850,forced_choiceRT_color,2021.2.3,MacIntel,59.84082341,,,,,,,,2,Ontime,long,d,1,2.0145,4,0,16,0,1,,,,,
,0.57,,,,,,,,,f,blue,60fe1a9d554d192b202ed74d,2021-11-03_11h26.25.850,forced_choiceRT_color,2021.2.3,MacIntel,59.84082341,,,,,,,,2,Ontime,long,f,1,2.0726,4,1,17,1,1,,,,,
,0.2,,,,,,,,,j,red,60fe1a9d554d192b202ed74d,2021-11-03_11h26.25.850,forced_choiceRT_color,2021.2.3,MacIntel,59.84082341,,,,,,,,2,Ontime,long,j,1,2.0472,4,2,18,2,1,,,,,
,1.28,,,,,,,,,f,blue,60fe1a9d554d192b202ed74d,2021-11-03_11h26.25.850,forced_choiceRT_color,2021.2.3,MacIntel,59.84082341,,,,,,,,2,Slow,long,f,1,2.1524,4,3,19,1,1,,,,,
,0.35,,,,,,,,,f,blue,60fe1a9d554d192b202ed74d,2021-11-03_11h26.25.850,forced_choiceRT_color,2021.2.3,MacIntel,59.84082341,,,,,,,,2,Ontime,long,f,1,1.9803,5,0,20,1,1,,,,,
,0.59,,,,,,,,,f,blue,60fe1a9d554d192b202ed74d,2021-11-03_11h26.25.850,forced_choiceRT_color,2021.2.3,MacIntel,59.84082341,,,,,,,,2,Ontime,long,f,1,2.0797,5,1,21,1,1,,,,,
,1.71,,,,,,,,,j,red,60fe1a9d554d192b202ed74d,2021-11-03_11h26.25.850,forced_choiceRT_color,2021.2.3,MacIntel,59.84082341,,,,,,,,2,Slow,long,f,0,2.2905,5,2,22,2,1,,,,,
,1.23,,,,,,,,,f,blue,60fe1a9d554d192b202ed74d,2021-11-03_11h26.25.850,forced_choiceRT_color,2021.2.3,MacIntel,59.84082341,,,,,,,,2,Ontime,long,d,0,2.0947,5,3,23,1,1,,,,,
,0.82,,,,,,,,,k,purple,60fe1a9d554d192b202ed74d,2021-11-03_11h26.25.850,forced_choiceRT_color,2021.2.3,MacIntel,59.84082341,,,,,,,,2,Ontime,long,k,1,1.9762,6,0,24,3,1,,,,,
,1.08,,,,,,,,,d,orange,60fe1a9d554d192b202ed74d,2021-11-03_11h26.25.850,forced_choiceRT_color,2021.2.3,MacIntel,59.84082341,,,,,,,,2,Ontime,long,d,1,2.0433,6,1,25,0,1,,,,,
,0.29,,,,,,,,,j,red,60fe1a9d554d192b202ed74d,2021-11-03_11h26.25.850,forced_choiceRT_color,2021.2.3,MacIntel,59.84082341,,,,,,,,2,Ontime,long,j,1,1.9553,6,2,26,2,1,,,,,
,0.28,,,,,,,,,j,red,60fe1a9d554d192b202ed74d,2021-11-03_11h26.25.850,forced_choiceRT_color,2021.2.3,MacIntel,59.84082341,,,,,,,,2,Ontime,long,j,1,1.9215,6,3,27,2,1,,,,,
,1.99,,,,,,,,,k,purple,60fe1a9d554d192b202ed74d,2021-11-03_11h26.25.850,forced_choiceRT_color,2021.2.3,MacIntel,59.84082341,,,,,,,,2,Slow,long,k,1,2.3583,7,0,28,3,1,,,,,
,0.7,,,,,,,,,d,orange,60fe1a9d554d192b202ed74d,2021-11-03_11h26.25.850,forced_choiceRT_color,2021.2.3,MacIntel,59.84082341,,,,,,,,2,Ontime,long,d,1,1.9301,7,1,29,0,1,,,,,
,1.49,,,,,,,,,d,orange,60fe1a9d554d192b202ed74d,2021-11-03_11h26.25.850,forced_choiceRT_color,2021.2.3,MacIntel,59.84082341,,,,,,,,2,Ontime,long,f,0,1.9559,7,2,30,0,1,,,,,
,1.59,,,,,,,,,k,purple,60fe1a9d554d192b202ed74d,2021-11-03_11h26.25.850,forced_choiceRT_color,2021.2.3,MacIntel,59.84082341,,,,,,,,2,Ontime,long,k,1,2.0602,7,3,31,3,1,,,,,
,0.58,,,,,,,,,f,blue,60fe1a9d554d192b202ed74d,2021-11-03_11h26.25.850,forced_choiceRT_color,2021.2.3,MacIntel,59.84082341,,,,,,,,2,Fast,long,f,1,1.793,8,0,32,1,1,,,,,
,1.53,,,,,,,,,k,purple,60fe1a9d554d192b202ed74d,2021-11-03_11h26.25.850,forced_choiceRT_color,2021.2.3,MacIntel,59.84082341,,,,,,,,2,Fast,long,k,1,1.8636,8,1,33,3,1,,,,,
,0.75,,,,,,,,,j,red,60fe1a9d554d192b202ed74d,2021-11-03_11h26.25.850,forced_choiceRT_color,2021.2.3,MacIntel,59.84082341,,,,,,,,2,Ontime,long,j,1,1.9242,8,2,34,2,1,,,,,
,0.88,,,,,,,,,d,orange,60fe1a9d554d192b202ed74d,2021-11-03_11h26.25.850,forced_choiceRT_color,2021.2.3,MacIntel,59.84082341,,,,,,,,2,Ontime,long,d,1,1.94,8,3,35,0,1,,,,,
,0.12,,,,,,,,,j,red,60fe1a9d554d192b202ed74d,2021-11-03_11h26.25.850,forced_choiceRT_color,2021.2.3,MacIntel,59.84082341,,,,,,,,2,Ontime,long,j,1,2.0241,9,0,36,2,1,,,,,
,0.95,,,,,,,,,j,red,60fe1a9d554d192b202ed74d,2021-11-03_11h26.25.850,forced_choiceRT_color,2021.2.3,MacIntel,59.84082341,,,,,,,,2,Slow,long,j,1,2.1115,9,1,37,2,1,,,,,
,0.55,,,,,,,,,k,purple,60fe1a9d554d192b202ed74d,2021-11-03_11h26.25.850,forced_choiceRT_color,2021.2.3,MacIntel,59.84082341,,,,,,,,2,Ontime,long,k,1,2.0434,9,2,38,3,1,,,,,
,0.02,,,,,,,,,k,purple,60fe1a9d554d192b202ed74d,2021-11-03_11h26.25.850,forced_choiceRT_color,2021.2.3,MacIntel,59.84082341,,,,,,,,2,Ontime,long,k,1,1.9606,9,3,39,3,1,,,,,
,,,,,,,,,,,,60fe1a9d554d192b202ed74d,2021-11-03_11h26.25.850,forced_choiceRT_color,2021.2.3,MacIntel,59.84082341,,,,,,,,,,,,,,,,,,,1,0,1,0,1
,1.37,,,,,,,,,f,blue,60fe1a9d554d192b202ed74d,2021-11-03_11h26.25.850,forced_choiceRT_color,2021.2.3,MacIntel,59.84082341,,,,,,,,3,Slow,long,d,0,2.1002,0,0,0,1,1,,,,,
,0.3,,,,,,,,,f,blue,60fe1a9d554d192b202ed74d,2021-11-03_11h26.25.850,forced_choiceRT_color,2021.2.3,MacIntel,59.84082341,,,,,,,,3,Fast,long,f,1,1.7555,0,1,1,1,1,,,,,
,0.12,,,,,,,,,j,red,60fe1a9d554d192b202ed74d,2021-11-03_11h26.25.850,forced_choiceRT_color,2021.2.3,MacIntel,59.84082341,,,,,,,,3,Fast,long,j,1,1.823,0,2,2,2,1,,,,,
,1.07,,,,,,,,,j,red,60fe1a9d554d192b202ed74d,2021-11-03_11h26.25.850,forced_choiceRT_color,2021.2.3,MacIntel,59.84082341,,,,,,,,3,Ontime,long,j,1,2.0962,0,3,3,2,1,,,,,
,0.6,,,,,,,,,k,purple,60fe1a9d554d192b202ed74d,2021-11-03_11h26.25.850,forced_choiceRT_color,2021.2.3,MacIntel,59.84082341,,,,,,,,3,Ontime,long,k,1,2.0913,1,0,4,3,1,,,,,
,0.47,,,,,,,,,f,blue,60fe1a9d554d192b202ed74d,2021-11-03_11h26.25.850,forced_choiceRT_color,2021.2.3,MacIntel,59.84082341,,,,,,,,3,Ontime,long,f,1,2.0591,1,1,5,1,1,,,,,
,0.11,,,,,,,,,f,blue,60fe1a9d554d192b202ed74d,2021-11-03_11h26.25.850,forced_choiceRT_color,2021.2.3,MacIntel,59.84082341,,,,,,,,3,Ontime,long,f,1,2.0446,1,2,6,1,1,,,,,
,0.54,,,,,,,,,j,red,60fe1a9d554d192b202ed74d,2021-11-03_11h26.25.850,forced_choiceRT_color,2021.2.3,MacIntel,59.84082341,,,,,,,,3,Ontime,long,j,1,2.0735,1,3,7,2,1,,,,,
,1.96,,,,,,,,,k,purple,60fe1a9d554d192b202ed74d,2021-11-03_11h26.25.850,forced_choiceRT_color,2021.2.3,MacIntel,59.84082341,,,,,,,,3,Slow,long,k,1,2.2097,2,0,8,3,1,,,,,
,1.86,,,,,,,,,d,orange,60fe1a9d554d192b202ed74d,2021-11-03_11h26.25.850,forced_choiceRT_color,2021.2.3,MacIntel,59.84082341,,,,,,,,3,Ontime,long,d,1,1.9967,2,1,9,0,1,,,,,
,0.26,,,,,,,,,f,blue,60fe1a9d554d192b202ed74d,2021-11-03_11h26.25.850,forced_choiceRT_color,2021.2.3,MacIntel,59.84082341,,,,,,,,3,Ontime,long,f,1,2.0163,2,2,10,1,1,,,,,
,0.99,,,,,,,,,j,red,60fe1a9d554d192b202ed74d,2021-11-03_11h26.25.850,forced_choiceRT_color,2021.2.3,MacIntel,59.84082341,,,,,,,,3,Ontime,long,j,1,2.0054,2,3,11,2,1,,,,,
,0.55,,,,,,,,,k,purple,60fe1a9d554d192b202ed74d,2021-11-03_11h26.25.850,forced_choiceRT_color,2021.2.3,MacIntel,59.84082341,,,,,,,,3,Ontime,long,k,1,1.9235,3,0,12,3,1,,,,,
,0.3,,,,,,,,,k,purple,60fe1a9d554d192b202ed74d,2021-11-03_11h26.25.850,forced_choiceRT_color,2021.2.3,MacIntel,59.84082341,,,,,,,,3,Ontime,long,k,1,1.972,3,1,13,3,1,,,,,
,0.93,,,,,,,,,d,orange,60fe1a9d554d192b202ed74d,2021-11-03_11h26.25.850,forced_choiceRT_color,2021.2.3,MacIntel,59.84082341,,,,,,,,3,Ontime,long,d,1,2.0278,3,2,14,0,1,,,,,
,1.4,,,,,,,,,f,blue,60fe1a9d554d192b202ed74d,2021-11-03_11h26.25.850,forced_choiceRT_color,2021.2.3,MacIntel,59.84082341,,,,,,,,3,Slow,long,f,1,2.2964,3,3,15,1,1,,,,,
,1.63,,,,,,,,,k,purple,60fe1a9d554d192b202ed74d,2021-11-03_11h26.25.850,forced_choiceRT_color,2021.2.3,MacIntel,59.84082341,,,,,,,,3,Ontime,long,k,1,1.9123,4,0,16,3,1,,,,,
,1.57,,,,,,,,,d,orange,60fe1a9d554d192b202ed74d,2021-11-03_11h26.25.850,forced_choiceRT_color,2021.2.3,MacIntel,59.84082341,,,,,,,,3,Ontime,long,d,1,1.9722,4,1,17,0,1,,,,,
,1.29,,,,,,,,,j,red,60fe1a9d554d192b202ed74d,2021-11-03_11h26.25.850,forced_choiceRT_color,2021.2.3,MacIntel,59.84082341,,,,,,,,3,Ontime,long,j,1,2.0742,4,2,18,2,1,,,,,
,1.72,,,,,,,,,j,red,60fe1a9d554d192b202ed74d,2021-11-03_11h26.25.850,forced_choiceRT_color,2021.2.3,MacIntel,59.84082341,,,,,,,,3,Ontime,long,k,0,1.9427,4,3,19,2,1,,,,,
,0.03,,,,,,,,,d,orange,60fe1a9d554d192b202ed74d,2021-11-03_11h26.25.850,forced_choiceRT_color,2021.2.3,MacIntel,59.84082341,,,,,,,,3,Fast,long,d,1,1.8407,5,0,20,0,1,,,,,
,0.67,,,,,,,,,j,red,60fe1a9d554d192b202ed74d,2021-11-03_11h26.25.850,forced_choiceRT_color,2021.2.3,MacIntel,59.84082341,,,,,,,,3,Ontime,long,j,1,2.0488,5,1,21,2,1,,,,,
,1.69,,,,,,,,,j,red,60fe1a9d554d192b202ed74d,2021-11-03_11h26.25.850,forced_choiceRT_color,2021.2.3,MacIntel,59.84082341,,,,,,,,3,Ontime,long,k,0,1.9693,5,2,22,2,1,,,,,
,1.82,,,,,,,,,j,red,60fe1a9d554d192b202ed74d,2021-11-03_11h26.25.850,forced_choiceRT_color,2021.2.3,MacIntel,59.84082341,,,,,,,,3,Ontime,long,f,0,2.0069,5,3,23,2,1,,,,,
,1.55,,,,,,,,,f,blue,60fe1a9d554d192b202ed74d,2021-11-03_11h26.25.850,forced_choiceRT_color,2021.2.3,MacIntel,59.84082341,,,,,,,,3,Fast,long,f,1,1.8901,6,0,24,1,1,,,,,
,1.1,,,,,,,,,d,orange,60fe1a9d554d192b202ed74d,2021-11-03_11h26.25.850,forced_choiceRT_color,2021.2.3,MacIntel,59.84082341,,,,,,,,3,Ontime,long,d,1,1.9849,6,1,25,0,1,,,,,
,1.18,,,,,,,,,k,purple,60fe1a9d554d192b202ed74d,2021-11-03_11h26.25.850,forced_choiceRT_color,2021.2.3,MacIntel,59.84082341,,,,,,,,3,Ontime,long,k,1,2.0142,6,2,26,3,1,,,,,
,1.94,,,,,,,,,f,blue,60fe1a9d554d192b202ed74d,2021-11-03_11h26.25.850,forced_choiceRT_color,2021.2.3,MacIntel,59.84082341,,,,,,,,3,Ontime,long,k,0,1.9792,6,3,27,1,1,,,,,
,0.18,,,,,,,,,k,purple,60fe1a9d554d192b202ed74d,2021-11-03_11h26.25.850,forced_choiceRT_color,2021.2.3,MacIntel,59.84082341,,,,,,,,3,Ontime,long,k,1,1.9939,7,0,28,3,1,,,,,
,1.57,,,,,,,,,d,orange,60fe1a9d554d192b202ed74d,2021-11-03_11h26.25.850,forced_choiceRT_color,2021.2.3,MacIntel,59.84082341,,,,,,,,3,Ontime,long,d,1,1.9551,7,1,29,0,1,,,,,
,0.76,,,,,,,,,j,red,60fe1a9d554d192b202ed74d,2021-11-03_11h26.25.850,forced_choiceRT_color,2021.2.3,MacIntel,59.84082341,,,,,,,,3,Ontime,long,j,1,2.0944,7,2,30,2,1,,,,,
,1.01,,,,,,,,,d,orange,60fe1a9d554d192b202ed74d,2021-11-03_11h26.25.850,forced_choiceRT_color,2021.2.3,MacIntel,59.84082341,,,,,,,,3,Slow,long,d,1,2.1324,7,3,31,0,1,,,,,
,0.41,,,,,,,,,d,orange,60fe1a9d554d192b202ed74d,2021-11-03_11h26.25.850,forced_choiceRT_color,2021.2.3,MacIntel,59.84082341,,,,,,,,3,Ontime,long,d,1,2.0736,8,0,32,0,1,,,,,
,1.24,,,,,,,,,f,blue,60fe1a9d554d192b202ed74d,2021-11-03_11h26.25.850,forced_choiceRT_color,2021.2.3,MacIntel,59.84082341,,,,,,,,3,Ontime,long,j,0,2.0597,8,1,33,1,1,,,,,
,1.71,,,,,,,,,k,purple,60fe1a9d554d192b202ed74d,2021-11-03_11h26.25.850,forced_choiceRT_color,2021.2.3,MacIntel,59.84082341,,,,,,,,3,Ontime,long,f,0,1.9844,8,2,34,3,1,,,,,
,1.02,,,,,,,,,d,orange,60fe1a9d554d192b202ed74d,2021-11-03_11h26.25.850,forced_choiceRT_color,2021.2.3,MacIntel,59.84082341,,,,,,,,3,Ontime,long,d,1,1.9454,8,3,35,0,1,,,,,
,1.56,,,,,,,,,f,blue,60fe1a9d554d192b202ed74d,2021-11-03_11h26.25.850,forced_choiceRT_color,2021.2.3,MacIntel,59.84082341,,,,,,,,3,Ontime,long,k,0,2.0811,9,0,36,1,1,,,,,
,0.52,,,,,,,,,k,purple,60fe1a9d554d192b202ed74d,2021-11-03_11h26.25.850,forced_choiceRT_color,2021.2.3,MacIntel,59.84082341,,,,,,,,3,Ontime,long,k,1,2.0406,9,1,37,3,1,,,,,
,0.78,,,,,,,,,d,orange,60fe1a9d554d192b202ed74d,2021-11-03_11h26.25.850,forced_choiceRT_color,2021.2.3,MacIntel,59.84082341,,,,,,,,3,Ontime,long,d,1,2.0137,9,2,38,0,1,,,,,
,0.6,,,,,,,,,k,purple,60fe1a9d554d192b202ed74d,2021-11-03_11h26.25.850,forced_choiceRT_color,2021.2.3,MacIntel,59.84082341,,,,,,,,3,Ontime,long,k,1,2.0735,9,3,39,3,1,,,,,
,,,,,,,,,,,,60fe1a9d554d192b202ed74d,2021-11-03_11h26.25.850,forced_choiceRT_color,2021.2.3,MacIntel,59.84082341,,,,,,,,,,,,,,,,,,,2,0,2,0,1
,1.41,,,,,,,,,j,red,60fe1a9d554d192b202ed74d,2021-11-03_11h26.25.850,forced_choiceRT_color,2021.2.3,MacIntel,59.84082341,,,,,,,,4,Ontime,long,f,0,2.0886,0,0,0,2,1,,,,,
,1.16,,,,,,,,,k,purple,60fe1a9d554d192b202ed74d,2021-11-03_11h26.25.850,forced_choiceRT_color,2021.2.3,MacIntel,59.84082341,,,,,,,,4,Ontime,long,k,1,1.9968,0,1,1,3,1,,,,,
,1.14,,,,,,,,,k,purple,60fe1a9d554d192b202ed74d,2021-11-03_11h26.25.850,forced_choiceRT_color,2021.2.3,MacIntel,59.84082341,,,,,,,,4,Fast,long,k,1,1.8631,0,2,2,3,1,,,,,
,0.1,,,,,,,,,f,blue,60fe1a9d554d192b202ed74d,2021-11-03_11h26.25.850,forced_choiceRT_color,2021.2.3,MacIntel,59.84082341,,,,,,,,4,Fast,long,f,1,1.7726,0,3,3,1,1,,,,,
,1.55,,,,,,,,,d,orange,60fe1a9d554d192b202ed74d,2021-11-03_11h26.25.850,forced_choiceRT_color,2021.2.3,MacIntel,59.84082341,,,,,,,,4,Slow,long,d,1,2.179,1,0,4,0,1,,,,,
,0.93,,,,,,,,,d,orange,60fe1a9d554d192b202ed74d,2021-11-03_11h26.25.850,forced_choiceRT_color,2021.2.3,MacIntel,59.84082341,,,,,,,,4,Ontime,long,d,1,2.0887,1,1,5,0,1,,,,,
,1.6,,,,,,,,,d,orange,60fe1a9d554d192b202ed74d,2021-11-03_11h26.25.850,forced_choiceRT_color,2021.2.3,MacIntel,59.84082341,,,,,,,,4,Ontime,long,f,0,2.0728,1,2,6,0,1,,,,,
,0.25,,,,,,,,,f,blue,60fe1a9d554d192b202ed74d,2021-11-03_11h26.25.850,forced_choiceRT_color,2021.2.3,MacIntel,59.84082341,,,,,,,,4,Ontime,long,f,1,1.9606,1,3,7,1,1,,,,,
,0.39,,,,,,,,,j,red,60fe1a9d554d192b202ed74d,2021-11-03_11h26.25.850,forced_choiceRT_color,2021.2.3,MacIntel,59.84082341,,,,,,,,4,Ontime,long,j,1,2.0602,2,0,8,2,1,,,,,
,0.66,,,,,,,,,j,red,60fe1a9d554d192b202ed74d,2021-11-03_11h26.25.850,forced_choiceRT_color,2021.2.3,MacIntel,59.84082341,,,,,,,,4,Ontime,long,j,1,2.096,2,1,9,2,1,,,,,
,0.42,,,,,,,,,d,orange,60fe1a9d554d192b202ed74d,2021-11-03_11h26.25.850,forced_choiceRT_color,2021.2.3,MacIntel,59.84082341,,,,,,,,4,Ontime,long,d,1,1.956,2,2,10,0,1,,,,,
,1.2,,,,,,,,,k,purple,60fe1a9d554d192b202ed74d,2021-11-03_11h26.25.850,forced_choiceRT_color,2021.2.3,MacIntel,59.84082341,,,,,,,,4,Ontime,long,k,1,1.974,2,3,11,3,1,,,,,
,1.29,,,,,,,,,j,red,60fe1a9d554d192b202ed74d,2021-11-03_11h26.25.850,forced_choiceRT_color,2021.2.3,MacIntel,59.84082341,,,,,,,,4,Ontime,long,j,1,2.0232,3,0,12,2,1,,,,,
,1.21,,,,,,,,,f,blue,60fe1a9d554d192b202ed74d,2021-11-03_11h26.25.850,forced_choiceRT_color,2021.2.3,MacIntel,59.84082341,,,,,,,,4,Ontime,long,f,1,2.0018,3,1,13,1,1,,,,,
,0.23,,,,,,,,,f,blue,60fe1a9d554d192b202ed74d,2021-11-03_11h26.25.850,forced_choiceRT_color,2021.2.3,MacIntel,59.84082341,,,,,,,,4,Ontime,long,f,1,1.9004,3,2,14,1,1,,,,,
,0.09,,,,,,,,,f,blue,60fe1a9d554d192b202ed74d,2021-11-03_11h26.25.850,forced_choiceRT_color,2021.2.3,MacIntel,59.84082341,,,,,,,,4,Ontime,long,f,1,2.073,3,3,15,1,1,,,,,
,0.34,,,,,,,,,j,red,60fe1a9d554d192b202ed74d,2021-11-03_11h26.25.850,forced_choiceRT_color,2021.2.3,MacIntel,59.84082341,,,,,,,,4,Ontime,long,j,1,2.0768,4,0,16,2,1,,,,,
,1.02,,,,,,,,,f,blue,60fe1a9d554d192b202ed74d,2021-11-03_11h26.25.850,forced_choiceRT_color,2021.2.3,MacIntel,59.84082341,,,,,,,,4,Ontime,long,f,1,2.1,4,1,17,1,1,,,,,
,1.23,,,,,,,,,k,purple,60fe1a9d554d192b202ed74d,2021-11-03_11h26.25.850,forced_choiceRT_color,2021.2.3,MacIntel,59.84082341,,,,,,,,4,Ontime,long,k,1,2.0349,4,2,18,3,1,,,,,
,0.94,,,,,,,,,j,red,60fe1a9d554d192b202ed74d,2021-11-03_11h26.25.850,forced_choiceRT_color,2021.2.3,MacIntel,59.84082341,,,,,,,,4,Ontime,long,j,1,2.0661,4,3,19,2,1,,,,,
,0.36,,,,,,,,,d,orange,60fe1a9d554d192b202ed74d,2021-11-03_11h26.25.850,forced_choiceRT_color,2021.2.3,MacIntel,59.84082341,,,,,,,,4,Ontime,long,d,1,2.0406,5,0,20,0,1,,,,,
,1.73,,,,,,,,,d,orange,60fe1a9d554d192b202ed74d,2021-11-03_11h26.25.850,forced_choiceRT_color,2021.2.3,MacIntel,59.84082341,,,,,,,,4,Slow,long,f,0,2.3504,5,1,21,0,1,,,,,
,0.42,,,,,,,,,k,purple,60fe1a9d554d192b202ed74d,2021-11-03_11h26.25.850,forced_choiceRT_color,2021.2.3,MacIntel,59.84082341,,,,,,,,4,Ontime,long,k,1,2.0571,5,2,22,3,1,,,,,
,0.08,,,,,,,,,k,purple,60fe1a9d554d192b202ed74d,2021-11-03_11h26.25.850,forced_choiceRT_color,2021.2.3,MacIntel,59.84082341,,,,,,,,4,Ontime,long,k,1,2.0085,5,3,23,3,1,,,,,
,1.04,,,,,,,,,k,purple,60fe1a9d554d192b202ed74d,2021-11-03_11h26.25.850,forced_choiceRT_color,2021.2.3,MacIntel,59.84082341,,,,,,,,4,Ontime,long,k,1,2.0504,6,0,24,3,1,,,,,
,0.85,,,,,,,,,j,red,60fe1a9d554d192b202ed74d,2021-11-03_11h26.25.850,forced_choiceRT_color,2021.2.3,MacIntel,59.84082341,,,,,,,,4,Slow,long,j,1,2.1155,6,1,25,2,1,,,,,
,1.83,,,,,,,,,d,orange,60fe1a9d554d192b202ed74d,2021-11-03_11h26.25.850,forced_choiceRT_color,2021.2.3,MacIntel,59.84082341,,,,,,,,4,Ontime,long,d,1,2.059,6,2,26,0,1,,,,,
,1.38,,,,,,,,,k,purple,60fe1a9d554d192b202ed74d,2021-11-03_11h26.25.850,forced_choiceRT_color,2021.2.3,MacIntel,59.84082341,,,,,,,,4,Ontime,long,k,1,2.0064,6,3,27,3,1,,,,,
,0.9,,,,,,,,,f,blue,60fe1a9d554d192b202ed74d,2021-11-03_11h26.25.850,forced_choiceRT_color,2021.2.3,MacIntel,59.84082341,,,,,,,,4,Fast,long,f,1,1.889,7,0,28,1,1,,,,,
,0.92,,,,,,,,,d,orange,60fe1a9d554d192b202ed74d,2021-11-03_11h26.25.850,forced_choiceRT_color,2021.2.3,MacIntel,59.84082341,,,,,,,,4,Ontime,long,d,1,1.9226,7,1,29,0,1,,,,,
,0.05,,,,,,,,,j,red,60fe1a9d554d192b202ed74d,2021-11-03_11h26.25.850,forced_choiceRT_color,2021.2.3,MacIntel,59.84082341,,,,,,,,4,Ontime,long,j,1,2.011,7,2,30,2,1,,,,,
,0.34,,,,,,,,,d,orange,60fe1a9d554d192b202ed74d,2021-11-03_11h26.25.850,forced_choiceRT_color,2021.2.3,MacIntel,59.84082341,,,,,,,,4,Ontime,long,d,1,1.9939,7,3,31,0,1,,,,,
,0.66,,,,,,,,,j,red,60fe1a9d554d192b202ed74d,2021-11-03_11h26.25.850,forced_choiceRT_color,2021.2.3,MacIntel,59.84082341,,,,,,,,4,Ontime,long,j,1,2.0219,8,0,32,2,1,,,,,
,1.28,,,,,,,,,j,red,60fe1a9d554d192b202ed74d,2021-11-03_11h26.25.850,forced_choiceRT_color,2021.2.3,MacIntel,59.84082341,,,,,,,,4,Slow,long,j,1,2.1234,8,1,33,2,1,,,,,
,1.35,,,,,,,,,f,blue,60fe1a9d554d192b202ed74d,2021-11-03_11h26.25.850,forced_choiceRT_color,2021.2.3,MacIntel,59.84082341,,,,,,,,4,Ontime,long,f,1,1.9293,8,2,34,1,1,,,,,
,0.67,,,,,,,,,f,blue,60fe1a9d554d192b202ed74d,2021-11-03_11h26.25.850,forced_choiceRT_color,2021.2.3,MacIntel,59.84082341,,,,,,,,4,Fast,long,f,1,1.8717,8,3,35,1,1,,,,,
,0.14,,,,,,,,,k,purple,60fe1a9d554d192b202ed74d,2021-11-03_11h26.25.850,forced_choiceRT_color,2021.2.3,MacIntel,59.84082341,,,,,,,,4,Ontime,long,k,1,1.9564,9,0,36,3,1,,,,,
,1.76,,,,,,,,,f,blue,60fe1a9d554d192b202ed74d,2021-11-03_11h26.25.850,forced_choiceRT_color,2021.2.3,MacIntel,59.84082341,,,,,,,,4,Ontime,long,k,0,2.0926,9,1,37,1,1,,,,,
,1.89,,,,,,,,,k,purple,60fe1a9d554d192b202ed74d,2021-11-03_11h26.25.850,forced_choiceRT_color,2021.2.3,MacIntel,59.84082341,,,,,,,,4,Slow,long,j,0,2.1494,9,2,38,3,1,,,,,
,1.5,,,,,,,,,d,orange,60fe1a9d554d192b202ed74d,2021-11-03_11h26.25.850,forced_choiceRT_color,2021.2.3,MacIntel,59.84082341,,,,,,,,4,Fast,long,d,1,1.8386,9,3,39,0,1,,,,,
,,,,,,,,,,,,60fe1a9d554d192b202ed74d,2021-11-03_11h26.25.850,forced_choiceRT_color,2021.2.3,MacIntel,59.84082341,,,,,,,,,,,,,,,,,,,3,0,3,0,1
,1.03,,,,,,,,,j,red,60fe1a9d554d192b202ed74d,2021-11-03_11h26.25.850,forced_choiceRT_color,2021.2.3,MacIntel,59.84082341,,,,,,,,5,Fast,long,j,1,1.7148,0,0,0,2,1,,,,,
,0.76,,,,,,,,,d,orange,60fe1a9d554d192b202ed74d,2021-11-03_11h26.25.850,forced_choiceRT_color,2021.2.3,MacIntel,59.84082341,,,,,,,,5,Fast,long,d,1,1.8759,0,1,1,0,1,,,,,
,0.46,,,,,,,,,d,orange,60fe1a9d554d192b202ed74d,2021-11-03_11h26.25.850,forced_choiceRT_color,2021.2.3,MacIntel,59.84082341,,,,,,,,5,Ontime,long,d,1,2.0296,0,2,2,0,1,,,,,
,0.39,,,,,,,,,f,blue,60fe1a9d554d192b202ed74d,2021-11-03_11h26.25.850,forced_choiceRT_color,2021.2.3,MacIntel,59.84082341,,,,,,,,5,Ontime,long,j,0,2.0775,0,3,3,1,1,,,,,
,1.58,,,,,,,,,f,blue,60fe1a9d554d192b202ed74d,2021-11-03_11h26.25.850,forced_choiceRT_color,2021.2.3,MacIntel,59.84082341,,,,,,,,5,Ontime,long,j,0,2.0617,1,0,4,1,1,,,,,
,0.56,,,,,,,,,f,blue,60fe1a9d554d192b202ed74d,2021-11-03_11h26.25.850,forced_choiceRT_color,2021.2.3,MacIntel,59.84082341,,,,,,,,5,Ontime,long,j,0,2.0507,1,1,5,1,1,,,,,
,1.53,,,,,,,,,k,purple,60fe1a9d554d192b202ed74d,2021-11-03_11h26.25.850,forced_choiceRT_color,2021.2.3,MacIntel,59.84082341,,,,,,,,5,Ontime,long,k,1,2.044,1,2,6,3,1,,,,,
,0.38,,,,,,,,,j,red,60fe1a9d554d192b202ed74d,2021-11-03_11h26.25.850,forced_choiceRT_color,2021.2.3,MacIntel,59.84082341,,,,,,,,5,Slow,long,j,1,2.1301,1,3,7,2,1,,,,,
,0.71,,,,,,,,,f,blue,60fe1a9d554d192b202ed74d,2021-11-03_11h26.25.850,forced_choiceRT_color,2021.2.3,MacIntel,59.84082341,,,,,,,,5,Slow,long,f,1,2.107,2,0,8,1,1,,,,,
,1.68,,,,,,,,,f,blue,60fe1a9d554d192b202ed74d,2021-11-03_11h26.25.850,forced_choiceRT_color,2021.2.3,MacIntel,59.84082341,,,,,,,,5,Slow,long,j,0,2.2526,2,1,9,1,1,,,,,
,0.08,,,,,,,,,f,blue,60fe1a9d554d192b202ed74d,2021-11-03_11h26.25.850,forced_choiceRT_color,2021.2.3,MacIntel,59.84082341,,,,,,,,5,Ontime,long,f,1,1.9121,2,2,10,1,1,,,,,
,1.92,,,,,,,,,j,red,60fe1a9d554d192b202ed74d,2021-11-03_11h26.25.850,forced_choiceRT_color,2021.2.3,MacIntel,59.84082341,,,,,,,,5,Slow,long,f,0,2.1651,2,3,11,2,1,,,,,
,1.19,,,,,,,,,f,blue,60fe1a9d554d192b202ed74d,2021-11-03_11h26.25.850,forced_choiceRT_color,2021.2.3,MacIntel,59.84082341,,,,,,,,5,Fast,long,f,1,1.7886,3,0,12,1,1,,,,,
,1.06,,,,,,,,,k,purple,60fe1a9d554d192b202ed74d,2021-11-03_11h26.25.850,forced_choiceRT_color,2021.2.3,MacIntel,59.84082341,,,,,,,,5,Ontime,long,k,1,2.0275,3,1,13,3,1,,,,,
,1.29,,,,,,,,,f,blue,60fe1a9d554d192b202ed74d,2021-11-03_11h26.25.850,forced_choiceRT_color,2021.2.3,MacIntel,59.84082341,,,,,,,,5,Ontime,long,f,1,1.9475,3,2,14,1,1,,,,,
,1.34,,,,,,,,,f,blue,60fe1a9d554d192b202ed74d,2021-11-03_11h26.25.850,forced_choiceRT_color,2021.2.3,MacIntel,59.84082341,,,,,,,,5,Ontime,long,f,1,2.0411,3,3,15,1,1,,,,,
,0.23,,,,,,,,,j,red,60fe1a9d554d192b202ed74d,2021-11-03_11h26.25.850,forced_choiceRT_color,2021.2.3,MacIntel,59.84082341,,,,,,,,5,Ontime,long,j,1,2.0902,4,0,16,2,1,,,,,
,1.96,,,,,,,,,j,red,60fe1a9d554d192b202ed74d,2021-11-03_11h26.25.850,forced_choiceRT_color,2021.2.3,MacIntel,59.84082341,,,,,,,,5,Slow,long,j,1,2.4151,4,1,17,2,1,,,,,
,1.62,,,,,,,,,d,orange,60fe1a9d554d192b202ed74d,2021-11-03_11h26.25.850,forced_choiceRT_color,2021.2.3,MacIntel,59.84082341,,,,,,,,5,Ontime,long,d,1,2.0159,4,2,18,0,1,,,,,
,0.7,,,,,,,,,d,orange,60fe1a9d554d192b202ed74d,2021-11-03_11h26.25.850,forced_choiceRT_color,2021.2.3,MacIntel,59.84082341,,,,,,,,5,Ontime,long,d,1,2.0601,4,3,19,0,1,,,,,
,1.14,,,,,,,,,f,blue,60fe1a9d554d192b202ed74d,2021-11-03_11h26.25.850,forced_choiceRT_color,2021.2.3,MacIntel,59.84082341,,,,,,,,5,Ontime,long,f,1,2.008,5,0,20,1,1,,,,,
,0.56,,,,,,,,,d,orange,60fe1a9d554d192b202ed74d,2021-11-03_11h26.25.850,forced_choiceRT_color,2021.2.3,MacIntel,59.84082341,,,,,,,,5,Ontime,long,d,1,2.0625,5,1,21,0,1,,,,,
,0.73,,,,,,,,,j,red,60fe1a9d554d192b202ed74d,2021-11-03_11h26.25.850,forced_choiceRT_color,2021.2.3,MacIntel,59.84082341,,,,,,,,5,Ontime,long,j,1,1.9935,5,2,22,2,1,,,,,
,1.62,,,,,,,,,k,purple,60fe1a9d554d192b202ed74d,2021-11-03_11h26.25.850,forced_choiceRT_color,2021.2.3,MacIntel,59.84082341,,,,,,,,5,Ontime,long,k,1,1.9155,5,3,23,3,1,,,,,
,0.22,,,,,,,,,d,orange,60fe1a9d554d192b202ed74d,2021-11-03_11h26.25.850,forced_choiceRT_color,2021.2.3,MacIntel,59.84082341,,,,,,,,5,Ontime,long,d,1,1.9811,6,0,24,0,1,,,,,
,1.43,,,,,,,,,d,orange,60fe1a9d554d192b202ed74d,2021-11-03_11h26.25.850,forced_choiceRT_color,2021.2.3,MacIntel,59.84082341,,,,,,,,5,Ontime,long,d,1,1.994,6,1,25,0,1,,,,,
,1.89,,,,,,,,,d,orange,60fe1a9d554d192b202ed74d,2021-11-03_11h26.25.850,forced_choiceRT_color,2021.2.3,MacIntel,59.84082341,,,,,,,,5,Slow,long,j,0,2.178,6,2,26,0,1,,,,,
,0.97,,,,,,,,,k,purple,60fe1a9d554d192b202ed74d,2021-11-03_11h26.25.850,forced_choiceRT_color,2021.2.3,MacIntel,59.84082341,,,,,,,,5,Ontime,long,k,1,2.0746,6,3,27,3,1,,,,,
,0.55,,,,,,,,,k,purple,60fe1a9d554d192b202ed74d,2021-11-03_11h26.25.850,forced_choiceRT_color,2021.2.3,MacIntel,59.84082341,,,,,,,,5,Ontime,long,k,1,1.9605,7,0,28,3,1,,,,,
,0.66,,,,,,,,,k,purple,60fe1a9d554d192b202ed74d,2021-11-03_11h26.25.850,forced_choiceRT_color,2021.2.3,MacIntel,59.84082341,,,,,,,,5,Ontime,long,k,1,2.0409,7,1,29,3,1,,,,,
,1.74,,,,,,,,,j,red,60fe1a9d554d192b202ed74d,2021-11-03_11h26.25.850,forced_choiceRT_color,2021.2.3,MacIntel,59.84082341,,,,,,,,5,Ontime,long,j,1,2.0275,7,2,30,2,1,,,,,
,0.77,,,,,,,,,j,red,60fe1a9d554d192b202ed74d,2021-11-03_11h26.25.850,forced_choiceRT_color,2021.2.3,MacIntel,59.84082341,,,,,,,,5,Ontime,long,j,1,2.0029,7,3,31,2,1,,,,,
,1.26,,,,,,,,,k,purple,60fe1a9d554d192b202ed74d,2021-11-03_11h26.25.850,forced_choiceRT_color,2021.2.3,MacIntel,59.84082341,,,,,,,,5,Ontime,long,k,1,1.9719,8,0,32,3,1,,,,,
,1.74,,,,,,,,,k,purple,60fe1a9d554d192b202ed74d,2021-11-03_11h26.25.850,forced_choiceRT_color,2021.2.3,MacIntel,59.84082341,,,,,,,,5,Ontime,long,f,0,2.0557,8,1,33,3,1,,,,,
,1.93,,,,,,,,,d,orange,60fe1a9d554d192b202ed74d,2021-11-03_11h26.25.850,forced_choiceRT_color,2021.2.3,MacIntel,59.84082341,,,,,,,,5,Ontime,long,d,1,2.0511,8,2,34,0,1,,,,,
,1.72,,,,,,,,,k,purple,60fe1a9d554d192b202ed74d,2021-11-03_11h26.25.850,forced_choiceRT_color,2021.2.3,MacIntel,59.84082341,,,,,,,,5,Slow,long,j,0,2.1568,8,3,35,3,1,,,,,
,0.12,,,,,,,,,k,purple,60fe1a9d554d192b202ed74d,2021-11-03_11h26.25.850,forced_choiceRT_color,2021.2.3,MacIntel,59.84082341,,,,,,,,5,Ontime,long,k,1,1.9158,9,0,36,3,1,,,,,
,0.66,,,,,,,,,d,orange,60fe1a9d554d192b202ed74d,2021-11-03_11h26.25.850,forced_choiceRT_color,2021.2.3,MacIntel,59.84082341,,,,,,,,5,Ontime,long,d,1,1.9065,9,1,37,0,1,,,,,
,1.26,,,,,,,,,j,red,60fe1a9d554d192b202ed74d,2021-11-03_11h26.25.850,forced_choiceRT_color,2021.2.3,MacIntel,59.84082341,,,,,,,,5,Ontime,long,j,1,1.9057,9,2,38,2,1,,,,,
,1.21,,,,,,,,,j,red,60fe1a9d554d192b202ed74d,2021-11-03_11h26.25.850,forced_choiceRT_color,2021.2.3,MacIntel,59.84082341,,,,,,,,5,Ontime,long,j,1,2.0222,9,3,39,2,1,,,,,
,,,,,,,,,,,,60fe1a9d554d192b202ed74d,2021-11-03_11h26.25.850,forced_choiceRT_color,2021.2.3,MacIntel,59.84082341,,,,,,,,,,,,,,,,,,,4,0,4,0,1
,1.2,,,,,,,,,j,red,60fe1a9d554d192b202ed74d,2021-11-03_11h26.25.850,forced_choiceRT_color,2021.2.3,MacIntel,59.84082341,,,,,,,,6,Ontime,long,j,1,1.9285,0,0,0,2,1,,,,,
,1.76,,,,,,,,,k,purple,60fe1a9d554d192b202ed74d,2021-11-03_11h26.25.850,forced_choiceRT_color,2021.2.3,MacIntel,59.84082341,,,,,,,,6,Ontime,long,k,1,1.9771,0,1,1,3,1,,,,,
,1.36,,,,,,,,,d,orange,60fe1a9d554d192b202ed74d,2021-11-03_11h26.25.850,forced_choiceRT_color,2021.2.3,MacIntel,59.84082341,,,,,,,,6,Fast,long,f,0,1.8564,0,2,2,0,1,,,,,
,0.94,,,,,,,,,j,red,60fe1a9d554d192b202ed74d,2021-11-03_11h26.25.850,forced_choiceRT_color,2021.2.3,MacIntel,59.84082341,,,,,,,,6,Ontime,long,j,1,1.9133,0,3,3,2,1,,,,,
,1.44,,,,,,,,,f,blue,60fe1a9d554d192b202ed74d,2021-11-03_11h26.25.850,forced_choiceRT_color,2021.2.3,MacIntel,59.84082341,,,,,,,,6,Slow,long,j,0,11.8032,1,0,4,1,1,,,,,
,1.82,,,,,,,,,d,orange,60fe1a9d554d192b202ed74d,2021-11-03_11h26.25.850,forced_choiceRT_color,2021.2.3,MacIntel,59.84082341,,,,,,,,6,Ontime,long,k,0,1.9219,1,1,5,0,1,,,,,
,0.19,,,,,,,,,f,blue,60fe1a9d554d192b202ed74d,2021-11-03_11h26.25.850,forced_choiceRT_color,2021.2.3,MacIntel,59.84082341,,,,,,,,6,Slow,long,j,0,6.6179,1,2,6,1,1,,,,,
,1.25,,,,,,,,,k,purple,60fe1a9d554d192b202ed74d,2021-11-03_11h26.25.850,forced_choiceRT_color,2021.2.3,MacIntel,59.84082341,,,,,,,,6,Slow,long,k,1,2.1889,1,3,7,3,1,,,,,
,0.53,,,,,,,,,k,purple,60fe1a9d554d192b202ed74d,2021-11-03_11h26.25.850,forced_choiceRT_color,2021.2.3,MacIntel,59.84082341,,,,,,,,6,Fast,long,k,1,1.8989,2,0,8,3,1,,,,,
,0.26,,,,,,,,,f,blue,60fe1a9d554d192b202ed74d,2021-11-03_11h26.25.850,forced_choiceRT_color,2021.2.3,MacIntel,59.84082341,,,,,,,,6,Slow,long,f,1,9.1593,2,1,9,1,1,,,,,
,0.48,,,,,,,,,f,blue,60fe1a9d554d192b202ed74d,2021-11-03_11h26.25.850,forced_choiceRT_color,2021.2.3,MacIntel,59.84082341,,,,,,,,6,Slow,long,k,0,6.7518,2,2,10,1,1,,,,,
,0.15,,,,,,,,,j,red,60fe1a9d554d192b202ed74d,2021-11-03_11h26.25.850,forced_choiceRT_color,2021.2.3,MacIntel,59.84082341,,,,,,,,6,Ontime,long,j,1,1.9439,2,3,11,2,1,,,,,
,1.76,,,,,,,,,d,orange,60fe1a9d554d192b202ed74d,2021-11-03_11h26.25.850,forced_choiceRT_color,2021.2.3,MacIntel,59.84082341,,,,,,,,6,Ontime,long,k,0,2.0397,3,0,12,0,1,,,,,
,1.65,,,,,,,,,k,purple,60fe1a9d554d192b202ed74d,2021-11-03_11h26.25.850,forced_choiceRT_color,2021.2.3,MacIntel,59.84082341,,,,,,,,6,Ontime,long,k,1,2.0132,3,1,13,3,1,,,,,
,1.02,,,,,,,,,d,orange,60fe1a9d554d192b202ed74d,2021-11-03_11h26.25.850,forced_choiceRT_color,2021.2.3,MacIntel,59.84082341,,,,,,,,6,Fast,long,f,0,1.8663,3,2,14,0,1,,,,,
,1.8,,,,,,,,,j,red,60fe1a9d554d192b202ed74d,2021-11-03_11h26.25.850,forced_choiceRT_color,2021.2.3,MacIntel,59.84082341,,,,,,,,6,Ontime,long,j,1,2.0096,3,3,15,2,1,,,,,
,0.56,,,,,,,,,j,red,60fe1a9d554d192b202ed74d,2021-11-03_11h26.25.850,forced_choiceRT_color,2021.2.3,MacIntel,59.84082341,,,,,,,,6,Ontime,long,j,1,1.901,4,0,16,2,1,,,,,
,1.76,,,,,,,,,j,red,60fe1a9d554d192b202ed74d,2021-11-03_11h26.25.850,forced_choiceRT_color,2021.2.3,MacIntel,59.84082341,,,,,,,,6,Ontime,long,k,0,1.9386,4,1,17,2,1,,,,,
,1.13,,,,,,,,,f,blue,60fe1a9d554d192b202ed74d,2021-11-03_11h26.25.850,forced_choiceRT_color,2021.2.3,MacIntel,59.84082341,,,,,,,,6,Slow,long,k,0,11.606,4,2,18,1,1,,,,,
,0.51,,,,,,,,,k,purple,60fe1a9d554d192b202ed74d,2021-11-03_11h26.25.850,forced_choiceRT_color,2021.2.3,MacIntel,59.84082341,,,,,,,,6,Ontime,long,k,1,1.9459,4,3,19,3,1,,,,,
,1.8,,,,,,,,,k,purple,60fe1a9d554d192b202ed74d,2021-11-03_11h26.25.850,forced_choiceRT_color,2021.2.3,MacIntel,59.84082341,,,,,,,,6,Ontime,long,j,0,1.9913,5,0,20,3,1,,,,,
,1.17,,,,,,,,,d,orange,60fe1a9d554d192b202ed74d,2021-11-03_11h26.25.850,forced_choiceRT_color,2021.2.3,MacIntel,59.84082341,,,,,,,,6,Ontime,long,f,0,1.9783,5,1,21,0,1,,,,,
,1.74,,,,,,,,,j,red,60fe1a9d554d192b202ed74d,2021-11-03_11h26.25.850,forced_choiceRT_color,2021.2.3,MacIntel,59.84082341,,,,,,,,6,Ontime,long,k,0,1.9099,5,2,22,2,1,,,,,
,1.33,,,,,,,,,d,orange,60fe1a9d554d192b202ed74d,2021-11-03_11h26.25.850,forced_choiceRT_color,2021.2.3,MacIntel,59.84082341,,,,,,,,6,Slow,long,f,0,6.8773,5,3,23,0,1,,,,,
,0.76,,,,,,,,,d,orange,60fe1a9d554d192b202ed74d,2021-11-03_11h26.25.850,forced_choiceRT_color,2021.2.3,MacIntel,59.84082341,,,,,,,,6,Ontime,long,f,0,1.9826,6,0,24,0,1,,,,,
,1.54,,,,,,,,,d,orange,60fe1a9d554d192b202ed74d,2021-11-03_11h26.25.850,forced_choiceRT_color,2021.2.3,MacIntel,59.84082341,,,,,,,,6,Fast,long,j,0,0.2021,6,1,25,0,1,,,,,
,0.74,,,,,,,,,f,blue,60fe1a9d554d192b202ed74d,2021-11-03_11h26.25.850,forced_choiceRT_color,2021.2.3,MacIntel,59.84082341,,,,,,,,6,Slow,long,j,0,5.7553,6,2,26,1,1,,,,,
,1.29,,,,,,,,,f,blue,60fe1a9d554d192b202ed74d,2021-11-03_11h26.25.850,forced_choiceRT_color,2021.2.3,MacIntel,59.84082341,,,,,,,,6,Slow,long,k,0,7.627,6,3,27,1,1,,,,,
,1.37,,,,,,,,,k,purple,60fe1a9d554d192b202ed74d,2021-11-03_11h26.25.850,forced_choiceRT_color,2021.2.3,MacIntel,59.84082341,,,,,,,,6,Ontime,long,k,1,2.0112,7,0,28,3,1,,,,,
,1.26,,,,,,,,,f,blue,60fe1a9d554d192b202ed74d,2021-11-03_11h26.25.850,forced_choiceRT_color,2021.2.3,MacIntel,59.84082341,,,,,,,,6,Slow,long,j,0,6.7801,7,1,29,1,1,,,,,
,0.81,,,,,,,,,j,red,60fe1a9d554d192b202ed74d,2021-11-03_11h26.25.850,forced_choiceRT_color,2021.2.3,MacIntel,59.84082341,,,,,,,,6,Ontime,long,j,1,1.9598,7,2,30,2,1,,,,,
,1.52,,,,,,,,,k,purple,60fe1a9d554d192b202ed74d,2021-11-03_11h26.25.850,forced_choiceRT_color,2021.2.3,MacIntel,59.84082341,,,,,,,,6,Fast,long,k,1,1.8423,7,3,31,3,1,,,,,
,1.65,,,,,,,,,j,red,60fe1a9d554d192b202ed74d,2021-11-03_11h26.25.850,forced_choiceRT_color,2021.2.3,MacIntel,59.84082341,,,,,,,,6,Ontime,long,j,1,2.0264,8,0,32,2,1,,,,,
,1.12,,,,,,,,,j,red,60fe1a9d554d192b202ed74d,2021-11-03_11h26.25.850,forced_choiceRT_color,2021.2.3,MacIntel,59.84082341,,,,,,,,6,Ontime,long,k,0,2.0238,8,1,33,2,1,,,,,
,1.31,,,,,,,,,d,orange,60fe1a9d554d192b202ed74d,2021-11-03_11h26.25.850,forced_choiceRT_color,2021.2.3,MacIntel,59.84082341,,,,,,,,6,Ontime,long,f,0,2.0222,8,2,34,0,1,,,,,
,0.7,,,,,,,,,k,purple,60fe1a9d554d192b202ed74d,2021-11-03_11h26.25.850,forced_choiceRT_color,2021.2.3,MacIntel,59.84082341,,,,,,,,6,Ontime,long,k,1,1.938,8,3,35,3,1,,,,,
,1.62,,,,,,,,,k,purple,60fe1a9d554d192b202ed74d,2021-11-03_11h26.25.850,forced_choiceRT_color,2021.2.3,MacIntel,59.84082341,,,,,,,,6,Ontime,long,j,0,2.0102,9,0,36,3,1,,,,,
,1.07,,,,,,,,,f,blue,60fe1a9d554d192b202ed74d,2021-11-03_11h26.25.850,forced_choiceRT_color,2021.2.3,MacIntel,59.84082341,,,,,,,,6,Slow,long,j,0,6.1738,9,1,37,1,1,,,,,
,1.47,,,,,,,,,f,blue,60fe1a9d554d192b202ed74d,2021-11-03_11h26.25.850,forced_choiceRT_color,2021.2.3,MacIntel,59.84082341,,,,,,,,6,Fast,long,k,0,1.8941,9,2,38,1,1,,,,,
,0.18,,,,,,,,,d,orange,60fe1a9d554d192b202ed74d,2021-11-03_11h26.25.850,forced_choiceRT_color,2021.2.3,MacIntel,59.84082341,,,,,,,,6,Fast,long,f,0,1.8556,9,3,39,0,1,,,,,
,,,,,,,,,,,,60fe1a9d554d192b202ed74d,2021-11-03_11h26.25.850,forced_choiceRT_color,2021.2.3,MacIntel,59.84082341,,,,,,,,,,,,,,,,,,,5,0,5,0,1
,1.26,,,,,,,,,f,blue,60fe1a9d554d192b202ed74d,2021-11-03_11h26.25.850,forced_choiceRT_color,2021.2.3,MacIntel,59.84082341,,,,,,,,7,Fast,long,k,0,1.7988,0,0,0,1,1,,,,,
,1.24,,,,,,,,,d,orange,60fe1a9d554d192b202ed74d,2021-11-03_11h26.25.850,forced_choiceRT_color,2021.2.3,MacIntel,59.84082341,,,,,,,,7,Ontime,long,d,1,1.9574,0,1,1,0,1,,,,,
,1.96,,,,,,,,,f,blue,60fe1a9d554d192b202ed74d,2021-11-03_11h26.25.850,forced_choiceRT_color,2021.2.3,MacIntel,59.84082341,,,,,,,,7,Ontime,long,j,0,1.9261,0,2,2,1,1,,,,,
,1.74,,,,,,,,,k,purple,60fe1a9d554d192b202ed74d,2021-11-03_11h26.25.850,forced_choiceRT_color,2021.2.3,MacIntel,59.84082341,,,,,,,,7,Ontime,long,j,0,1.989,0,3,3,3,1,,,,,
,0.82,,,,,,,,,j,red,60fe1a9d554d192b202ed74d,2021-11-03_11h26.25.850,forced_choiceRT_color,2021.2.3,MacIntel,59.84082341,,,,,,,,7,Ontime,long,j,1,1.9928,1,0,4,2,1,,,,,
,0.79,,,,,,,,,k,purple,60fe1a9d554d192b202ed74d,2021-11-03_11h26.25.850,forced_choiceRT_color,2021.2.3,MacIntel,59.84082341,,,,,,,,7,Ontime,long,k,1,1.9229,1,1,5,3,1,,,,,
,1.24,,,,,,,,,f,blue,60fe1a9d554d192b202ed74d,2021-11-03_11h26.25.850,forced_choiceRT_color,2021.2.3,MacIntel,59.84082341,,,,,,,,7,Fast,long,f,1,1.8418,1,2,6,1,1,,,,,
,0.17,,,,,,,,,k,purple,60fe1a9d554d192b202ed74d,2021-11-03_11h26.25.850,forced_choiceRT_color,2021.2.3,MacIntel,59.84082341,,,,,,,,7,Ontime,long,k,1,1.9614,1,3,7,3,1,,,,,
,0.1,,,,,,,,,j,red,60fe1a9d554d192b202ed74d,2021-11-03_11h26.25.850,forced_choiceRT_color,2021.2.3,MacIntel,59.84082341,,,,,,,,7,Ontime,long,j,1,1.9222,2,0,8,2,1,,,,,
,0.43,,,,,,,,,j,red,60fe1a9d554d192b202ed74d,2021-11-03_11h26.25.850,forced_choiceRT_color,2021.2.3,MacIntel,59.84082341,,,,,,,,7,Slow,long,j,1,2.2229,2,1,9,2,1,,,,,
,0.22,,,,,,,,,j,red,60fe1a9d554d192b202ed74d,2021-11-03_11h26.25.850,forced_choiceRT_color,2021.2.3,MacIntel,59.84082341,,,,,,,,7,Ontime,long,j,1,2.0109,2,2,10,2,1,,,,,
,1.15,,,,,,,,,k,purple,60fe1a9d554d192b202ed74d,2021-11-03_11h26.25.850,forced_choiceRT_color,2021.2.3,MacIntel,59.84082341,,,,,,,,7,Ontime,long,k,1,1.9408,2,3,11,3,1,,,,,
,1.77,,,,,,,,,k,purple,60fe1a9d554d192b202ed74d,2021-11-03_11h26.25.850,forced_choiceRT_color,2021.2.3,MacIntel,59.84082341,,,,,,,,7,Ontime,long,k,1,1.9763,3,0,12,3,1,,,,,
,1.28,,,,,,,,,f,blue,60fe1a9d554d192b202ed74d,2021-11-03_11h26.25.850,forced_choiceRT_color,2021.2.3,MacIntel,59.84082341,,,,,,,,7,Fast,long,f,1,1.8723,3,1,13,1,1,,,,,
,0.75,,,,,,,,,j,red,60fe1a9d554d192b202ed74d,2021-11-03_11h26.25.850,forced_choiceRT_color,2021.2.3,MacIntel,59.84082341,,,,,,,,7,Ontime,long,j,1,1.9054,3,2,14,2,1,,,,,
,1.2,,,,,,,,,d,orange,60fe1a9d554d192b202ed74d,2021-11-03_11h26.25.850,forced_choiceRT_color,2021.2.3,MacIntel,59.84082341,,,,,,,,7,Ontime,long,d,1,1.9564,3,3,15,0,1,,,,,
,1.59,,,,,,,,,j,red,60fe1a9d554d192b202ed74d,2021-11-03_11h26.25.850,forced_choiceRT_color,2021.2.3,MacIntel,59.84082341,,,,,,,,7,Fast,long,f,0,1.8394,4,0,16,2,1,,,,,
,0.35,,,,,,,,,f,blue,60fe1a9d554d192b202ed74d,2021-11-03_11h26.25.850,forced_choiceRT_color,2021.2.3,MacIntel,59.84082341,,,,,,,,7,Fast,long,f,1,1.7318,4,1,17,1,1,,,,,
,0.25,,,,,,,,,f,blue,60fe1a9d554d192b202ed74d,2021-11-03_11h26.25.850,forced_choiceRT_color,2021.2.3,MacIntel,59.84082341,,,,,,,,7,Fast,long,f,1,1.6393,4,2,18,1,1,,,,,
,1.4,,,,,,,,,j,red,60fe1a9d554d192b202ed74d,2021-11-03_11h26.25.850,forced_choiceRT_color,2021.2.3,MacIntel,59.84082341,,,,,,,,7,Ontime,long,j,1,1.9485,4,3,19,2,1,,,,,
,0.88,,,,,,,,,d,orange,60fe1a9d554d192b202ed74d,2021-11-03_11h26.25.850,forced_choiceRT_color,2021.2.3,MacIntel,59.84082341,,,,,,,,7,Ontime,long,d,1,1.9027,5,0,20,0,1,,,,,
,0.86,,,,,,,,,d,orange,60fe1a9d554d192b202ed74d,2021-11-03_11h26.25.850,forced_choiceRT_color,2021.2.3,MacIntel,59.84082341,,,,,,,,7,Ontime,long,d,1,1.9646,5,1,21,0,1,,,,,
,1.91,,,,,,,,,j,red,60fe1a9d554d192b202ed74d,2021-11-03_11h26.25.850,forced_choiceRT_color,2021.2.3,MacIntel,59.84082341,,,,,,,,7,Ontime,long,k,0,1.9108,5,2,22,2,1,,,,,
,1.18,,,,,,,,,f,blue,60fe1a9d554d192b202ed74d,2021-11-03_11h26.25.850,forced_choiceRT_color,2021.2.3,MacIntel,59.84082341,,,,,,,,7,Ontime,long,f,1,2.0575,5,3,23,1,1,,,,,
,0.87,,,,,,,,,d,orange,60fe1a9d554d192b202ed74d,2021-11-03_11h26.25.850,forced_choiceRT_color,2021.2.3,MacIntel,59.84082341,,,,,,,,7,Fast,long,d,1,1.7919,6,0,24,0,1,,,,,
,0.34,,,,,,,,,j,red,60fe1a9d554d192b202ed74d,2021-11-03_11h26.25.850,forced_choiceRT_color,2021.2.3,MacIntel,59.84082341,,,,,,,,7,Fast,long,j,1,1.8889,6,1,25,2,1,,,,,
,1.71,,,,,,,,,k,purple,60fe1a9d554d192b202ed74d,2021-11-03_11h26.25.850,forced_choiceRT_color,2021.2.3,MacIntel,59.84082341,,,,,,,,7,Ontime,long,k,1,1.9447,6,2,26,3,1,,,,,
,1.7,,,,,,,,,f,blue,60fe1a9d554d192b202ed74d,2021-11-03_11h26.25.850,forced_choiceRT_color,2021.2.3,MacIntel,59.84082341,,,,,,,,7,Slow,long,j,0,2.2789,6,3,27,1,1,,,,,
,0.3,,,,,,,,,d,orange,60fe1a9d554d192b202ed74d,2021-11-03_11h26.25.850,forced_choiceRT_color,2021.2.3,MacIntel,59.84082341,,,,,,,,7,Ontime,long,d,1,1.9597,7,0,28,0,1,,,,,
,1.02,,,,,,,,,d,orange,60fe1a9d554d192b202ed74d,2021-11-03_11h26.25.850,forced_choiceRT_color,2021.2.3,MacIntel,59.84082341,,,,,,,,7,Fast,long,d,1,1.7559,7,1,29,0,1,,,,,
,1.28,,,,,,,,,d,orange,60fe1a9d554d192b202ed74d,2021-11-03_11h26.25.850,forced_choiceRT_color,2021.2.3,MacIntel,59.84082341,,,,,,,,7,Fast,long,d,1,1.8053,7,2,30,0,1,,,,,
,1.24,,,,,,,,,f,blue,60fe1a9d554d192b202ed74d,2021-11-03_11h26.25.850,forced_choiceRT_color,2021.2.3,MacIntel,59.84082341,,,,,,,,7,Ontime,long,f,1,2.0558,7,3,31,1,1,,,,,
,1.44,,,,,,,,,d,orange,60fe1a9d554d192b202ed74d,2021-11-03_11h26.25.850,forced_choiceRT_color,2021.2.3,MacIntel,59.84082341,,,,,,,,7,Ontime,long,d,1,1.957,8,0,32,0,1,,,,,
,0.28,,,,,,,,,f,blue,60fe1a9d554d192b202ed74d,2021-11-03_11h26.25.850,forced_choiceRT_color,2021.2.3,MacIntel,59.84082341,,,,,,,,7,Ontime,long,f,1,1.9609,8,1,33,1,1,,,,,
,1.1,,,,,,,,,d,orange,60fe1a9d554d192b202ed74d,2021-11-03_11h26.25.850,forced_choiceRT_color,2021.2.3,MacIntel,59.84082341,,,,,,,,7,Ontime,long,d,1,1.9783,8,2,34,0,1,,,,,
,0.25,,,,,,,,,k,purple,60fe1a9d554d192b202ed74d,2021-11-03_11h26.25.850,forced_choiceRT_color,2021.2.3,MacIntel,59.84082341,,,,,,,,7,Ontime,long,k,1,1.9068,8,3,35,3,1,,,,,
,0.1,,,,,,,,,k,purple,60fe1a9d554d192b202ed74d,2021-11-03_11h26.25.850,forced_choiceRT_color,2021.2.3,MacIntel,59.84082341,,,,,,,,7,Ontime,long,k,1,1.9054,9,0,36,3,1,,,,,
,1.4,,,,,,,,,k,purple,60fe1a9d554d192b202ed74d,2021-11-03_11h26.25.850,forced_choiceRT_color,2021.2.3,MacIntel,59.84082341,,,,,,,,7,Ontime,long,k,1,2.0232,9,1,37,3,1,,,,,
,0.25,,,,,,,,,j,red,60fe1a9d554d192b202ed74d,2021-11-03_11h26.25.850,forced_choiceRT_color,2021.2.3,MacIntel,59.84082341,,,,,,,,7,Ontime,long,j,1,1.958,9,2,38,2,1,,,,,
,0.12,,,,,,,,,k,purple,60fe1a9d554d192b202ed74d,2021-11-03_11h26.25.850,forced_choiceRT_color,2021.2.3,MacIntel,59.84082341,,,,,,,,7,Ontime,long,k,1,1.9312,9,3,39,3,1,,,,,
,,,,,,,,,,,,60fe1a9d554d192b202ed74d,2021-11-03_11h26.25.850,forced_choiceRT_color,2021.2.3,MacIntel,59.84082341,,,,,,,,,,,,,,,,,,,6,0,6,0,1
,1.64,,,,,,,,,d,orange,60fe1a9d554d192b202ed74d,2021-11-03_11h26.25.850,forced_choiceRT_color,2021.2.3,MacIntel,59.84082341,,,,,,,,8,Ontime,long,k,0,1.994,0,0,0,0,1,,,,,
,0.08,,,,,,,,,j,red,60fe1a9d554d192b202ed74d,2021-11-03_11h26.25.850,forced_choiceRT_color,2021.2.3,MacIntel,59.84082341,,,,,,,,8,Fast,long,j,1,1.889,0,1,1,2,1,,,,,
,1.63,,,,,,,,,j,red,60fe1a9d554d192b202ed74d,2021-11-03_11h26.25.850,forced_choiceRT_color,2021.2.3,MacIntel,59.84082341,,,,,,,,8,Ontime,long,k,0,2.0621,0,2,2,2,1,,,,,
,1.98,,,,,,,,,j,red,60fe1a9d554d192b202ed74d,2021-11-03_11h26.25.850,forced_choiceRT_color,2021.2.3,MacIntel,59.84082341,,,,,,,,8,Slow,long,d,0,2.1318,0,3,3,2,1,,,,,
,0.74,,,,,,,,,d,orange,60fe1a9d554d192b202ed74d,2021-11-03_11h26.25.850,forced_choiceRT_color,2021.2.3,MacIntel,59.84082341,,,,,,,,8,Ontime,long,d,1,1.943,1,0,4,0,1,,,,,
,0,,,,,,,,,j,red,60fe1a9d554d192b202ed74d,2021-11-03_11h26.25.850,forced_choiceRT_color,2021.2.3,MacIntel,59.84082341,,,,,,,,8,Ontime,long,j,1,1.9577,1,1,5,2,1,,,,,
,0.47,,,,,,,,,d,orange,60fe1a9d554d192b202ed74d,2021-11-03_11h26.25.850,forced_choiceRT_color,2021.2.3,MacIntel,59.84082341,,,,,,,,8,Fast,long,d,1,1.8972,1,2,6,0,1,,,,,
,0.77,,,,,,,,,f,blue,60fe1a9d554d192b202ed74d,2021-11-03_11h26.25.850,forced_choiceRT_color,2021.2.3,MacIntel,59.84082341,,,,,,,,8,Slow,long,f,1,2.1966,1,3,7,1,1,,,,,
,1.99,,,,,,,,,k,purple,60fe1a9d554d192b202ed74d,2021-11-03_11h26.25.850,forced_choiceRT_color,2021.2.3,MacIntel,59.84082341,,,,,,,,8,Slow,long,k,1,2.1618,2,0,8,3,1,,,,,
,0.61,,,,,,,,,k,purple,60fe1a9d554d192b202ed74d,2021-11-03_11h26.25.850,forced_choiceRT_color,2021.2.3,MacIntel,59.84082341,,,,,,,,8,Fast,long,k,1,1.7733,2,1,9,3,1,,,,,
,0.59,,,,,,,,,f,blue,60fe1a9d554d192b202ed74d,2021-11-03_11h26.25.850,forced_choiceRT_color,2021.2.3,MacIntel,59.84082341,,,,,,,,8,Fast,long,d,0,1.8755,2,2,10,1,1,,,,,
,1.51,,,,,,,,,f,blue,60fe1a9d554d192b202ed74d,2021-11-03_11h26.25.850,forced_choiceRT_color,2021.2.3,MacIntel,59.84082341,,,,,,,,8,Ontime,long,j,0,1.9069,2,3,11,1,1,,,,,
,1.58,,,,,,,,,f,blue,60fe1a9d554d192b202ed74d,2021-11-03_11h26.25.850,forced_choiceRT_color,2021.2.3,MacIntel,59.84082341,,,,,,,,8,Fast,long,k,0,1.86,3,0,12,1,1,,,,,
,0.65,,,,,,,,,k,purple,60fe1a9d554d192b202ed74d,2021-11-03_11h26.25.850,forced_choiceRT_color,2021.2.3,MacIntel,59.84082341,,,,,,,,8,Fast,long,k,1,1.8385,3,1,13,3,1,,,,,
,0.94,,,,,,,,,k,purple,60fe1a9d554d192b202ed74d,2021-11-03_11h26.25.850,forced_choiceRT_color,2021.2.3,MacIntel,59.84082341,,,,,,,,8,Ontime,long,k,1,2.0088,3,2,14,3,1,,,,,
,1.38,,,,,,,,,f,blue,60fe1a9d554d192b202ed74d,2021-11-03_11h26.25.850,forced_choiceRT_color,2021.2.3,MacIntel,59.84082341,,,,,,,,8,Ontime,long,j,0,1.9599,3,3,15,1,1,,,,,
,1.08,,,,,,,,,f,blue,60fe1a9d554d192b202ed74d,2021-11-03_11h26.25.850,forced_choiceRT_color,2021.2.3,MacIntel,59.84082341,,,,,,,,8,Ontime,long,f,1,2.0064,4,0,16,1,1,,,,,
,0.63,,,,,,,,,f,blue,60fe1a9d554d192b202ed74d,2021-11-03_11h26.25.850,forced_choiceRT_color,2021.2.3,MacIntel,59.84082341,,,,,,,,8,Ontime,long,f,1,1.9657,4,1,17,1,1,,,,,
,1.08,,,,,,,,,j,red,60fe1a9d554d192b202ed74d,2021-11-03_11h26.25.850,forced_choiceRT_color,2021.2.3,MacIntel,59.84082341,,,,,,,,8,Ontime,long,j,1,2.0233,4,2,18,2,1,,,,,
,0.01,,,,,,,,,d,orange,60fe1a9d554d192b202ed74d,2021-11-03_11h26.25.850,forced_choiceRT_color,2021.2.3,MacIntel,59.84082341,,,,,,,,8,Ontime,long,d,1,1.9639,4,3,19,0,1,,,,,
,1.79,,,,,,,,,d,orange,60fe1a9d554d192b202ed74d,2021-11-03_11h26.25.850,forced_choiceRT_color,2021.2.3,MacIntel,59.84082341,,,,,,,,8,Fast,long,k,0,1.8801,5,0,20,0,1,,,,,
,1.13,,,,,,,,,k,purple,60fe1a9d554d192b202ed74d,2021-11-03_11h26.25.850,forced_choiceRT_color,2021.2.3,MacIntel,59.84082341,,,,,,,,8,Ontime,long,k,1,1.957,5,1,21,3,1,,,,,
,0.79,,,,,,,,,j,red,60fe1a9d554d192b202ed74d,2021-11-03_11h26.25.850,forced_choiceRT_color,2021.2.3,MacIntel,59.84082341,,,,,,,,8,Ontime,long,j,1,1.91,5,2,22,2,1,,,,,
,0.91,,,,,,,,,j,red,60fe1a9d554d192b202ed74d,2021-11-03_11h26.25.850,forced_choiceRT_color,2021.2.3,MacIntel,59.84082341,,,,,,,,8,Ontime,long,j,1,1.981,5,3,23,2,1,,,,,
,1,,,,,,,,,j,red,60fe1a9d554d192b202ed74d,2021-11-03_11h26.25.850,forced_choiceRT_color,2021.2.3,MacIntel,59.84082341,,,,,,,,8,Ontime,long,j,1,1.9336,6,0,24,2,1,,,,,
,0.31,,,,,,,,,k,purple,60fe1a9d554d192b202ed74d,2021-11-03_11h26.25.850,forced_choiceRT_color,2021.2.3,MacIntel,59.84082341,,,,,,,,8,Ontime,long,k,1,1.9885,6,1,25,3,1,,,,,
,1.71,,,,,,,,,f,blue,60fe1a9d554d192b202ed74d,2021-11-03_11h26.25.850,forced_choiceRT_color,2021.2.3,MacIntel,59.84082341,,,,,,,,8,Fast,long,d,0,1.8456,6,2,26,1,1,,,,,
,1.28,,,,,,,,,k,purple,60fe1a9d554d192b202ed74d,2021-11-03_11h26.25.850,forced_choiceRT_color,2021.2.3,MacIntel,59.84082341,,,,,,,,8,Fast,long,k,1,1.8728,6,3,27,3,1,,,,,
,1.98,,,,,,,,,d,orange,60fe1a9d554d192b202ed74d,2021-11-03_11h26.25.850,forced_choiceRT_color,2021.2.3,MacIntel,59.84082341,,,,,,,,8,Ontime,long,d,1,1.968,7,0,28,0,1,,,,,
,1.73,,,,,,,,,k,purple,60fe1a9d554d192b202ed74d,2021-11-03_11h26.25.850,forced_choiceRT_color,2021.2.3,MacIntel,59.84082341,,,,,,,,8,Slow,long,k,1,2.2895,7,1,29,3,1,,,,,
,0.69,,,,,,,,,f,blue,60fe1a9d554d192b202ed74d,2021-11-03_11h26.25.850,forced_choiceRT_color,2021.2.3,MacIntel,59.84082341,,,,,,,,8,Ontime,long,f,1,2.0298,7,2,30,1,1,,,,,
,0.31,,,,,,,,,j,red,60fe1a9d554d192b202ed74d,2021-11-03_11h26.25.850,forced_choiceRT_color,2021.2.3,MacIntel,59.84082341,,,,,,,,8,Ontime,long,j,1,1.9803,7,3,31,2,1,,,,,
,1.45,,,,,,,,,f,blue,60fe1a9d554d192b202ed74d,2021-11-03_11h26.25.850,forced_choiceRT_color,2021.2.3,MacIntel,59.84082341,,,,,,,,8,Ontime,long,j,0,1.995,8,0,32,1,1,,,,,
,0.64,,,,,,,,,k,purple,60fe1a9d554d192b202ed74d,2021-11-03_11h26.25.850,forced_choiceRT_color,2021.2.3,MacIntel,59.84082341,,,,,,,,8,Ontime,long,k,1,1.9643,8,1,33,3,1,,,,,
,0.07,,,,,,,,,d,orange,60fe1a9d554d192b202ed74d,2021-11-03_11h26.25.850,forced_choiceRT_color,2021.2.3,MacIntel,59.84082341,,,,,,,,8,Fast,long,d,1,1.8554,8,2,34,0,1,,,,,
,1.78,,,,,,,,,k,purple,60fe1a9d554d192b202ed74d,2021-11-03_11h26.25.850,forced_choiceRT_color,2021.2.3,MacIntel,59.84082341,,,,,,,,8,Slow,long,k,1,2.1728,8,3,35,3,1,,,,,
,1.56,,,,,,,,,d,orange,60fe1a9d554d192b202ed74d,2021-11-03_11h26.25.850,forced_choiceRT_color,2021.2.3,MacIntel,59.84082341,,,,,,,,8,Ontime,long,j,0,1.9572,9,0,36,0,1,,,,,
,0.13,,,,,,,,,j,red,60fe1a9d554d192b202ed74d,2021-11-03_11h26.25.850,forced_choiceRT_color,2021.2.3,MacIntel,59.84082341,,,,,,,,8,Ontime,long,j,1,1.9929,9,1,37,2,1,,,,,
,0.57,,,,,,,,,d,orange,60fe1a9d554d192b202ed74d,2021-11-03_11h26.25.850,forced_choiceRT_color,2021.2.3,MacIntel,59.84082341,,,,,,,,8,Ontime,long,d,1,1.9284,9,2,38,0,1,,,,,
,0.03,,,,,,,,,d,orange,60fe1a9d554d192b202ed74d,2021-11-03_11h26.25.850,forced_choiceRT_color,2021.2.3,MacIntel,59.84082341,,,,,,,,8,Fast,long,d,1,1.8063,9,3,39,0,1,,,,,
,,,,,,,,,,,,60fe1a9d554d192b202ed74d,2021-11-03_11h26.25.850,forced_choiceRT_color,2021.2.3,MacIntel,59.84082341,,,,,,,,,,,,,,,,,,,7,0,7,0,1
,1.58,,,,,,,,,j,red,60fe1a9d554d192b202ed74d,2021-11-03_11h26.25.850,forced_choiceRT_color,2021.2.3,MacIntel,59.84082341,,,,,,,,9,Fast,long,k,0,1.8209,0,0,0,2,1,,,,,
,0.47,,,,,,,,,d,orange,60fe1a9d554d192b202ed74d,2021-11-03_11h26.25.850,forced_choiceRT_color,2021.2.3,MacIntel,59.84082341,,,,,,,,9,Fast,long,d,1,1.78,0,1,1,0,1,,,,,
,0.67,,,,,,,,,d,orange,60fe1a9d554d192b202ed74d,2021-11-03_11h26.25.850,forced_choiceRT_color,2021.2.3,MacIntel,59.84082341,,,,,,,,9,Ontime,long,d,1,1.9388,0,2,2,0,1,,,,,
,0.43,,,,,,,,,d,orange,60fe1a9d554d192b202ed74d,2021-11-03_11h26.25.850,forced_choiceRT_color,2021.2.3,MacIntel,59.84082341,,,,,,,,9,Ontime,long,d,1,1.9571,0,3,3,0,1,,,,,
,0.66,,,,,,,,,f,blue,60fe1a9d554d192b202ed74d,2021-11-03_11h26.25.850,forced_choiceRT_color,2021.2.3,MacIntel,59.84082341,,,,,,,,9,Fast,long,j,0,1.8716,1,0,4,1,1,,,,,
,1.7,,,,,,,,,j,red,60fe1a9d554d192b202ed74d,2021-11-03_11h26.25.850,forced_choiceRT_color,2021.2.3,MacIntel,59.84082341,,,,,,,,9,Ontime,long,f,0,1.9275,1,1,5,2,1,,,,,
,0.4,,,,,,,,,f,blue,60fe1a9d554d192b202ed74d,2021-11-03_11h26.25.850,forced_choiceRT_color,2021.2.3,MacIntel,59.84082341,,,,,,,,9,Ontime,long,f,1,1.9388,1,2,6,1,1,,,,,
,0.31,,,,,,,,,k,purple,60fe1a9d554d192b202ed74d,2021-11-03_11h26.25.850,forced_choiceRT_color,2021.2.3,MacIntel,59.84082341,,,,,,,,9,Ontime,long,k,1,1.9443,1,3,7,3,1,,,,,
,1.71,,,,,,,,,k,purple,60fe1a9d554d192b202ed74d,2021-11-03_11h26.25.850,forced_choiceRT_color,2021.2.3,MacIntel,59.84082341,,,,,,,,9,Ontime,long,j,0,1.9771,2,0,8,3,1,,,,,
,1.25,,,,,,,,,j,red,60fe1a9d554d192b202ed74d,2021-11-03_11h26.25.850,forced_choiceRT_color,2021.2.3,MacIntel,59.84082341,,,,,,,,9,Fast,long,d,0,1.7644,2,1,9,2,1,,,,,
,0.98,,,,,,,,,j,red,60fe1a9d554d192b202ed74d,2021-11-03_11h26.25.850,forced_choiceRT_color,2021.2.3,MacIntel,59.84082341,,,,,,,,9,Ontime,long,j,1,1.9824,2,2,10,2,1,,,,,
,0.6,,,,,,,,,j,red,60fe1a9d554d192b202ed74d,2021-11-03_11h26.25.850,forced_choiceRT_color,2021.2.3,MacIntel,59.84082341,,,,,,,,9,Ontime,long,j,1,2.0019,2,3,11,2,1,,,,,
,0.37,,,,,,,,,j,red,60fe1a9d554d192b202ed74d,2021-11-03_11h26.25.850,forced_choiceRT_color,2021.2.3,MacIntel,59.84082341,,,,,,,,9,Ontime,long,j,1,1.9972,3,0,12,2,1,,,,,
,1.58,,,,,,,,,k,purple,60fe1a9d554d192b202ed74d,2021-11-03_11h26.25.850,forced_choiceRT_color,2021.2.3,MacIntel,59.84082341,,,,,,,,9,Ontime,long,f,0,2.0413,3,1,13,3,1,,,,,
,1.09,,,,,,,,,k,purple,60fe1a9d554d192b202ed74d,2021-11-03_11h26.25.850,forced_choiceRT_color,2021.2.3,MacIntel,59.84082341,,,,,,,,9,Ontime,long,k,1,1.9089,3,2,14,3,1,,,,,
,0.51,,,,,,,,,j,red,60fe1a9d554d192b202ed74d,2021-11-03_11h26.25.850,forced_choiceRT_color,2021.2.3,MacIntel,59.84082341,,,,,,,,9,Ontime,long,j,1,1.9659,3,3,15,2,1,,,,,
,0.94,,,,,,,,,d,orange,60fe1a9d554d192b202ed74d,2021-11-03_11h26.25.850,forced_choiceRT_color,2021.2.3,MacIntel,59.84082341,,,,,,,,9,Ontime,long,d,1,1.9218,4,0,16,0,1,,,,,
,1.63,,,,,,,,,d,orange,60fe1a9d554d192b202ed74d,2021-11-03_11h26.25.850,forced_choiceRT_color,2021.2.3,MacIntel,59.84082341,,,,,,,,9,Fast,long,k,0,1.8726,4,1,17,0,1,,,,,
,1.99,,,,,,,,,f,blue,60fe1a9d554d192b202ed74d,2021-11-03_11h26.25.850,forced_choiceRT_color,2021.2.3,MacIntel,59.84082341,,,,,,,,9,Ontime,long,k,0,1.9118,4,2,18,1,1,,,,,
,0.91,,,,,,,,,j,red,60fe1a9d554d192b202ed74d,2021-11-03_11h26.25.850,forced_choiceRT_color,2021.2.3,MacIntel,59.84082341,,,,,,,,9,Ontime,long,j,1,2.0049,4,3,19,2,1,,,,,
,0.22,,,,,,,,,f,blue,60fe1a9d554d192b202ed74d,2021-11-03_11h26.25.850,forced_choiceRT_color,2021.2.3,MacIntel,59.84082341,,,,,,,,9,Ontime,long,f,1,1.922,5,0,20,1,1,,,,,
,1.45,,,,,,,,,j,red,60fe1a9d554d192b202ed74d,2021-11-03_11h26.25.850,forced_choiceRT_color,2021.2.3,MacIntel,59.84082341,,,,,,,,9,Ontime,long,d,0,1.9469,5,1,21,2,1,,,,,
,0.9,,,,,,,,,f,blue,60fe1a9d554d192b202ed74d,2021-11-03_11h26.25.850,forced_choiceRT_color,2021.2.3,MacIntel,59.84082341,,,,,,,,9,Ontime,long,f,1,2.0399,5,2,22,1,1,,,,,
,1.77,,,,,,,,,d,orange,60fe1a9d554d192b202ed74d,2021-11-03_11h26.25.850,forced_choiceRT_color,2021.2.3,MacIntel,59.84082341,,,,,,,,9,Ontime,long,d,1,1.9908,5,3,23,0,1,,,,,
,1.62,,,,,,,,,k,purple,60fe1a9d554d192b202ed74d,2021-11-03_11h26.25.850,forced_choiceRT_color,2021.2.3,MacIntel,59.84082341,,,,,,,,9,Ontime,long,k,1,1.9156,6,0,24,3,1,,,,,
,1.14,,,,,,,,,f,blue,60fe1a9d554d192b202ed74d,2021-11-03_11h26.25.850,forced_choiceRT_color,2021.2.3,MacIntel,59.84082341,,,,,,,,9,Fast,long,f,1,1.8944,6,1,25,1,1,,,,,
,0.1,,,,,,,,,k,purple,60fe1a9d554d192b202ed74d,2021-11-03_11h26.25.850,forced_choiceRT_color,2021.2.3,MacIntel,59.84082341,,,,,,,,9,Ontime,long,k,1,1.9775,6,2,26,3,1,,,,,
,0.04,,,,,,,,,k,purple,60fe1a9d554d192b202ed74d,2021-11-03_11h26.25.850,forced_choiceRT_color,2021.2.3,MacIntel,59.84082341,,,,,,,,9,Ontime,long,k,1,1.9424,6,3,27,3,1,,,,,
,1.23,,,,,,,,,k,purple,60fe1a9d554d192b202ed74d,2021-11-03_11h26.25.850,forced_choiceRT_color,2021.2.3,MacIntel,59.84082341,,,,,,,,9,Fast,long,k,1,1.8732,7,0,28,3,1,,,,,
,0.15,,,,,,,,,f,blue,60fe1a9d554d192b202ed74d,2021-11-03_11h26.25.850,forced_choiceRT_color,2021.2.3,MacIntel,59.84082341,,,,,,,,9,Ontime,long,f,1,2.0753,7,1,29,1,1,,,,,
,0.26,,,,,,,,,f,blue,60fe1a9d554d192b202ed74d,2021-11-03_11h26.25.850,forced_choiceRT_color,2021.2.3,MacIntel,59.84082341,,,,,,,,9,Ontime,long,f,1,1.9727,7,2,30,1,1,,,,,
,0.15,,,,,,,,,d,orange,60fe1a9d554d192b202ed74d,2021-11-03_11h26.25.850,forced_choiceRT_color,2021.2.3,MacIntel,59.84082341,,,,,,,,9,Ontime,long,d,1,1.9406,7,3,31,0,1,,,,,
,1.06,,,,,,,,,d,orange,60fe1a9d554d192b202ed74d,2021-11-03_11h26.25.850,forced_choiceRT_color,2021.2.3,MacIntel,59.84082341,,,,,,,,9,Ontime,long,d,1,1.9732,8,0,32,0,1,,,,,
,1.3,,,,,,,,,f,blue,60fe1a9d554d192b202ed74d,2021-11-03_11h26.25.850,forced_choiceRT_color,2021.2.3,MacIntel,59.84082341,,,,,,,,9,Ontime,long,f,1,1.9222,8,1,33,1,1,,,,,
,1.23,,,,,,,,,j,red,60fe1a9d554d192b202ed74d,2021-11-03_11h26.25.850,forced_choiceRT_color,2021.2.3,MacIntel,59.84082341,,,,,,,,9,Ontime,long,j,1,1.9573,8,2,34,2,1,,,,,
,1.49,,,,,,,,,d,orange,60fe1a9d554d192b202ed74d,2021-11-03_11h26.25.850,forced_choiceRT_color,2021.2.3,MacIntel,59.84082341,,,,,,,,9,Fast,long,k,0,1.8981,8,3,35,0,1,,,,,
,1.75,,,,,,,,,f,blue,60fe1a9d554d192b202ed74d,2021-11-03_11h26.25.850,forced_choiceRT_color,2021.2.3,MacIntel,59.84082341,,,,,,,,9,Fast,long,k,0,1.832,9,0,36,1,1,,,,,
,0.22,,,,,,,,,k,purple,60fe1a9d554d192b202ed74d,2021-11-03_11h26.25.850,forced_choiceRT_color,2021.2.3,MacIntel,59.84082341,,,,,,,,9,Ontime,long,k,1,1.9151,9,1,37,3,1,,,,,
,0.05,,,,,,,,,d,orange,60fe1a9d554d192b202ed74d,2021-11-03_11h26.25.850,forced_choiceRT_color,2021.2.3,MacIntel,59.84082341,,,,,,,,9,Ontime,long,d,1,1.9093,9,2,38,0,1,,,,,
,0.8,,,,,,,,,k,purple,60fe1a9d554d192b202ed74d,2021-11-03_11h26.25.850,forced_choiceRT_color,2021.2.3,MacIntel,59.84082341,,,,,,,,9,Ontime,long,k,1,1.9386,9,3,39,3,1,,,,,
,,,,,,,,,,,,60fe1a9d554d192b202ed74d,2021-11-03_11h26.25.850,forced_choiceRT_color,2021.2.3,MacIntel,59.84082341,,,,,,,,,,,,,,,,,,,8,0,8,0,1
,1.98,,,,,,,,,d,orange,60fe1a9d554d192b202ed74d,2021-11-03_11h26.25.850,forced_choiceRT_color,2021.2.3,MacIntel,59.84082341,,,,,,,,10,Ontime,long,j,0,1.955,0,0,0,0,1,,,,,
,0.99,,,,,,,,,d,orange,60fe1a9d554d192b202ed74d,2021-11-03_11h26.25.850,forced_choiceRT_color,2021.2.3,MacIntel,59.84082341,,,,,,,,10,Fast,long,d,1,1.8764,0,1,1,0,1,,,,,
,0.37,,,,,,,,,j,red,60fe1a9d554d192b202ed74d,2021-11-03_11h26.25.850,forced_choiceRT_color,2021.2.3,MacIntel,59.84082341,,,,,,,,10,Ontime,long,j,1,1.9902,0,2,2,2,1,,,,,
,0.93,,,,,,,,,j,red,60fe1a9d554d192b202ed74d,2021-11-03_11h26.25.850,forced_choiceRT_color,2021.2.3,MacIntel,59.84082341,,,,,,,,10,Ontime,long,j,1,1.9606,0,3,3,2,1,,,,,
,1.77,,,,,,,,,j,red,60fe1a9d554d192b202ed74d,2021-11-03_11h26.25.850,forced_choiceRT_color,2021.2.3,MacIntel,59.84082341,,,,,,,,10,Ontime,long,k,0,1.9314,1,0,4,2,1,,,,,
,0.79,,,,,,,,,d,orange,60fe1a9d554d192b202ed74d,2021-11-03_11h26.25.850,forced_choiceRT_color,2021.2.3,MacIntel,59.84082341,,,,,,,,10,Ontime,long,d,1,2.014,1,1,5,0,1,,,,,
,0.95,,,,,,,,,k,purple,60fe1a9d554d192b202ed74d,2021-11-03_11h26.25.850,forced_choiceRT_color,2021.2.3,MacIntel,59.84082341,,,,,,,,10,Fast,long,k,1,1.7953,1,2,6,3,1,,,,,
,1.47,,,,,,,,,f,blue,60fe1a9d554d192b202ed74d,2021-11-03_11h26.25.850,forced_choiceRT_color,2021.2.3,MacIntel,59.84082341,,,,,,,,10,Fast,long,j,0,1.8734,1,3,7,1,1,,,,,
,1.78,,,,,,,,,j,red,60fe1a9d554d192b202ed74d,2021-11-03_11h26.25.850,forced_choiceRT_color,2021.2.3,MacIntel,59.84082341,,,,,,,,10,Fast,long,k,0,1.8887,2,0,8,2,1,,,,,
,1.17,,,,,,,,,k,purple,60fe1a9d554d192b202ed74d,2021-11-03_11h26.25.850,forced_choiceRT_color,2021.2.3,MacIntel,59.84082341,,,,,,,,10,Fast,long,k,1,1.7933,2,1,9,3,1,,,,,
,1.4,,,,,,,,,f,blue,60fe1a9d554d192b202ed74d,2021-11-03_11h26.25.850,forced_choiceRT_color,2021.2.3,MacIntel,59.84082341,,,,,,,,10,Ontime,long,j,0,1.9493,2,2,10,1,1,,,,,
,1.76,,,,,,,,,f,blue,60fe1a9d554d192b202ed74d,2021-11-03_11h26.25.850,forced_choiceRT_color,2021.2.3,MacIntel,59.84082341,,,,,,,,10,Fast,long,d,0,1.8328,2,3,11,1,1,,,,,
,0.28,,,,,,,,,d,orange,60fe1a9d554d192b202ed74d,2021-11-03_11h26.25.850,forced_choiceRT_color,2021.2.3,MacIntel,59.84082341,,,,,,,,10,Fast,long,d,1,1.8809,3,0,12,0,1,,,,,
,0.74,,,,,,,,,f,blue,60fe1a9d554d192b202ed74d,2021-11-03_11h26.25.850,forced_choiceRT_color,2021.2.3,MacIntel,59.84082341,,,,,,,,10,Ontime,long,j,0,1.9794,3,1,13,1,1,,,,,
,1.24,,,,,,,,,d,orange,60fe1a9d554d192b202ed74d,2021-11-03_11h26.25.850,forced_choiceRT_color,2021.2.3,MacIntel,59.84082341,,,,,,,,10,Ontime,long,d,1,1.9926,3,2,14,0,1,,,,,
,1.28,,,,,,,,,d,orange,60fe1a9d554d192b202ed74d,2021-11-03_11h26.25.850,forced_choiceRT_color,2021.2.3,MacIntel,59.84082341,,,,,,,,10,Ontime,long,d,1,1.945,3,3,15,0,1,,,,,
,0.11,,,,,,,,,j,red,60fe1a9d554d192b202ed74d,2021-11-03_11h26.25.850,forced_choiceRT_color,2021.2.3,MacIntel,59.84082341,,,,,,,,10,Ontime,long,j,1,1.928,4,0,16,2,1,,,,,
,0.13,,,,,,,,,j,red,60fe1a9d554d192b202ed74d,2021-11-03_11h26.25.850,forced_choiceRT_color,2021.2.3,MacIntel,59.84082341,,,,,,,,10,Ontime,long,j,1,2.0057,4,1,17,2,1,,,,,
,0.84,,,,,,,,,j,red,60fe1a9d554d192b202ed74d,2021-11-03_11h26.25.850,forced_choiceRT_color,2021.2.3,MacIntel,59.84082341,,,,,,,,10,Ontime,long,j,1,1.9622,4,2,18,2,1,,,,,
,1.67,,,,,,,,,k,purple,60fe1a9d554d192b202ed74d,2021-11-03_11h26.25.850,forced_choiceRT_color,2021.2.3,MacIntel,59.84082341,,,,,,,,10,Ontime,long,k,1,1.9064,4,3,19,3,1,,,,,
,0.25,,,,,,,,,k,purple,60fe1a9d554d192b202ed74d,2021-11-03_11h26.25.850,forced_choiceRT_color,2021.2.3,MacIntel,59.84082341,,,,,,,,10,Ontime,long,k,1,1.9728,5,0,20,3,1,,,,,
,1.76,,,,,,,,,f,blue,60fe1a9d554d192b202ed74d,2021-11-03_11h26.25.850,forced_choiceRT_color,2021.2.3,MacIntel,59.84082341,,,,,,,,10,Ontime,long,k,0,1.9097,5,1,21,1,1,,,,,
,1.33,,,,,,,,,k,purple,60fe1a9d554d192b202ed74d,2021-11-03_11h26.25.850,forced_choiceRT_color,2021.2.3,MacIntel,59.84082341,,,,,,,,10,Ontime,long,k,1,1.9734,5,2,22,3,1,,,,,
,1.19,,,,,,,,,d,orange,60fe1a9d554d192b202ed74d,2021-11-03_11h26.25.850,forced_choiceRT_color,2021.2.3,MacIntel,59.84082341,,,,,,,,10,Ontime,long,d,1,1.9597,5,3,23,0,1,,,,,
,0.18,,,,,,,,,d,orange,60fe1a9d554d192b202ed74d,2021-11-03_11h26.25.850,forced_choiceRT_color,2021.2.3,MacIntel,59.84082341,,,,,,,,10,Ontime,long,d,1,2.0267,6,0,24,0,1,,,,,
,1.09,,,,,,,,,k,purple,60fe1a9d554d192b202ed74d,2021-11-03_11h26.25.850,forced_choiceRT_color,2021.2.3,MacIntel,59.84082341,,,,,,,,10,Ontime,long,k,1,2.0223,6,1,25,3,1,,,,,
,1.33,,,,,,,,,j,red,60fe1a9d554d192b202ed74d,2021-11-03_11h26.25.850,forced_choiceRT_color,2021.2.3,MacIntel,59.84082341,,,,,,,,10,Slow,long,j,1,2.1234,6,2,26,2,1,,,,,
,0.39,,,,,,,,,f,blue,60fe1a9d554d192b202ed74d,2021-11-03_11h26.25.850,forced_choiceRT_color,2021.2.3,MacIntel,59.84082341,,,,,,,,10,Slow,long,f,1,2.1108,6,3,27,1,1,,,,,
,0.39,,,,,,,,,k,purple,60fe1a9d554d192b202ed74d,2021-11-03_11h26.25.850,forced_choiceRT_color,2021.2.3,MacIntel,59.84082341,,,,,,,,10,Ontime,long,k,1,1.9162,7,0,28,3,1,,,,,
,1.4,,,,,,,,,d,orange,60fe1a9d554d192b202ed74d,2021-11-03_11h26.25.850,forced_choiceRT_color,2021.2.3,MacIntel,59.84082341,,,,,,,,10,Fast,long,d,1,1.8773,7,1,29,0,1,,,,,
,0.86,,,,,,,,,k,purple,60fe1a9d554d192b202ed74d,2021-11-03_11h26.25.850,forced_choiceRT_color,2021.2.3,MacIntel,59.84082341,,,,,,,,10,Ontime,long,k,1,1.9604,7,2,30,3,1,,,,,
,0.92,,,,,,,,,f,blue,60fe1a9d554d192b202ed74d,2021-11-03_11h26.25.850,forced_choiceRT_color,2021.2.3,MacIntel,59.84082341,,,,,,,,10,Ontime,long,f,1,2.0222,7,3,31,1,1,,,,,
,1.93,,,,,,,,,d,orange,60fe1a9d554d192b202ed74d,2021-11-03_11h26.25.850,forced_choiceRT_color,2021.2.3,MacIntel,59.84082341,,,,,,,,10,Ontime,long,d,1,1.9228,8,0,32,0,1,,,,,
,1.33,,,,,,,,,j,red,60fe1a9d554d192b202ed74d,2021-11-03_11h26.25.850,forced_choiceRT_color,2021.2.3,MacIntel,59.84082341,,,,,,,,10,Slow,long,j,1,2.1578,8,1,33,2,1,,,,,
,1.4,,,,,,,,,f,blue,60fe1a9d554d192b202ed74d,2021-11-03_11h26.25.850,forced_choiceRT_color,2021.2.3,MacIntel,59.84082341,,,,,,,,10,Ontime,long,f,1,1.9626,8,2,34,1,1,,,,,
,1.9,,,,,,,,,k,purple,60fe1a9d554d192b202ed74d,2021-11-03_11h26.25.850,forced_choiceRT_color,2021.2.3,MacIntel,59.84082341,,,,,,,,10,Ontime,long,d,0,1.9905,8,3,35,3,1,,,,,
,1.32,,,,,,,,,f,blue,60fe1a9d554d192b202ed74d,2021-11-03_11h26.25.850,forced_choiceRT_color,2021.2.3,MacIntel,59.84082341,,,,,,,,10,Fast,long,f,1,1.8758,9,0,36,1,1,,,,,
,0.42,,,,,,,,,f,blue,60fe1a9d554d192b202ed74d,2021-11-03_11h26.25.850,forced_choiceRT_color,2021.2.3,MacIntel,59.84082341,,,,,,,,10,Ontime,long,f,1,1.9413,9,1,37,1,1,,,,,
,1.66,,,,,,,,,k,purple,60fe1a9d554d192b202ed74d,2021-11-03_11h26.25.850,forced_choiceRT_color,2021.2.3,MacIntel,59.84082341,,,,,,,,10,Ontime,long,j,0,2.0028,9,2,38,3,1,,,,,
,1.38,,,,,,,,,j,red,60fe1a9d554d192b202ed74d,2021-11-03_11h26.25.850,forced_choiceRT_color,2021.2.3,MacIntel,59.84082341,,,,,,,,10,Ontime,long,j,1,1.9676,9,3,39,2,1,,,,,
,,,,,,,,,,,,60fe1a9d554d192b202ed74d,2021-11-03_11h26.25.850,forced_choiceRT_color,2021.2.3,MacIntel,59.84082341,,,,,,,,,,,,,,,,,,,9,0,9,0,1
