IP_Addresss,target_onset,trial_resp_sp.keys,trial_resp_sp.corr,trial_resp_sp.rt,trials_train_loop.thisRepN,trials_train_loop.thisTrialN,trials_train_loop.thisN,trials_train_loop.thisIndex,trials_train_loop.ran,correct_key,color,participant,date,expName,psychopyVersion,OS,frameRate,trial_resp_timing.keys,trial_resp_timing.rt,trials_train_timing.thisRepN,trials_train_timing.thisTrialN,trials_train_timing.thisN,trials_train_timing.thisIndex,trials_train_timing.ran,block_id,ontime,feedback_cond,forcedRT_resp.keys,forcedRT_resp.corr,forcedRT_resp.rt,trials.thisRepN,trials.thisTrialN,trials.thisN,trials.thisIndex,trials.ran,blocks.thisRepN,blocks.thisTrialN,blocks.thisN,blocks.thisIndex,blocks.ran
172.11.243.101,0,d,1,3.1754,0,0,0,0,1,d,orange,610041aee58af3bd8a5a7478,2021-10-22_12h50.39.415,forced_choiceRT_color,2021.2.3,Win32,59.1401029,,,,,,,,,,,,,,,,,,,,,,,
,0,d,1,0.6844,0,1,1,0,1,d,orange,610041aee58af3bd8a5a7478,2021-10-22_12h50.39.415,forced_choiceRT_color,2021.2.3,Win32,59.1401029,,,,,,,,,,,,,,,,,,,,,,,
,0,d,1,0.4042,0,2,2,0,1,d,orange,610041aee58af3bd8a5a7478,2021-10-22_12h50.39.415,forced_choiceRT_color,2021.2.3,Win32,59.1401029,,,,,,,,,,,,,,,,,,,,,,,
,0,f,1,0.6565,0,3,3,1,1,f,blue,610041aee58af3bd8a5a7478,2021-10-22_12h50.39.415,forced_choiceRT_color,2021.2.3,Win32,59.1401029,,,,,,,,,,,,,,,,,,,,,,,
,0,j,1,0.5339,1,0,4,2,1,j,red,610041aee58af3bd8a5a7478,2021-10-22_12h50.39.415,forced_choiceRT_color,2021.2.3,Win32,59.1401029,,,,,,,,,,,,,,,,,,,,,,,
,0,d,1,0.5768,1,1,5,0,1,d,orange,610041aee58af3bd8a5a7478,2021-10-22_12h50.39.415,forced_choiceRT_color,2021.2.3,Win32,59.1401029,,,,,,,,,,,,,,,,,,,,,,,
,0,d,1,0.4621,1,2,6,0,1,d,orange,610041aee58af3bd8a5a7478,2021-10-22_12h50.39.415,forced_choiceRT_color,2021.2.3,Win32,59.1401029,,,,,,,,,,,,,,,,,,,,,,,
,0,k,1,0.5841,1,3,7,3,1,k,purple,610041aee58af3bd8a5a7478,2021-10-22_12h50.39.415,forced_choiceRT_color,2021.2.3,Win32,59.1401029,,,,,,,,,,,,,,,,,,,,,,,
,0,d,1,0.5506,2,0,8,0,1,d,orange,610041aee58af3bd8a5a7478,2021-10-22_12h50.39.415,forced_choiceRT_color,2021.2.3,Win32,59.1401029,,,,,,,,,,,,,,,,,,,,,,,
,0,k,1,0.6647,2,1,9,3,1,k,purple,610041aee58af3bd8a5a7478,2021-10-22_12h50.39.415,forced_choiceRT_color,2021.2.3,Win32,59.1401029,,,,,,,,,,,,,,,,,,,,,,,
,0,j,1,0.5907,2,2,10,2,1,j,red,610041aee58af3bd8a5a7478,2021-10-22_12h50.39.415,forced_choiceRT_color,2021.2.3,Win32,59.1401029,,,,,,,,,,,,,,,,,,,,,,,
,0,f,1,0.4346,2,3,11,1,1,f,blue,610041aee58af3bd8a5a7478,2021-10-22_12h50.39.415,forced_choiceRT_color,2021.2.3,Win32,59.1401029,,,,,,,,,,,,,,,,,,,,,,,
,0,f,1,0.5505,3,0,12,1,1,f,blue,610041aee58af3bd8a5a7478,2021-10-22_12h50.39.415,forced_choiceRT_color,2021.2.3,Win32,59.1401029,,,,,,,,,,,,,,,,,,,,,,,
,0,f,1,0.5241,3,1,13,1,1,f,blue,610041aee58af3bd8a5a7478,2021-10-22_12h50.39.415,forced_choiceRT_color,2021.2.3,Win32,59.1401029,,,,,,,,,,,,,,,,,,,,,,,
,0,j,1,0.7525,3,2,14,2,1,j,red,610041aee58af3bd8a5a7478,2021-10-22_12h50.39.415,forced_choiceRT_color,2021.2.3,Win32,59.1401029,,,,,,,,,,,,,,,,,,,,,,,
,0,j,1,0.4299,3,3,15,2,1,j,red,610041aee58af3bd8a5a7478,2021-10-22_12h50.39.415,forced_choiceRT_color,2021.2.3,Win32,59.1401029,,,,,,,,,,,,,,,,,,,,,,,
,0,f,1,0.674,4,0,16,1,1,f,blue,610041aee58af3bd8a5a7478,2021-10-22_12h50.39.415,forced_choiceRT_color,2021.2.3,Win32,59.1401029,,,,,,,,,,,,,,,,,,,,,,,
,0,d,1,0.4437,4,1,17,0,1,d,orange,610041aee58af3bd8a5a7478,2021-10-22_12h50.39.415,forced_choiceRT_color,2021.2.3,Win32,59.1401029,,,,,,,,,,,,,,,,,,,,,,,
,0,k,1,0.6005,4,2,18,3,1,k,purple,610041aee58af3bd8a5a7478,2021-10-22_12h50.39.415,forced_choiceRT_color,2021.2.3,Win32,59.1401029,,,,,,,,,,,,,,,,,,,,,,,
,0,k,1,0.5007,4,3,19,3,1,k,purple,610041aee58af3bd8a5a7478,2021-10-22_12h50.39.415,forced_choiceRT_color,2021.2.3,Win32,59.1401029,,,,,,,,,,,,,,,,,,,,,,,
,0,k,1,0.5185,5,0,20,3,1,k,purple,610041aee58af3bd8a5a7478,2021-10-22_12h50.39.415,forced_choiceRT_color,2021.2.3,Win32,59.1401029,,,,,,,,,,,,,,,,,,,,,,,
,0,d,1,0.5393,5,1,21,0,1,d,orange,610041aee58af3bd8a5a7478,2021-10-22_12h50.39.415,forced_choiceRT_color,2021.2.3,Win32,59.1401029,,,,,,,,,,,,,,,,,,,,,,,
,0,j,1,0.8605,5,2,22,2,1,j,red,610041aee58af3bd8a5a7478,2021-10-22_12h50.39.415,forced_choiceRT_color,2021.2.3,Win32,59.1401029,,,,,,,,,,,,,,,,,,,,,,,
,0,f,1,0.4338,5,3,23,1,1,f,blue,610041aee58af3bd8a5a7478,2021-10-22_12h50.39.415,forced_choiceRT_color,2021.2.3,Win32,59.1401029,,,,,,,,,,,,,,,,,,,,,,,
,0,f,1,0.4012,6,0,24,1,1,f,blue,610041aee58af3bd8a5a7478,2021-10-22_12h50.39.415,forced_choiceRT_color,2021.2.3,Win32,59.1401029,,,,,,,,,,,,,,,,,,,,,,,
,0,f,1,0.4672,6,1,25,1,1,f,blue,610041aee58af3bd8a5a7478,2021-10-22_12h50.39.415,forced_choiceRT_color,2021.2.3,Win32,59.1401029,,,,,,,,,,,,,,,,,,,,,,,
,0,k,1,0.4896,6,2,26,3,1,k,purple,610041aee58af3bd8a5a7478,2021-10-22_12h50.39.415,forced_choiceRT_color,2021.2.3,Win32,59.1401029,,,,,,,,,,,,,,,,,,,,,,,
,0,d,1,0.4031,6,3,27,0,1,d,orange,610041aee58af3bd8a5a7478,2021-10-22_12h50.39.415,forced_choiceRT_color,2021.2.3,Win32,59.1401029,,,,,,,,,,,,,,,,,,,,,,,
,0,j,1,0.5502,7,0,28,2,1,j,red,610041aee58af3bd8a5a7478,2021-10-22_12h50.39.415,forced_choiceRT_color,2021.2.3,Win32,59.1401029,,,,,,,,,,,,,,,,,,,,,,,
,0,f,1,0.3562,7,1,29,1,1,f,blue,610041aee58af3bd8a5a7478,2021-10-22_12h50.39.415,forced_choiceRT_color,2021.2.3,Win32,59.1401029,,,,,,,,,,,,,,,,,,,,,,,
,0,j,1,0.5127,7,2,30,2,1,j,red,610041aee58af3bd8a5a7478,2021-10-22_12h50.39.415,forced_choiceRT_color,2021.2.3,Win32,59.1401029,,,,,,,,,,,,,,,,,,,,,,,
,0,k,1,0.4889,7,3,31,3,1,k,purple,610041aee58af3bd8a5a7478,2021-10-22_12h50.39.415,forced_choiceRT_color,2021.2.3,Win32,59.1401029,,,,,,,,,,,,,,,,,,,,,,,
,0,j,1,0.6673,8,0,32,2,1,j,red,610041aee58af3bd8a5a7478,2021-10-22_12h50.39.415,forced_choiceRT_color,2021.2.3,Win32,59.1401029,,,,,,,,,,,,,,,,,,,,,,,
,0,k,1,0.5508,8,1,33,3,1,k,purple,610041aee58af3bd8a5a7478,2021-10-22_12h50.39.415,forced_choiceRT_color,2021.2.3,Win32,59.1401029,,,,,,,,,,,,,,,,,,,,,,,
,0,k,1,0.4505,8,2,34,3,1,k,purple,610041aee58af3bd8a5a7478,2021-10-22_12h50.39.415,forced_choiceRT_color,2021.2.3,Win32,59.1401029,,,,,,,,,,,,,,,,,,,,,,,
,0,d,1,0.5675,8,3,35,0,1,d,orange,610041aee58af3bd8a5a7478,2021-10-22_12h50.39.415,forced_choiceRT_color,2021.2.3,Win32,59.1401029,,,,,,,,,,,,,,,,,,,,,,,
,0,d,1,0.5178,9,0,36,0,1,d,orange,610041aee58af3bd8a5a7478,2021-10-22_12h50.39.415,forced_choiceRT_color,2021.2.3,Win32,59.1401029,,,,,,,,,,,,,,,,,,,,,,,
,0,j,1,0.56,9,1,37,2,1,j,red,610041aee58af3bd8a5a7478,2021-10-22_12h50.39.415,forced_choiceRT_color,2021.2.3,Win32,59.1401029,,,,,,,,,,,,,,,,,,,,,,,
,0,d,1,0.5216,9,2,38,0,1,d,orange,610041aee58af3bd8a5a7478,2021-10-22_12h50.39.415,forced_choiceRT_color,2021.2.3,Win32,59.1401029,,,,,,,,,,,,,,,,,,,,,,,
,0,d,1,0.4962,9,3,39,0,1,d,orange,610041aee58af3bd8a5a7478,2021-10-22_12h50.39.415,forced_choiceRT_color,2021.2.3,Win32,59.1401029,,,,,,,,,,,,,,,,,,,,,,,
,0,f,1,0.5004,10,0,40,1,1,f,blue,610041aee58af3bd8a5a7478,2021-10-22_12h50.39.415,forced_choiceRT_color,2021.2.3,Win32,59.1401029,,,,,,,,,,,,,,,,,,,,,,,
,0,f,1,0.5506,10,1,41,1,1,f,blue,610041aee58af3bd8a5a7478,2021-10-22_12h50.39.415,forced_choiceRT_color,2021.2.3,Win32,59.1401029,,,,,,,,,,,,,,,,,,,,,,,
,0,k,1,0.4783,10,2,42,3,1,k,purple,610041aee58af3bd8a5a7478,2021-10-22_12h50.39.415,forced_choiceRT_color,2021.2.3,Win32,59.1401029,,,,,,,,,,,,,,,,,,,,,,,
,0,k,1,0.4041,10,3,43,3,1,k,purple,610041aee58af3bd8a5a7478,2021-10-22_12h50.39.415,forced_choiceRT_color,2021.2.3,Win32,59.1401029,,,,,,,,,,,,,,,,,,,,,,,
,0,j,1,0.545,11,0,44,2,1,j,red,610041aee58af3bd8a5a7478,2021-10-22_12h50.39.415,forced_choiceRT_color,2021.2.3,Win32,59.1401029,,,,,,,,,,,,,,,,,,,,,,,
,0,k,1,0.4781,11,1,45,3,1,k,purple,610041aee58af3bd8a5a7478,2021-10-22_12h50.39.415,forced_choiceRT_color,2021.2.3,Win32,59.1401029,,,,,,,,,,,,,,,,,,,,,,,
,0,d,1,0.5002,11,2,46,0,1,d,orange,610041aee58af3bd8a5a7478,2021-10-22_12h50.39.415,forced_choiceRT_color,2021.2.3,Win32,59.1401029,,,,,,,,,,,,,,,,,,,,,,,
,0,j,1,0.4516,11,3,47,2,1,j,red,610041aee58af3bd8a5a7478,2021-10-22_12h50.39.415,forced_choiceRT_color,2021.2.3,Win32,59.1401029,,,,,,,,,,,,,,,,,,,,,,,
,0,d,1,0.6171,12,0,48,0,1,d,orange,610041aee58af3bd8a5a7478,2021-10-22_12h50.39.415,forced_choiceRT_color,2021.2.3,Win32,59.1401029,,,,,,,,,,,,,,,,,,,,,,,
,0,j,1,0.5293,12,1,49,2,1,j,red,610041aee58af3bd8a5a7478,2021-10-22_12h50.39.415,forced_choiceRT_color,2021.2.3,Win32,59.1401029,,,,,,,,,,,,,,,,,,,,,,,
,0,j,1,0.454,12,2,50,2,1,j,red,610041aee58af3bd8a5a7478,2021-10-22_12h50.39.415,forced_choiceRT_color,2021.2.3,Win32,59.1401029,,,,,,,,,,,,,,,,,,,,,,,
,0,k,1,0.4838,12,3,51,3,1,k,purple,610041aee58af3bd8a5a7478,2021-10-22_12h50.39.415,forced_choiceRT_color,2021.2.3,Win32,59.1401029,,,,,,,,,,,,,,,,,,,,,,,
,0,j,1,0.6005,13,0,52,2,1,j,red,610041aee58af3bd8a5a7478,2021-10-22_12h50.39.415,forced_choiceRT_color,2021.2.3,Win32,59.1401029,,,,,,,,,,,,,,,,,,,,,,,
,0,f,1,0.5337,13,1,53,1,1,f,blue,610041aee58af3bd8a5a7478,2021-10-22_12h50.39.415,forced_choiceRT_color,2021.2.3,Win32,59.1401029,,,,,,,,,,,,,,,,,,,,,,,
,0,k,1,0.4793,13,2,54,3,1,k,purple,610041aee58af3bd8a5a7478,2021-10-22_12h50.39.415,forced_choiceRT_color,2021.2.3,Win32,59.1401029,,,,,,,,,,,,,,,,,,,,,,,
,0,f,1,0.684,13,3,55,1,1,f,blue,610041aee58af3bd8a5a7478,2021-10-22_12h50.39.415,forced_choiceRT_color,2021.2.3,Win32,59.1401029,,,,,,,,,,,,,,,,,,,,,,,
,0,f,1,0.4003,14,0,56,1,1,f,blue,610041aee58af3bd8a5a7478,2021-10-22_12h50.39.415,forced_choiceRT_color,2021.2.3,Win32,59.1401029,,,,,,,,,,,,,,,,,,,,,,,
,0,f,1,0.4172,14,1,57,1,1,f,blue,610041aee58af3bd8a5a7478,2021-10-22_12h50.39.415,forced_choiceRT_color,2021.2.3,Win32,59.1401029,,,,,,,,,,,,,,,,,,,,,,,
,0,j,1,0.5402,14,2,58,2,1,j,red,610041aee58af3bd8a5a7478,2021-10-22_12h50.39.415,forced_choiceRT_color,2021.2.3,Win32,59.1401029,,,,,,,,,,,,,,,,,,,,,,,
,0,k,1,0.4636,14,3,59,3,1,k,purple,610041aee58af3bd8a5a7478,2021-10-22_12h50.39.415,forced_choiceRT_color,2021.2.3,Win32,59.1401029,,,,,,,,,,,,,,,,,,,,,,,
,,,,,,,,,,,,610041aee58af3bd8a5a7478,2021-10-22_12h50.39.415,forced_choiceRT_color,2021.2.3,Win32,59.1401029,k,2.334,0,0,0,0,1,,,,,,,,,,,,,,,,
,,,,,,,,,,,,610041aee58af3bd8a5a7478,2021-10-22_12h50.39.415,forced_choiceRT_color,2021.2.3,Win32,59.1401029,k,1.7262,1,0,1,0,1,,,,,,,,,,,,,,,,
,,,,,,,,,,,,610041aee58af3bd8a5a7478,2021-10-22_12h50.39.415,forced_choiceRT_color,2021.2.3,Win32,59.1401029,k,2.0283,2,0,2,0,1,,,,,,,,,,,,,,,,
,,,,,,,,,,,,610041aee58af3bd8a5a7478,2021-10-22_12h50.39.415,forced_choiceRT_color,2021.2.3,Win32,59.1401029,k,1.7675,3,0,3,0,1,,,,,,,,,,,,,,,,
,,,,,,,,,,,,610041aee58af3bd8a5a7478,2021-10-22_12h50.39.415,forced_choiceRT_color,2021.2.3,Win32,59.1401029,k,2.1948,4,0,4,0,1,,,,,,,,,,,,,,,,
,,,,,,,,,,,,610041aee58af3bd8a5a7478,2021-10-22_12h50.39.415,forced_choiceRT_color,2021.2.3,Win32,59.1401029,k,2.0549,5,0,5,0,1,,,,,,,,,,,,,,,,
,,,,,,,,,,,,610041aee58af3bd8a5a7478,2021-10-22_12h50.39.415,forced_choiceRT_color,2021.2.3,Win32,59.1401029,k,1.8747,6,0,6,0,1,,,,,,,,,,,,,,,,
,,,,,,,,,,,,610041aee58af3bd8a5a7478,2021-10-22_12h50.39.415,forced_choiceRT_color,2021.2.3,Win32,59.1401029,k,1.9634,7,0,7,0,1,,,,,,,,,,,,,,,,
,,,,,,,,,,,,610041aee58af3bd8a5a7478,2021-10-22_12h50.39.415,forced_choiceRT_color,2021.2.3,Win32,59.1401029,k,2.0607,8,0,8,0,1,,,,,,,,,,,,,,,,
,,,,,,,,,,,,610041aee58af3bd8a5a7478,2021-10-22_12h50.39.415,forced_choiceRT_color,2021.2.3,Win32,59.1401029,k,1.8261,9,0,9,0,1,,,,,,,,,,,,,,,,
,,,,,,,,,,,,610041aee58af3bd8a5a7478,2021-10-22_12h50.39.415,forced_choiceRT_color,2021.2.3,Win32,59.1401029,k,1.9237,10,0,10,0,1,,,,,,,,,,,,,,,,
,,,,,,,,,,,,610041aee58af3bd8a5a7478,2021-10-22_12h50.39.415,forced_choiceRT_color,2021.2.3,Win32,59.1401029,k,1.9602,11,0,11,0,1,,,,,,,,,,,,,,,,
,,,,,,,,,,,,610041aee58af3bd8a5a7478,2021-10-22_12h50.39.415,forced_choiceRT_color,2021.2.3,Win32,59.1401029,k,1.9542,12,0,12,0,1,,,,,,,,,,,,,,,,
,,,,,,,,,,,,610041aee58af3bd8a5a7478,2021-10-22_12h50.39.415,forced_choiceRT_color,2021.2.3,Win32,59.1401029,k,1.9734,13,0,13,0,1,,,,,,,,,,,,,,,,
,,,,,,,,,,,,610041aee58af3bd8a5a7478,2021-10-22_12h50.39.415,forced_choiceRT_color,2021.2.3,Win32,59.1401029,k,1.8906,14,0,14,0,1,,,,,,,,,,,,,,,,
,,,,,,,,,,,,610041aee58af3bd8a5a7478,2021-10-22_12h50.39.415,forced_choiceRT_color,2021.2.3,Win32,59.1401029,k,2.0598,15,0,15,0,1,,,,,,,,,,,,,,,,
,,,,,,,,,,,,610041aee58af3bd8a5a7478,2021-10-22_12h50.39.415,forced_choiceRT_color,2021.2.3,Win32,59.1401029,k,2.1441,16,0,16,0,1,,,,,,,,,,,,,,,,
,,,,,,,,,,,,610041aee58af3bd8a5a7478,2021-10-22_12h50.39.415,forced_choiceRT_color,2021.2.3,Win32,59.1401029,k,2.06,17,0,17,0,1,,,,,,,,,,,,,,,,
,,,,,,,,,,,,610041aee58af3bd8a5a7478,2021-10-22_12h50.39.415,forced_choiceRT_color,2021.2.3,Win32,59.1401029,k,1.9086,18,0,18,0,1,,,,,,,,,,,,,,,,
,,,,,,,,,,,,610041aee58af3bd8a5a7478,2021-10-22_12h50.39.415,forced_choiceRT_color,2021.2.3,Win32,59.1401029,k,2.0009,19,0,19,0,1,,,,,,,,,,,,,,,,
,0.66,,,,,,,,,k,purple,610041aee58af3bd8a5a7478,2021-10-22_12h50.39.415,forced_choiceRT_color,2021.2.3,Win32,59.1401029,,,,,,,,1,Ontime,short,k,1,1.9937,0,0,0,3,1,,,,,
,1.21,,,,,,,,,k,purple,610041aee58af3bd8a5a7478,2021-10-22_12h50.39.415,forced_choiceRT_color,2021.2.3,Win32,59.1401029,,,,,,,,1,Ontime,short,k,1,1.9361,0,1,1,3,1,,,,,
,0.59,,,,,,,,,j,red,610041aee58af3bd8a5a7478,2021-10-22_12h50.39.415,forced_choiceRT_color,2021.2.3,Win32,59.1401029,,,,,,,,1,Ontime,short,j,1,2.0583,0,2,2,2,1,,,,,
,0.7,,,,,,,,,k,purple,610041aee58af3bd8a5a7478,2021-10-22_12h50.39.415,forced_choiceRT_color,2021.2.3,Win32,59.1401029,,,,,,,,1,Ontime,short,k,1,2.0506,0,3,3,3,1,,,,,
,1.32,,,,,,,,,d,orange,610041aee58af3bd8a5a7478,2021-10-22_12h50.39.415,forced_choiceRT_color,2021.2.3,Win32,59.1401029,,,,,,,,1,Slow,short,d,1,2.1012,1,0,4,0,1,,,,,
,1.66,,,,,,,,,f,blue,610041aee58af3bd8a5a7478,2021-10-22_12h50.39.415,forced_choiceRT_color,2021.2.3,Win32,59.1401029,,,,,,,,1,Ontime,short,d,0,2.0011,1,1,5,1,1,,,,,
,0.78,,,,,,,,,f,blue,610041aee58af3bd8a5a7478,2021-10-22_12h50.39.415,forced_choiceRT_color,2021.2.3,Win32,59.1401029,,,,,,,,1,Ontime,short,f,1,1.9678,1,2,6,1,1,,,,,
,1.8,,,,,,,,,j,red,610041aee58af3bd8a5a7478,2021-10-22_12h50.39.415,forced_choiceRT_color,2021.2.3,Win32,59.1401029,,,,,,,,1,Slow,short,k,0,2.299,1,3,7,2,1,,,,,
,0.5,,,,,,,,,j,red,610041aee58af3bd8a5a7478,2021-10-22_12h50.39.415,forced_choiceRT_color,2021.2.3,Win32,59.1401029,,,,,,,,1,Slow,short,j,1,2.1005,2,0,8,2,1,,,,,
,1.22,,,,,,,,,d,orange,610041aee58af3bd8a5a7478,2021-10-22_12h50.39.415,forced_choiceRT_color,2021.2.3,Win32,59.1401029,,,,,,,,1,Ontime,short,d,1,2.0672,2,1,9,0,1,,,,,
,1.11,,,,,,,,,j,red,610041aee58af3bd8a5a7478,2021-10-22_12h50.39.415,forced_choiceRT_color,2021.2.3,Win32,59.1401029,,,,,,,,1,Fast,short,j,1,1.8105,2,2,10,2,1,,,,,
,0.83,,,,,,,,,k,purple,610041aee58af3bd8a5a7478,2021-10-22_12h50.39.415,forced_choiceRT_color,2021.2.3,Win32,59.1401029,,,,,,,,1,Slow,short,k,1,2.1006,2,3,11,3,1,,,,,
,0.35,,,,,,,,,j,red,610041aee58af3bd8a5a7478,2021-10-22_12h50.39.415,forced_choiceRT_color,2021.2.3,Win32,59.1401029,,,,,,,,1,Ontime,short,j,1,1.9348,3,0,12,2,1,,,,,
,1.75,,,,,,,,,d,orange,610041aee58af3bd8a5a7478,2021-10-22_12h50.39.415,forced_choiceRT_color,2021.2.3,Win32,59.1401029,,,,,,,,1,Slow,short,j,0,2.1338,3,1,13,0,1,,,,,
,1.31,,,,,,,,,d,orange,610041aee58af3bd8a5a7478,2021-10-22_12h50.39.415,forced_choiceRT_color,2021.2.3,Win32,59.1401029,,,,,,,,1,Ontime,short,d,1,2.0069,3,2,14,0,1,,,,,
,1.5,,,,,,,,,d,orange,610041aee58af3bd8a5a7478,2021-10-22_12h50.39.415,forced_choiceRT_color,2021.2.3,Win32,59.1401029,,,,,,,,1,Slow,short,d,1,2.1004,3,3,15,0,1,,,,,
,1.47,,,,,,,,,f,blue,610041aee58af3bd8a5a7478,2021-10-22_12h50.39.415,forced_choiceRT_color,2021.2.3,Win32,59.1401029,,,,,,,,1,Slow,short,f,1,2.2053,4,0,16,1,1,,,,,
,1.01,,,,,,,,,f,blue,610041aee58af3bd8a5a7478,2021-10-22_12h50.39.415,forced_choiceRT_color,2021.2.3,Win32,59.1401029,,,,,,,,1,Ontime,short,f,1,2.0172,4,1,17,1,1,,,,,
,0.02,,,,,,,,,d,orange,610041aee58af3bd8a5a7478,2021-10-22_12h50.39.415,forced_choiceRT_color,2021.2.3,Win32,59.1401029,,,,,,,,1,Fast,short,d,1,1.8444,4,2,18,0,1,,,,,
,1.55,,,,,,,,,f,blue,610041aee58af3bd8a5a7478,2021-10-22_12h50.39.415,forced_choiceRT_color,2021.2.3,Win32,59.1401029,,,,,,,,1,Slow,short,f,1,2.2022,4,3,19,1,1,,,,,
,1.22,,,,,,,,,k,purple,610041aee58af3bd8a5a7478,2021-10-22_12h50.39.415,forced_choiceRT_color,2021.2.3,Win32,59.1401029,,,,,,,,1,Ontime,short,k,1,2.0005,5,0,20,3,1,,,,,
,1.23,,,,,,,,,f,blue,610041aee58af3bd8a5a7478,2021-10-22_12h50.39.415,forced_choiceRT_color,2021.2.3,Win32,59.1401029,,,,,,,,1,Fast,short,f,1,1.8244,5,1,21,1,1,,,,,
,1.68,,,,,,,,,j,red,610041aee58af3bd8a5a7478,2021-10-22_12h50.39.415,forced_choiceRT_color,2021.2.3,Win32,59.1401029,,,,,,,,1,Slow,short,j,1,3.05,5,2,22,2,1,,,,,
,0.91,,,,,,,,,f,blue,610041aee58af3bd8a5a7478,2021-10-22_12h50.39.415,forced_choiceRT_color,2021.2.3,Win32,59.1401029,,,,,,,,1,Ontime,short,f,1,2.0784,5,3,23,1,1,,,,,
,1.82,,,,,,,,,k,purple,610041aee58af3bd8a5a7478,2021-10-22_12h50.39.415,forced_choiceRT_color,2021.2.3,Win32,59.1401029,,,,,,,,1,Slow,short,f,0,2.2018,6,0,24,3,1,,,,,
,1.87,,,,,,,,,f,blue,610041aee58af3bd8a5a7478,2021-10-22_12h50.39.415,forced_choiceRT_color,2021.2.3,Win32,59.1401029,,,,,,,,1,Slow,short,f,1,2.2872,6,1,25,1,1,,,,,
,1.56,,,,,,,,,d,orange,610041aee58af3bd8a5a7478,2021-10-22_12h50.39.415,forced_choiceRT_color,2021.2.3,Win32,59.1401029,,,,,,,,1,Slow,short,f,0,2.1009,6,2,26,0,1,,,,,
,0.35,,,,,,,,,d,orange,610041aee58af3bd8a5a7478,2021-10-22_12h50.39.415,forced_choiceRT_color,2021.2.3,Win32,59.1401029,,,,,,,,1,Fast,short,d,1,1.8789,6,3,27,0,1,,,,,
,0.42,,,,,,,,,d,orange,610041aee58af3bd8a5a7478,2021-10-22_12h50.39.415,forced_choiceRT_color,2021.2.3,Win32,59.1401029,,,,,,,,1,Ontime,short,d,1,2.0928,7,0,28,0,1,,,,,
,0.89,,,,,,,,,f,blue,610041aee58af3bd8a5a7478,2021-10-22_12h50.39.415,forced_choiceRT_color,2021.2.3,Win32,59.1401029,,,,,,,,1,Ontime,short,f,1,2.0456,7,1,29,1,1,,,,,
,1.62,,,,,,,,,k,purple,610041aee58af3bd8a5a7478,2021-10-22_12h50.39.415,forced_choiceRT_color,2021.2.3,Win32,59.1401029,,,,,,,,1,Slow,short,k,1,2.2035,7,2,30,3,1,,,,,
,1.32,,,,,,,,,j,red,610041aee58af3bd8a5a7478,2021-10-22_12h50.39.415,forced_choiceRT_color,2021.2.3,Win32,59.1401029,,,,,,,,1,Fast,short,j,1,1.7776,7,3,31,2,1,,,,,
,0.53,,,,,,,,,d,orange,610041aee58af3bd8a5a7478,2021-10-22_12h50.39.415,forced_choiceRT_color,2021.2.3,Win32,59.1401029,,,,,,,,1,Ontime,short,d,1,1.9053,8,0,32,0,1,,,,,
,0.79,,,,,,,,,k,purple,610041aee58af3bd8a5a7478,2021-10-22_12h50.39.415,forced_choiceRT_color,2021.2.3,Win32,59.1401029,,,,,,,,1,Ontime,short,k,1,1.997,8,1,33,3,1,,,,,
,0.13,,,,,,,,,j,red,610041aee58af3bd8a5a7478,2021-10-22_12h50.39.415,forced_choiceRT_color,2021.2.3,Win32,59.1401029,,,,,,,,1,Ontime,short,j,1,1.9301,8,2,34,2,1,,,,,
,0.88,,,,,,,,,j,red,610041aee58af3bd8a5a7478,2021-10-22_12h50.39.415,forced_choiceRT_color,2021.2.3,Win32,59.1401029,,,,,,,,1,Ontime,short,j,1,1.9699,8,3,35,2,1,,,,,
,1.27,,,,,,,,,k,purple,610041aee58af3bd8a5a7478,2021-10-22_12h50.39.415,forced_choiceRT_color,2021.2.3,Win32,59.1401029,,,,,,,,1,Ontime,short,k,1,1.9301,9,0,36,3,1,,,,,
,1.12,,,,,,,,,k,purple,610041aee58af3bd8a5a7478,2021-10-22_12h50.39.415,forced_choiceRT_color,2021.2.3,Win32,59.1401029,,,,,,,,1,Ontime,short,k,1,2.0838,9,1,37,3,1,,,,,
,1.83,,,,,,,,,j,red,610041aee58af3bd8a5a7478,2021-10-22_12h50.39.415,forced_choiceRT_color,2021.2.3,Win32,59.1401029,,,,,,,,1,Slow,short,j,1,2.3358,9,2,38,2,1,,,,,
,0.16,,,,,,,,,f,blue,610041aee58af3bd8a5a7478,2021-10-22_12h50.39.415,forced_choiceRT_color,2021.2.3,Win32,59.1401029,,,,,,,,1,Ontime,short,f,1,1.9841,9,3,39,1,1,,,,,
,,,,,,,,,,,,610041aee58af3bd8a5a7478,2021-10-22_12h50.39.415,forced_choiceRT_color,2021.2.3,Win32,59.1401029,,,,,,,,,,,,,,,,,,,0,0,0,0,1
,1.1,,,,,,,,,d,orange,610041aee58af3bd8a5a7478,2021-10-22_12h50.39.415,forced_choiceRT_color,2021.2.3,Win32,59.1401029,,,,,,,,2,Ontime,short,d,1,1.9866,0,0,0,0,1,,,,,
,1.42,,,,,,,,,j,red,610041aee58af3bd8a5a7478,2021-10-22_12h50.39.415,forced_choiceRT_color,2021.2.3,Win32,59.1401029,,,,,,,,2,Slow,short,j,1,2.1171,0,1,1,2,1,,,,,
,0.61,,,,,,,,,f,blue,610041aee58af3bd8a5a7478,2021-10-22_12h50.39.415,forced_choiceRT_color,2021.2.3,Win32,59.1401029,,,,,,,,2,Fast,short,f,1,1.8512,0,2,2,1,1,,,,,
,1.45,,,,,,,,,k,purple,610041aee58af3bd8a5a7478,2021-10-22_12h50.39.415,forced_choiceRT_color,2021.2.3,Win32,59.1401029,,,,,,,,2,Ontime,short,k,1,2.092,0,3,3,3,1,,,,,
,0.78,,,,,,,,,k,purple,610041aee58af3bd8a5a7478,2021-10-22_12h50.39.415,forced_choiceRT_color,2021.2.3,Win32,59.1401029,,,,,,,,2,Ontime,short,k,1,1.9673,1,0,4,3,1,,,,,
,0.95,,,,,,,,,d,orange,610041aee58af3bd8a5a7478,2021-10-22_12h50.39.415,forced_choiceRT_color,2021.2.3,Win32,59.1401029,,,,,,,,2,Ontime,short,d,1,1.995,1,1,5,0,1,,,,,
,0.51,,,,,,,,,j,red,610041aee58af3bd8a5a7478,2021-10-22_12h50.39.415,forced_choiceRT_color,2021.2.3,Win32,59.1401029,,,,,,,,2,Ontime,short,j,1,1.9505,1,2,6,2,1,,,,,
,1.16,,,,,,,,,f,blue,610041aee58af3bd8a5a7478,2021-10-22_12h50.39.415,forced_choiceRT_color,2021.2.3,Win32,59.1401029,,,,,,,,2,Slow,short,f,1,2.1007,1,3,7,1,1,,,,,
,0.09,,,,,,,,,j,red,610041aee58af3bd8a5a7478,2021-10-22_12h50.39.415,forced_choiceRT_color,2021.2.3,Win32,59.1401029,,,,,,,,2,Fast,short,j,1,1.8256,2,0,8,2,1,,,,,
,1.24,,,,,,,,,j,red,610041aee58af3bd8a5a7478,2021-10-22_12h50.39.415,forced_choiceRT_color,2021.2.3,Win32,59.1401029,,,,,,,,2,Slow,short,j,1,2.1255,2,1,9,2,1,,,,,
,0.78,,,,,,,,,d,orange,610041aee58af3bd8a5a7478,2021-10-22_12h50.39.415,forced_choiceRT_color,2021.2.3,Win32,59.1401029,,,,,,,,2,Ontime,short,d,1,1.971,2,2,10,0,1,,,,,
,1.2,,,,,,,,,k,purple,610041aee58af3bd8a5a7478,2021-10-22_12h50.39.415,forced_choiceRT_color,2021.2.3,Win32,59.1401029,,,,,,,,2,Ontime,short,k,1,2.0513,2,3,11,3,1,,,,,
,0.63,,,,,,,,,j,red,610041aee58af3bd8a5a7478,2021-10-22_12h50.39.415,forced_choiceRT_color,2021.2.3,Win32,59.1401029,,,,,,,,2,Ontime,short,j,1,2.0115,3,0,12,2,1,,,,,
,1.91,,,,,,,,,j,red,610041aee58af3bd8a5a7478,2021-10-22_12h50.39.415,forced_choiceRT_color,2021.2.3,Win32,59.1401029,,,,,,,,2,Slow,short,j,1,2.2328,3,1,13,2,1,,,,,
,0.56,,,,,,,,,d,orange,610041aee58af3bd8a5a7478,2021-10-22_12h50.39.415,forced_choiceRT_color,2021.2.3,Win32,59.1401029,,,,,,,,2,Ontime,short,d,1,1.9507,3,2,14,0,1,,,,,
,0.09,,,,,,,,,d,orange,610041aee58af3bd8a5a7478,2021-10-22_12h50.39.415,forced_choiceRT_color,2021.2.3,Win32,59.1401029,,,,,,,,2,Ontime,short,d,1,2.0039,3,3,15,0,1,,,,,
,0.83,,,,,,,,,f,blue,610041aee58af3bd8a5a7478,2021-10-22_12h50.39.415,forced_choiceRT_color,2021.2.3,Win32,59.1401029,,,,,,,,2,Ontime,short,f,1,1.9869,4,0,16,1,1,,,,,
,0.16,,,,,,,,,j,red,610041aee58af3bd8a5a7478,2021-10-22_12h50.39.415,forced_choiceRT_color,2021.2.3,Win32,59.1401029,,,,,,,,2,Ontime,short,j,1,1.9686,4,1,17,2,1,,,,,
,1.43,,,,,,,,,k,purple,610041aee58af3bd8a5a7478,2021-10-22_12h50.39.415,forced_choiceRT_color,2021.2.3,Win32,59.1401029,,,,,,,,2,Slow,short,k,1,2.1574,4,2,18,3,1,,,,,
,0.82,,,,,,,,,k,purple,610041aee58af3bd8a5a7478,2021-10-22_12h50.39.415,forced_choiceRT_color,2021.2.3,Win32,59.1401029,,,,,,,,2,Ontime,short,k,1,1.9008,4,3,19,3,1,,,,,
,1.5,,,,,,,,,k,purple,610041aee58af3bd8a5a7478,2021-10-22_12h50.39.415,forced_choiceRT_color,2021.2.3,Win32,59.1401029,,,,,,,,2,Slow,short,k,1,2.1344,5,0,20,3,1,,,,,
,1.7,,,,,,,,,f,blue,610041aee58af3bd8a5a7478,2021-10-22_12h50.39.415,forced_choiceRT_color,2021.2.3,Win32,59.1401029,,,,,,,,2,Slow,short,k,0,2.1751,5,1,21,1,1,,,,,
,1.07,,,,,,,,,d,orange,610041aee58af3bd8a5a7478,2021-10-22_12h50.39.415,forced_choiceRT_color,2021.2.3,Win32,59.1401029,,,,,,,,2,Ontime,short,d,1,2.0464,5,2,22,0,1,,,,,
,0.22,,,,,,,,,f,blue,610041aee58af3bd8a5a7478,2021-10-22_12h50.39.415,forced_choiceRT_color,2021.2.3,Win32,59.1401029,,,,,,,,2,Fast,short,f,1,1.7944,5,3,23,1,1,,,,,
,0.66,,,,,,,,,d,orange,610041aee58af3bd8a5a7478,2021-10-22_12h50.39.415,forced_choiceRT_color,2021.2.3,Win32,59.1401029,,,,,,,,2,Ontime,short,d,1,1.9343,6,0,24,0,1,,,,,
,1.59,,,,,,,,,f,blue,610041aee58af3bd8a5a7478,2021-10-22_12h50.39.415,forced_choiceRT_color,2021.2.3,Win32,59.1401029,,,,,,,,2,Slow,short,d,0,2.112,6,1,25,1,1,,,,,
,1.69,,,,,,,,,k,purple,610041aee58af3bd8a5a7478,2021-10-22_12h50.39.415,forced_choiceRT_color,2021.2.3,Win32,59.1401029,,,,,,,,2,Ontime,short,j,0,2.0776,6,2,26,3,1,,,,,
,1.08,,,,,,,,,k,purple,610041aee58af3bd8a5a7478,2021-10-22_12h50.39.415,forced_choiceRT_color,2021.2.3,Win32,59.1401029,,,,,,,,2,Ontime,short,k,1,2.017,6,3,27,3,1,,,,,
,1.67,,,,,,,,,j,red,610041aee58af3bd8a5a7478,2021-10-22_12h50.39.415,forced_choiceRT_color,2021.2.3,Win32,59.1401029,,,,,,,,2,Ontime,short,j,1,2.0189,7,0,28,2,1,,,,,
,1.32,,,,,,,,,k,purple,610041aee58af3bd8a5a7478,2021-10-22_12h50.39.415,forced_choiceRT_color,2021.2.3,Win32,59.1401029,,,,,,,,2,Ontime,short,k,1,1.909,7,1,29,3,1,,,,,
,1.34,,,,,,,,,f,blue,610041aee58af3bd8a5a7478,2021-10-22_12h50.39.415,forced_choiceRT_color,2021.2.3,Win32,59.1401029,,,,,,,,2,Ontime,short,f,1,1.9692,7,2,30,1,1,,,,,
,1.81,,,,,,,,,k,purple,610041aee58af3bd8a5a7478,2021-10-22_12h50.39.415,forced_choiceRT_color,2021.2.3,Win32,59.1401029,,,,,,,,2,Slow,short,j,0,2.2,7,3,31,3,1,,,,,
,1.44,,,,,,,,,f,blue,610041aee58af3bd8a5a7478,2021-10-22_12h50.39.415,forced_choiceRT_color,2021.2.3,Win32,59.1401029,,,,,,,,2,Ontime,short,j,0,1.9365,8,0,32,1,1,,,,,
,0.04,,,,,,,,,j,red,610041aee58af3bd8a5a7478,2021-10-22_12h50.39.415,forced_choiceRT_color,2021.2.3,Win32,59.1401029,,,,,,,,2,Ontime,short,j,1,2.0338,8,1,33,2,1,,,,,
,1.49,,,,,,,,,d,orange,610041aee58af3bd8a5a7478,2021-10-22_12h50.39.415,forced_choiceRT_color,2021.2.3,Win32,59.1401029,,,,,,,,2,Slow,short,d,1,2.1042,8,2,34,0,1,,,,,
,1.53,,,,,,,,,f,blue,610041aee58af3bd8a5a7478,2021-10-22_12h50.39.415,forced_choiceRT_color,2021.2.3,Win32,59.1401029,,,,,,,,2,Slow,short,f,1,2.1101,8,3,35,1,1,,,,,
,0.26,,,,,,,,,d,orange,610041aee58af3bd8a5a7478,2021-10-22_12h50.39.415,forced_choiceRT_color,2021.2.3,Win32,59.1401029,,,,,,,,2,Ontime,short,d,1,1.946,9,0,36,0,1,,,,,
,1.95,,,,,,,,,j,red,610041aee58af3bd8a5a7478,2021-10-22_12h50.39.415,forced_choiceRT_color,2021.2.3,Win32,59.1401029,,,,,,,,2,Slow,short,j,1,2.4676,9,1,37,2,1,,,,,
,1.33,,,,,,,,,f,blue,610041aee58af3bd8a5a7478,2021-10-22_12h50.39.415,forced_choiceRT_color,2021.2.3,Win32,59.1401029,,,,,,,,2,Ontime,short,d,0,2.0339,9,2,38,1,1,,,,,
,1.07,,,,,,,,,d,orange,610041aee58af3bd8a5a7478,2021-10-22_12h50.39.415,forced_choiceRT_color,2021.2.3,Win32,59.1401029,,,,,,,,2,Ontime,short,d,1,1.9629,9,3,39,0,1,,,,,
,,,,,,,,,,,,610041aee58af3bd8a5a7478,2021-10-22_12h50.39.415,forced_choiceRT_color,2021.2.3,Win32,59.1401029,,,,,,,,,,,,,,,,,,,1,0,1,0,1
,1.41,,,,,,,,,j,red,610041aee58af3bd8a5a7478,2021-10-22_12h50.39.415,forced_choiceRT_color,2021.2.3,Win32,59.1401029,,,,,,,,3,Ontime,short,d,0,1.9332,0,0,0,2,1,,,,,
,1.41,,,,,,,,,j,red,610041aee58af3bd8a5a7478,2021-10-22_12h50.39.415,forced_choiceRT_color,2021.2.3,Win32,59.1401029,,,,,,,,3,Ontime,short,j,1,2.061,0,1,1,2,1,,,,,
,1.58,,,,,,,,,f,blue,610041aee58af3bd8a5a7478,2021-10-22_12h50.39.415,forced_choiceRT_color,2021.2.3,Win32,59.1401029,,,,,,,,3,Slow,short,f,1,2.1366,0,2,2,1,1,,,,,
,0.5,,,,,,,,,f,blue,610041aee58af3bd8a5a7478,2021-10-22_12h50.39.415,forced_choiceRT_color,2021.2.3,Win32,59.1401029,,,,,,,,3,Ontime,short,f,1,1.9235,0,3,3,1,1,,,,,
,0.75,,,,,,,,,f,blue,610041aee58af3bd8a5a7478,2021-10-22_12h50.39.415,forced_choiceRT_color,2021.2.3,Win32,59.1401029,,,,,,,,3,Ontime,short,f,1,1.9126,1,0,4,1,1,,,,,
,1.26,,,,,,,,,d,orange,610041aee58af3bd8a5a7478,2021-10-22_12h50.39.415,forced_choiceRT_color,2021.2.3,Win32,59.1401029,,,,,,,,3,Ontime,short,d,1,1.9441,1,1,5,0,1,,,,,
,0.63,,,,,,,,,j,red,610041aee58af3bd8a5a7478,2021-10-22_12h50.39.415,forced_choiceRT_color,2021.2.3,Win32,59.1401029,,,,,,,,3,Ontime,short,j,1,1.9724,1,2,6,2,1,,,,,
,1.2,,,,,,,,,k,purple,610041aee58af3bd8a5a7478,2021-10-22_12h50.39.415,forced_choiceRT_color,2021.2.3,Win32,59.1401029,,,,,,,,3,Fast,short,k,1,1.8923,1,3,7,3,1,,,,,
,1.12,,,,,,,,,k,purple,610041aee58af3bd8a5a7478,2021-10-22_12h50.39.415,forced_choiceRT_color,2021.2.3,Win32,59.1401029,,,,,,,,3,Fast,short,k,1,1.8771,2,0,8,3,1,,,,,
,0.2,,,,,,,,,j,red,610041aee58af3bd8a5a7478,2021-10-22_12h50.39.415,forced_choiceRT_color,2021.2.3,Win32,59.1401029,,,,,,,,3,Ontime,short,j,1,1.9722,2,1,9,2,1,,,,,
,1.32,,,,,,,,,j,red,610041aee58af3bd8a5a7478,2021-10-22_12h50.39.415,forced_choiceRT_color,2021.2.3,Win32,59.1401029,,,,,,,,3,Ontime,short,j,1,2.0504,2,2,10,2,1,,,,,
,0.08,,,,,,,,,k,purple,610041aee58af3bd8a5a7478,2021-10-22_12h50.39.415,forced_choiceRT_color,2021.2.3,Win32,59.1401029,,,,,,,,3,Ontime,short,k,1,1.9252,2,3,11,3,1,,,,,
,0.14,,,,,,,,,d,orange,610041aee58af3bd8a5a7478,2021-10-22_12h50.39.415,forced_choiceRT_color,2021.2.3,Win32,59.1401029,,,,,,,,3,Ontime,short,d,1,1.9201,3,0,12,0,1,,,,,
,0.15,,,,,,,,,f,blue,610041aee58af3bd8a5a7478,2021-10-22_12h50.39.415,forced_choiceRT_color,2021.2.3,Win32,59.1401029,,,,,,,,3,Ontime,short,f,1,1.9705,3,1,13,1,1,,,,,
,1.55,,,,,,,,,f,blue,610041aee58af3bd8a5a7478,2021-10-22_12h50.39.415,forced_choiceRT_color,2021.2.3,Win32,59.1401029,,,,,,,,3,Slow,short,f,1,2.2044,3,2,14,1,1,,,,,
,1.46,,,,,,,,,f,blue,610041aee58af3bd8a5a7478,2021-10-22_12h50.39.415,forced_choiceRT_color,2021.2.3,Win32,59.1401029,,,,,,,,3,Ontime,short,f,1,1.926,3,3,15,1,1,,,,,
,1.19,,,,,,,,,d,orange,610041aee58af3bd8a5a7478,2021-10-22_12h50.39.415,forced_choiceRT_color,2021.2.3,Win32,59.1401029,,,,,,,,3,Ontime,short,d,1,2.0748,4,0,16,0,1,,,,,
,0.84,,,,,,,,,j,red,610041aee58af3bd8a5a7478,2021-10-22_12h50.39.415,forced_choiceRT_color,2021.2.3,Win32,59.1401029,,,,,,,,3,Ontime,short,j,1,2.0339,4,1,17,2,1,,,,,
,1.86,,,,,,,,,f,blue,610041aee58af3bd8a5a7478,2021-10-22_12h50.39.415,forced_choiceRT_color,2021.2.3,Win32,59.1401029,,,,,,,,3,Slow,short,j,0,2.2628,4,2,18,1,1,,,,,
,1.71,,,,,,,,,d,orange,610041aee58af3bd8a5a7478,2021-10-22_12h50.39.415,forced_choiceRT_color,2021.2.3,Win32,59.1401029,,,,,,,,3,Ontime,short,j,0,2.0335,4,3,19,0,1,,,,,
,1.64,,,,,,,,,k,purple,610041aee58af3bd8a5a7478,2021-10-22_12h50.39.415,forced_choiceRT_color,2021.2.3,Win32,59.1401029,,,,,,,,3,Slow,short,k,1,2.1516,5,0,20,3,1,,,,,
,1.89,,,,,,,,,f,blue,610041aee58af3bd8a5a7478,2021-10-22_12h50.39.415,forced_choiceRT_color,2021.2.3,Win32,59.1401029,,,,,,,,3,Slow,short,d,0,2.2683,5,1,21,1,1,,,,,
,0.91,,,,,,,,,k,purple,610041aee58af3bd8a5a7478,2021-10-22_12h50.39.415,forced_choiceRT_color,2021.2.3,Win32,59.1401029,,,,,,,,3,Fast,short,k,1,1.6511,5,2,22,3,1,,,,,
,1.04,,,,,,,,,d,orange,610041aee58af3bd8a5a7478,2021-10-22_12h50.39.415,forced_choiceRT_color,2021.2.3,Win32,59.1401029,,,,,,,,3,Ontime,short,d,1,1.9093,5,3,23,0,1,,,,,
,0.39,,,,,,,,,d,orange,610041aee58af3bd8a5a7478,2021-10-22_12h50.39.415,forced_choiceRT_color,2021.2.3,Win32,59.1401029,,,,,,,,3,Ontime,short,d,1,1.9701,6,0,24,0,1,,,,,
,1.01,,,,,,,,,k,purple,610041aee58af3bd8a5a7478,2021-10-22_12h50.39.415,forced_choiceRT_color,2021.2.3,Win32,59.1401029,,,,,,,,3,Ontime,short,k,1,1.9747,6,1,25,3,1,,,,,
,1.47,,,,,,,,,j,red,610041aee58af3bd8a5a7478,2021-10-22_12h50.39.415,forced_choiceRT_color,2021.2.3,Win32,59.1401029,,,,,,,,3,Ontime,short,j,1,1.9298,6,2,26,2,1,,,,,
,0.41,,,,,,,,,j,red,610041aee58af3bd8a5a7478,2021-10-22_12h50.39.415,forced_choiceRT_color,2021.2.3,Win32,59.1401029,,,,,,,,3,Ontime,short,j,1,1.9355,6,3,27,2,1,,,,,
,1.74,,,,,,,,,k,purple,610041aee58af3bd8a5a7478,2021-10-22_12h50.39.415,forced_choiceRT_color,2021.2.3,Win32,59.1401029,,,,,,,,3,Ontime,short,k,1,2.0525,7,0,28,3,1,,,,,
,0.66,,,,,,,,,k,purple,610041aee58af3bd8a5a7478,2021-10-22_12h50.39.415,forced_choiceRT_color,2021.2.3,Win32,59.1401029,,,,,,,,3,Ontime,short,k,1,2.0191,7,1,29,3,1,,,,,
,1.4,,,,,,,,,d,orange,610041aee58af3bd8a5a7478,2021-10-22_12h50.39.415,forced_choiceRT_color,2021.2.3,Win32,59.1401029,,,,,,,,3,Fast,short,j,0,1.7894,7,2,30,0,1,,,,,
,0.87,,,,,,,,,d,orange,610041aee58af3bd8a5a7478,2021-10-22_12h50.39.415,forced_choiceRT_color,2021.2.3,Win32,59.1401029,,,,,,,,3,Ontime,short,d,1,1.9673,7,3,31,0,1,,,,,
,0.35,,,,,,,,,f,blue,610041aee58af3bd8a5a7478,2021-10-22_12h50.39.415,forced_choiceRT_color,2021.2.3,Win32,59.1401029,,,,,,,,3,Ontime,short,f,1,2.0007,8,0,32,1,1,,,,,
,0.88,,,,,,,,,f,blue,610041aee58af3bd8a5a7478,2021-10-22_12h50.39.415,forced_choiceRT_color,2021.2.3,Win32,59.1401029,,,,,,,,3,Ontime,short,f,1,2.001,8,1,33,1,1,,,,,
,1.14,,,,,,,,,j,red,610041aee58af3bd8a5a7478,2021-10-22_12h50.39.415,forced_choiceRT_color,2021.2.3,Win32,59.1401029,,,,,,,,3,Ontime,short,j,1,1.9839,8,2,34,2,1,,,,,
,1.83,,,,,,,,,k,purple,610041aee58af3bd8a5a7478,2021-10-22_12h50.39.415,forced_choiceRT_color,2021.2.3,Win32,59.1401029,,,,,,,,3,Slow,short,k,1,2.1703,8,3,35,3,1,,,,,
,1.25,,,,,,,,,d,orange,610041aee58af3bd8a5a7478,2021-10-22_12h50.39.415,forced_choiceRT_color,2021.2.3,Win32,59.1401029,,,,,,,,3,Fast,short,d,1,1.7341,9,0,36,0,1,,,,,
,1.22,,,,,,,,,k,purple,610041aee58af3bd8a5a7478,2021-10-22_12h50.39.415,forced_choiceRT_color,2021.2.3,Win32,59.1401029,,,,,,,,3,Ontime,short,k,1,2.0941,9,1,37,3,1,,,,,
,1.04,,,,,,,,,j,red,610041aee58af3bd8a5a7478,2021-10-22_12h50.39.415,forced_choiceRT_color,2021.2.3,Win32,59.1401029,,,,,,,,3,Ontime,short,j,1,1.972,9,2,38,2,1,,,,,
,1.06,,,,,,,,,d,orange,610041aee58af3bd8a5a7478,2021-10-22_12h50.39.415,forced_choiceRT_color,2021.2.3,Win32,59.1401029,,,,,,,,3,Ontime,short,d,1,2.0016,9,3,39,0,1,,,,,
,,,,,,,,,,,,610041aee58af3bd8a5a7478,2021-10-22_12h50.39.415,forced_choiceRT_color,2021.2.3,Win32,59.1401029,,,,,,,,,,,,,,,,,,,2,0,2,0,1
,0.05,,,,,,,,,j,red,610041aee58af3bd8a5a7478,2021-10-22_12h50.39.415,forced_choiceRT_color,2021.2.3,Win32,59.1401029,,,,,,,,4,Ontime,short,j,1,1.9742,0,0,0,2,1,,,,,
,0.55,,,,,,,,,k,purple,610041aee58af3bd8a5a7478,2021-10-22_12h50.39.415,forced_choiceRT_color,2021.2.3,Win32,59.1401029,,,,,,,,4,Ontime,short,k,1,2.0042,0,1,1,3,1,,,,,
,0.35,,,,,,,,,d,orange,610041aee58af3bd8a5a7478,2021-10-22_12h50.39.415,forced_choiceRT_color,2021.2.3,Win32,59.1401029,,,,,,,,4,Fast,short,d,1,1.8969,0,2,2,0,1,,,,,
,0.7,,,,,,,,,d,orange,610041aee58af3bd8a5a7478,2021-10-22_12h50.39.415,forced_choiceRT_color,2021.2.3,Win32,59.1401029,,,,,,,,4,Fast,short,d,1,1.8954,0,3,3,0,1,,,,,
,1.78,,,,,,,,,d,orange,610041aee58af3bd8a5a7478,2021-10-22_12h50.39.415,forced_choiceRT_color,2021.2.3,Win32,59.1401029,,,,,,,,4,Slow,short,d,1,2.268,1,0,4,0,1,,,,,
,1.75,,,,,,,,,d,orange,610041aee58af3bd8a5a7478,2021-10-22_12h50.39.415,forced_choiceRT_color,2021.2.3,Win32,59.1401029,,,,,,,,4,Slow,short,d,1,2.1581,1,1,5,0,1,,,,,
,1.37,,,,,,,,,k,purple,610041aee58af3bd8a5a7478,2021-10-22_12h50.39.415,forced_choiceRT_color,2021.2.3,Win32,59.1401029,,,,,,,,4,Ontime,short,k,1,1.969,1,2,6,3,1,,,,,
,0.43,,,,,,,,,j,red,610041aee58af3bd8a5a7478,2021-10-22_12h50.39.415,forced_choiceRT_color,2021.2.3,Win32,59.1401029,,,,,,,,4,Ontime,short,j,1,1.9391,1,3,7,2,1,,,,,
,0.38,,,,,,,,,d,orange,610041aee58af3bd8a5a7478,2021-10-22_12h50.39.415,forced_choiceRT_color,2021.2.3,Win32,59.1401029,,,,,,,,4,Ontime,short,d,1,1.943,2,0,8,0,1,,,,,
,1.07,,,,,,,,,f,blue,610041aee58af3bd8a5a7478,2021-10-22_12h50.39.415,forced_choiceRT_color,2021.2.3,Win32,59.1401029,,,,,,,,4,Ontime,short,f,1,1.9564,2,1,9,1,1,,,,,
,1.45,,,,,,,,,j,red,610041aee58af3bd8a5a7478,2021-10-22_12h50.39.415,forced_choiceRT_color,2021.2.3,Win32,59.1401029,,,,,,,,4,Ontime,short,j,1,1.923,2,2,10,2,1,,,,,
,0.64,,,,,,,,,j,red,610041aee58af3bd8a5a7478,2021-10-22_12h50.39.415,forced_choiceRT_color,2021.2.3,Win32,59.1401029,,,,,,,,4,Ontime,short,j,1,1.9277,2,3,11,2,1,,,,,
,0.64,,,,,,,,,f,blue,610041aee58af3bd8a5a7478,2021-10-22_12h50.39.415,forced_choiceRT_color,2021.2.3,Win32,59.1401029,,,,,,,,4,Ontime,short,f,1,1.9777,3,0,12,1,1,,,,,
,1.59,,,,,,,,,k,purple,610041aee58af3bd8a5a7478,2021-10-22_12h50.39.415,forced_choiceRT_color,2021.2.3,Win32,59.1401029,,,,,,,,4,Ontime,short,k,1,1.913,3,1,13,3,1,,,,,
,0.85,,,,,,,,,f,blue,610041aee58af3bd8a5a7478,2021-10-22_12h50.39.415,forced_choiceRT_color,2021.2.3,Win32,59.1401029,,,,,,,,4,Fast,short,f,1,1.8741,3,2,14,1,1,,,,,
,0.48,,,,,,,,,k,purple,610041aee58af3bd8a5a7478,2021-10-22_12h50.39.415,forced_choiceRT_color,2021.2.3,Win32,59.1401029,,,,,,,,4,Ontime,short,k,1,1.936,3,3,15,3,1,,,,,
,1.04,,,,,,,,,d,orange,610041aee58af3bd8a5a7478,2021-10-22_12h50.39.415,forced_choiceRT_color,2021.2.3,Win32,59.1401029,,,,,,,,4,Ontime,short,d,1,1.9172,4,0,16,0,1,,,,,
,1.37,,,,,,,,,j,red,610041aee58af3bd8a5a7478,2021-10-22_12h50.39.415,forced_choiceRT_color,2021.2.3,Win32,59.1401029,,,,,,,,4,Ontime,short,j,1,2.0056,4,1,17,2,1,,,,,
,0.02,,,,,,,,,f,blue,610041aee58af3bd8a5a7478,2021-10-22_12h50.39.415,forced_choiceRT_color,2021.2.3,Win32,59.1401029,,,,,,,,4,Ontime,short,f,1,1.9621,4,2,18,1,1,,,,,
,1.57,,,,,,,,,k,purple,610041aee58af3bd8a5a7478,2021-10-22_12h50.39.415,forced_choiceRT_color,2021.2.3,Win32,59.1401029,,,,,,,,4,Ontime,short,k,1,1.9593,4,3,19,3,1,,,,,
,0.22,,,,,,,,,k,purple,610041aee58af3bd8a5a7478,2021-10-22_12h50.39.415,forced_choiceRT_color,2021.2.3,Win32,59.1401029,,,,,,,,4,Ontime,short,k,1,2.0293,5,0,20,3,1,,,,,
,0.38,,,,,,,,,f,blue,610041aee58af3bd8a5a7478,2021-10-22_12h50.39.415,forced_choiceRT_color,2021.2.3,Win32,59.1401029,,,,,,,,4,Ontime,short,f,1,2.0172,5,1,21,1,1,,,,,
,1.15,,,,,,,,,f,blue,610041aee58af3bd8a5a7478,2021-10-22_12h50.39.415,forced_choiceRT_color,2021.2.3,Win32,59.1401029,,,,,,,,4,Ontime,short,f,1,2.0262,5,2,22,1,1,,,,,
,0.73,,,,,,,,,d,orange,610041aee58af3bd8a5a7478,2021-10-22_12h50.39.415,forced_choiceRT_color,2021.2.3,Win32,59.1401029,,,,,,,,4,Ontime,short,d,1,1.9263,5,3,23,0,1,,,,,
,1.56,,,,,,,,,k,purple,610041aee58af3bd8a5a7478,2021-10-22_12h50.39.415,forced_choiceRT_color,2021.2.3,Win32,59.1401029,,,,,,,,4,Ontime,short,k,1,2.0173,6,0,24,3,1,,,,,
,0.19,,,,,,,,,k,purple,610041aee58af3bd8a5a7478,2021-10-22_12h50.39.415,forced_choiceRT_color,2021.2.3,Win32,59.1401029,,,,,,,,4,Fast,short,k,1,1.8878,6,1,25,3,1,,,,,
,1.68,,,,,,,,,j,red,610041aee58af3bd8a5a7478,2021-10-22_12h50.39.415,forced_choiceRT_color,2021.2.3,Win32,59.1401029,,,,,,,,4,Slow,short,j,1,2.1003,6,2,26,2,1,,,,,
,0.73,,,,,,,,,f,blue,610041aee58af3bd8a5a7478,2021-10-22_12h50.39.415,forced_choiceRT_color,2021.2.3,Win32,59.1401029,,,,,,,,4,Fast,short,f,1,1.8073,6,3,27,1,1,,,,,
,0.62,,,,,,,,,d,orange,610041aee58af3bd8a5a7478,2021-10-22_12h50.39.415,forced_choiceRT_color,2021.2.3,Win32,59.1401029,,,,,,,,4,Ontime,short,d,1,1.9507,7,0,28,0,1,,,,,
,1.23,,,,,,,,,f,blue,610041aee58af3bd8a5a7478,2021-10-22_12h50.39.415,forced_choiceRT_color,2021.2.3,Win32,59.1401029,,,,,,,,4,Ontime,short,f,1,2.0337,7,1,29,1,1,,,,,
,0.72,,,,,,,,,k,purple,610041aee58af3bd8a5a7478,2021-10-22_12h50.39.415,forced_choiceRT_color,2021.2.3,Win32,59.1401029,,,,,,,,4,Ontime,short,k,1,1.934,7,2,30,3,1,,,,,
,0.61,,,,,,,,,d,orange,610041aee58af3bd8a5a7478,2021-10-22_12h50.39.415,forced_choiceRT_color,2021.2.3,Win32,59.1401029,,,,,,,,4,Ontime,short,d,1,1.9506,7,3,31,0,1,,,,,
,0.4,,,,,,,,,j,red,610041aee58af3bd8a5a7478,2021-10-22_12h50.39.415,forced_choiceRT_color,2021.2.3,Win32,59.1401029,,,,,,,,4,Ontime,short,j,1,1.9506,8,0,32,2,1,,,,,
,1.21,,,,,,,,,j,red,610041aee58af3bd8a5a7478,2021-10-22_12h50.39.415,forced_choiceRT_color,2021.2.3,Win32,59.1401029,,,,,,,,4,Ontime,short,j,1,2.0209,8,1,33,2,1,,,,,
,0.44,,,,,,,,,f,blue,610041aee58af3bd8a5a7478,2021-10-22_12h50.39.415,forced_choiceRT_color,2021.2.3,Win32,59.1401029,,,,,,,,4,Ontime,short,f,1,1.9703,8,2,34,1,1,,,,,
,1.94,,,,,,,,,k,purple,610041aee58af3bd8a5a7478,2021-10-22_12h50.39.415,forced_choiceRT_color,2021.2.3,Win32,59.1401029,,,,,,,,4,Slow,short,k,1,2.2786,8,3,35,3,1,,,,,
,1.14,,,,,,,,,j,red,610041aee58af3bd8a5a7478,2021-10-22_12h50.39.415,forced_choiceRT_color,2021.2.3,Win32,59.1401029,,,,,,,,4,Ontime,short,j,1,1.9247,9,0,36,2,1,,,,,
,0.55,,,,,,,,,j,red,610041aee58af3bd8a5a7478,2021-10-22_12h50.39.415,forced_choiceRT_color,2021.2.3,Win32,59.1401029,,,,,,,,4,Ontime,short,j,1,2.0589,9,1,37,2,1,,,,,
,1.92,,,,,,,,,d,orange,610041aee58af3bd8a5a7478,2021-10-22_12h50.39.415,forced_choiceRT_color,2021.2.3,Win32,59.1401029,,,,,,,,4,Slow,short,k,0,2.2689,9,2,38,0,1,,,,,
,1.86,,,,,,,,,f,blue,610041aee58af3bd8a5a7478,2021-10-22_12h50.39.415,forced_choiceRT_color,2021.2.3,Win32,59.1401029,,,,,,,,4,Slow,short,f,1,2.2833,9,3,39,1,1,,,,,
,,,,,,,,,,,,610041aee58af3bd8a5a7478,2021-10-22_12h50.39.415,forced_choiceRT_color,2021.2.3,Win32,59.1401029,,,,,,,,,,,,,,,,,,,3,0,3,0,1
,1.74,,,,,,,,,k,purple,610041aee58af3bd8a5a7478,2021-10-22_12h50.39.415,forced_choiceRT_color,2021.2.3,Win32,59.1401029,,,,,,,,5,Slow,short,k,1,2.1342,0,0,0,3,1,,,,,
,1.94,,,,,,,,,d,orange,610041aee58af3bd8a5a7478,2021-10-22_12h50.39.415,forced_choiceRT_color,2021.2.3,Win32,59.1401029,,,,,,,,5,Slow,short,d,1,2.2981,0,1,1,0,1,,,,,
,1.26,,,,,,,,,j,red,610041aee58af3bd8a5a7478,2021-10-22_12h50.39.415,forced_choiceRT_color,2021.2.3,Win32,59.1401029,,,,,,,,5,Ontime,short,j,1,1.9506,0,2,2,2,1,,,,,
,1.26,,,,,,,,,d,orange,610041aee58af3bd8a5a7478,2021-10-22_12h50.39.415,forced_choiceRT_color,2021.2.3,Win32,59.1401029,,,,,,,,5,Ontime,short,d,1,1.9006,0,3,3,0,1,,,,,
,0.55,,,,,,,,,j,red,610041aee58af3bd8a5a7478,2021-10-22_12h50.39.415,forced_choiceRT_color,2021.2.3,Win32,59.1401029,,,,,,,,5,Fast,short,j,1,1.8897,1,0,4,2,1,,,,,
,0.25,,,,,,,,,j,red,610041aee58af3bd8a5a7478,2021-10-22_12h50.39.415,forced_choiceRT_color,2021.2.3,Win32,59.1401029,,,,,,,,5,Fast,short,j,1,1.8671,1,1,5,2,1,,,,,
,0.68,,,,,,,,,d,orange,610041aee58af3bd8a5a7478,2021-10-22_12h50.39.415,forced_choiceRT_color,2021.2.3,Win32,59.1401029,,,,,,,,5,Ontime,short,d,1,1.9415,1,2,6,0,1,,,,,
,1.69,,,,,,,,,f,blue,610041aee58af3bd8a5a7478,2021-10-22_12h50.39.415,forced_choiceRT_color,2021.2.3,Win32,59.1401029,,,,,,,,5,Slow,short,f,1,2.2508,1,3,7,1,1,,,,,
,1.69,,,,,,,,,f,blue,610041aee58af3bd8a5a7478,2021-10-22_12h50.39.415,forced_choiceRT_color,2021.2.3,Win32,59.1401029,,,,,,,,5,Ontime,short,j,0,1.9866,2,0,8,1,1,,,,,
,0.45,,,,,,,,,f,blue,610041aee58af3bd8a5a7478,2021-10-22_12h50.39.415,forced_choiceRT_color,2021.2.3,Win32,59.1401029,,,,,,,,5,Fast,short,f,1,1.8906,2,1,9,1,1,,,,,
,0.79,,,,,,,,,j,red,610041aee58af3bd8a5a7478,2021-10-22_12h50.39.415,forced_choiceRT_color,2021.2.3,Win32,59.1401029,,,,,,,,5,Ontime,short,j,1,1.991,2,2,10,2,1,,,,,
,0.33,,,,,,,,,k,purple,610041aee58af3bd8a5a7478,2021-10-22_12h50.39.415,forced_choiceRT_color,2021.2.3,Win32,59.1401029,,,,,,,,5,Ontime,short,k,1,2.0006,2,3,11,3,1,,,,,
,0.68,,,,,,,,,k,purple,610041aee58af3bd8a5a7478,2021-10-22_12h50.39.415,forced_choiceRT_color,2021.2.3,Win32,59.1401029,,,,,,,,5,Ontime,short,k,1,1.9515,3,0,12,3,1,,,,,
,0.08,,,,,,,,,j,red,610041aee58af3bd8a5a7478,2021-10-22_12h50.39.415,forced_choiceRT_color,2021.2.3,Win32,59.1401029,,,,,,,,5,Ontime,short,j,1,1.9023,3,1,13,2,1,,,,,
,1.85,,,,,,,,,k,purple,610041aee58af3bd8a5a7478,2021-10-22_12h50.39.415,forced_choiceRT_color,2021.2.3,Win32,59.1401029,,,,,,,,5,Slow,short,f,0,2.1291,3,2,14,3,1,,,,,
,1.39,,,,,,,,,k,purple,610041aee58af3bd8a5a7478,2021-10-22_12h50.39.415,forced_choiceRT_color,2021.2.3,Win32,59.1401029,,,,,,,,5,Ontime,short,j,0,1.9332,3,3,15,3,1,,,,,
,0.26,,,,,,,,,d,orange,610041aee58af3bd8a5a7478,2021-10-22_12h50.39.415,forced_choiceRT_color,2021.2.3,Win32,59.1401029,,,,,,,,5,Ontime,short,d,1,1.9674,4,0,16,0,1,,,,,
,0.06,,,,,,,,,d,orange,610041aee58af3bd8a5a7478,2021-10-22_12h50.39.415,forced_choiceRT_color,2021.2.3,Win32,59.1401029,,,,,,,,5,Ontime,short,d,1,1.9721,4,1,17,0,1,,,,,
,1.76,,,,,,,,,f,blue,610041aee58af3bd8a5a7478,2021-10-22_12h50.39.415,forced_choiceRT_color,2021.2.3,Win32,59.1401029,,,,,,,,5,Slow,short,f,1,2.146,4,2,18,1,1,,,,,
,0.2,,,,,,,,,d,orange,610041aee58af3bd8a5a7478,2021-10-22_12h50.39.415,forced_choiceRT_color,2021.2.3,Win32,59.1401029,,,,,,,,5,Ontime,short,d,1,1.9355,4,3,19,0,1,,,,,
,1.94,,,,,,,,,j,red,610041aee58af3bd8a5a7478,2021-10-22_12h50.39.415,forced_choiceRT_color,2021.2.3,Win32,59.1401029,,,,,,,,5,Slow,short,k,0,2.2505,5,0,20,2,1,,,,,
,0.91,,,,,,,,,d,orange,610041aee58af3bd8a5a7478,2021-10-22_12h50.39.415,forced_choiceRT_color,2021.2.3,Win32,59.1401029,,,,,,,,5,Ontime,short,d,1,1.9837,5,1,21,0,1,,,,,
,0.78,,,,,,,,,k,purple,610041aee58af3bd8a5a7478,2021-10-22_12h50.39.415,forced_choiceRT_color,2021.2.3,Win32,59.1401029,,,,,,,,5,Ontime,short,k,1,1.9362,5,2,22,3,1,,,,,
,0.13,,,,,,,,,f,blue,610041aee58af3bd8a5a7478,2021-10-22_12h50.39.415,forced_choiceRT_color,2021.2.3,Win32,59.1401029,,,,,,,,5,Fast,short,f,1,1.7968,5,3,23,1,1,,,,,
,0.45,,,,,,,,,j,red,610041aee58af3bd8a5a7478,2021-10-22_12h50.39.415,forced_choiceRT_color,2021.2.3,Win32,59.1401029,,,,,,,,5,Ontime,short,j,1,1.9839,6,0,24,2,1,,,,,
,0.01,,,,,,,,,d,orange,610041aee58af3bd8a5a7478,2021-10-22_12h50.39.415,forced_choiceRT_color,2021.2.3,Win32,59.1401029,,,,,,,,5,Fast,short,d,1,1.8884,6,1,25,0,1,,,,,
,0.91,,,,,,,,,f,blue,610041aee58af3bd8a5a7478,2021-10-22_12h50.39.415,forced_choiceRT_color,2021.2.3,Win32,59.1401029,,,,,,,,5,Ontime,short,f,1,2.0648,6,2,26,1,1,,,,,
,0.83,,,,,,,,,d,orange,610041aee58af3bd8a5a7478,2021-10-22_12h50.39.415,forced_choiceRT_color,2021.2.3,Win32,59.1401029,,,,,,,,5,Ontime,short,d,1,1.9726,6,3,27,0,1,,,,,
,0.36,,,,,,,,,k,purple,610041aee58af3bd8a5a7478,2021-10-22_12h50.39.415,forced_choiceRT_color,2021.2.3,Win32,59.1401029,,,,,,,,5,Ontime,short,k,1,1.9726,7,0,28,3,1,,,,,
,0.55,,,,,,,,,f,blue,610041aee58af3bd8a5a7478,2021-10-22_12h50.39.415,forced_choiceRT_color,2021.2.3,Win32,59.1401029,,,,,,,,5,Slow,short,f,1,2.1337,7,1,29,1,1,,,,,
,1.99,,,,,,,,,k,purple,610041aee58af3bd8a5a7478,2021-10-22_12h50.39.415,forced_choiceRT_color,2021.2.3,Win32,59.1401029,,,,,,,,5,Slow,short,k,1,3.1219,7,2,30,3,1,,,,,
,1.16,,,,,,,,,d,orange,610041aee58af3bd8a5a7478,2021-10-22_12h50.39.415,forced_choiceRT_color,2021.2.3,Win32,59.1401029,,,,,,,,5,Fast,short,d,1,1.8845,7,3,31,0,1,,,,,
,1.69,,,,,,,,,j,red,610041aee58af3bd8a5a7478,2021-10-22_12h50.39.415,forced_choiceRT_color,2021.2.3,Win32,59.1401029,,,,,,,,5,Ontime,short,k,0,2.0082,8,0,32,2,1,,,,,
,0.96,,,,,,,,,f,blue,610041aee58af3bd8a5a7478,2021-10-22_12h50.39.415,forced_choiceRT_color,2021.2.3,Win32,59.1401029,,,,,,,,5,Ontime,short,f,1,1.9295,8,1,33,1,1,,,,,
,1.3,,,,,,,,,k,purple,610041aee58af3bd8a5a7478,2021-10-22_12h50.39.415,forced_choiceRT_color,2021.2.3,Win32,59.1401029,,,,,,,,5,Ontime,short,k,1,1.9573,8,2,34,3,1,,,,,
,0.43,,,,,,,,,f,blue,610041aee58af3bd8a5a7478,2021-10-22_12h50.39.415,forced_choiceRT_color,2021.2.3,Win32,59.1401029,,,,,,,,5,Ontime,short,f,1,1.9113,8,3,35,1,1,,,,,
,1.19,,,,,,,,,j,red,610041aee58af3bd8a5a7478,2021-10-22_12h50.39.415,forced_choiceRT_color,2021.2.3,Win32,59.1401029,,,,,,,,5,Ontime,short,j,1,1.9842,9,0,36,2,1,,,,,
,0.8,,,,,,,,,k,purple,610041aee58af3bd8a5a7478,2021-10-22_12h50.39.415,forced_choiceRT_color,2021.2.3,Win32,59.1401029,,,,,,,,5,Ontime,short,k,1,1.9174,9,1,37,3,1,,,,,
,0.2,,,,,,,,,f,blue,610041aee58af3bd8a5a7478,2021-10-22_12h50.39.415,forced_choiceRT_color,2021.2.3,Win32,59.1401029,,,,,,,,5,Fast,short,f,1,1.8839,9,2,38,1,1,,,,,
,1.28,,,,,,,,,j,red,610041aee58af3bd8a5a7478,2021-10-22_12h50.39.415,forced_choiceRT_color,2021.2.3,Win32,59.1401029,,,,,,,,5,Ontime,short,k,0,1.9775,9,3,39,2,1,,,,,
,,,,,,,,,,,,610041aee58af3bd8a5a7478,2021-10-22_12h50.39.415,forced_choiceRT_color,2021.2.3,Win32,59.1401029,,,,,,,,,,,,,,,,,,,4,0,4,0,1
,0.86,,,,,,,,,k,purple,610041aee58af3bd8a5a7478,2021-10-22_12h50.39.415,forced_choiceRT_color,2021.2.3,Win32,59.1401029,,,,,,,,6,Fast,short,k,1,1.2451,0,0,0,3,1,,,,,
,0.55,,,,,,,,,k,purple,610041aee58af3bd8a5a7478,2021-10-22_12h50.39.415,forced_choiceRT_color,2021.2.3,Win32,59.1401029,,,,,,,,6,Ontime,short,k,1,1.9288,0,1,1,3,1,,,,,
,1.21,,,,,,,,,k,purple,610041aee58af3bd8a5a7478,2021-10-22_12h50.39.415,forced_choiceRT_color,2021.2.3,Win32,59.1401029,,,,,,,,6,Ontime,short,k,1,2.0505,0,2,2,3,1,,,,,
,1.24,,,,,,,,,k,purple,610041aee58af3bd8a5a7478,2021-10-22_12h50.39.415,forced_choiceRT_color,2021.2.3,Win32,59.1401029,,,,,,,,6,Ontime,short,k,1,2.0053,0,3,3,3,1,,,,,
,0.95,,,,,,,,,j,red,610041aee58af3bd8a5a7478,2021-10-22_12h50.39.415,forced_choiceRT_color,2021.2.3,Win32,59.1401029,,,,,,,,6,Ontime,short,j,1,2.0452,1,0,4,2,1,,,,,
,0.34,,,,,,,,,d,orange,610041aee58af3bd8a5a7478,2021-10-22_12h50.39.415,forced_choiceRT_color,2021.2.3,Win32,59.1401029,,,,,,,,6,Slow,short,d,1,2.128,1,1,5,0,1,,,,,
,0.8,,,,,,,,,f,blue,610041aee58af3bd8a5a7478,2021-10-22_12h50.39.415,forced_choiceRT_color,2021.2.3,Win32,59.1401029,,,,,,,,6,Ontime,short,f,1,1.9588,1,2,6,1,1,,,,,
,1.79,,,,,,,,,d,orange,610041aee58af3bd8a5a7478,2021-10-22_12h50.39.415,forced_choiceRT_color,2021.2.3,Win32,59.1401029,,,,,,,,6,Slow,short,k,0,2.1487,1,3,7,0,1,,,,,
,0.34,,,,,,,,,d,orange,610041aee58af3bd8a5a7478,2021-10-22_12h50.39.415,forced_choiceRT_color,2021.2.3,Win32,59.1401029,,,,,,,,6,Fast,short,d,1,1.8402,2,0,8,0,1,,,,,
,0.56,,,,,,,,,f,blue,610041aee58af3bd8a5a7478,2021-10-22_12h50.39.415,forced_choiceRT_color,2021.2.3,Win32,59.1401029,,,,,,,,6,Ontime,short,f,1,1.9507,2,1,9,1,1,,,,,
,1.12,,,,,,,,,j,red,610041aee58af3bd8a5a7478,2021-10-22_12h50.39.415,forced_choiceRT_color,2021.2.3,Win32,59.1401029,,,,,,,,6,Ontime,short,j,1,2.0721,2,2,10,2,1,,,,,
,1.35,,,,,,,,,f,blue,610041aee58af3bd8a5a7478,2021-10-22_12h50.39.415,forced_choiceRT_color,2021.2.3,Win32,59.1401029,,,,,,,,6,Ontime,short,f,1,1.947,2,3,11,1,1,,,,,
,1.14,,,,,,,,,d,orange,610041aee58af3bd8a5a7478,2021-10-22_12h50.39.415,forced_choiceRT_color,2021.2.3,Win32,59.1401029,,,,,,,,6,Fast,short,d,1,1.8505,3,0,12,0,1,,,,,
,0.14,,,,,,,,,k,purple,610041aee58af3bd8a5a7478,2021-10-22_12h50.39.415,forced_choiceRT_color,2021.2.3,Win32,59.1401029,,,,,,,,6,Fast,short,k,1,1.8051,3,1,13,3,1,,,,,
,1.7,,,,,,,,,f,blue,610041aee58af3bd8a5a7478,2021-10-22_12h50.39.415,forced_choiceRT_color,2021.2.3,Win32,59.1401029,,,,,,,,6,Slow,short,f,1,2.1514,3,2,14,1,1,,,,,
,0.48,,,,,,,,,j,red,610041aee58af3bd8a5a7478,2021-10-22_12h50.39.415,forced_choiceRT_color,2021.2.3,Win32,59.1401029,,,,,,,,6,Ontime,short,j,1,1.9886,3,3,15,2,1,,,,,
,0.44,,,,,,,,,d,orange,610041aee58af3bd8a5a7478,2021-10-22_12h50.39.415,forced_choiceRT_color,2021.2.3,Win32,59.1401029,,,,,,,,6,Ontime,short,d,1,1.9337,4,0,16,0,1,,,,,
,0.51,,,,,,,,,d,orange,610041aee58af3bd8a5a7478,2021-10-22_12h50.39.415,forced_choiceRT_color,2021.2.3,Win32,59.1401029,,,,,,,,6,Ontime,short,d,1,1.9507,4,1,17,0,1,,,,,
,1.17,,,,,,,,,j,red,610041aee58af3bd8a5a7478,2021-10-22_12h50.39.415,forced_choiceRT_color,2021.2.3,Win32,59.1401029,,,,,,,,6,Ontime,short,j,1,1.9577,4,2,18,2,1,,,,,
,1.96,,,,,,,,,k,purple,610041aee58af3bd8a5a7478,2021-10-22_12h50.39.415,forced_choiceRT_color,2021.2.3,Win32,59.1401029,,,,,,,,6,Slow,short,k,1,2.3006,4,3,19,3,1,,,,,
,0.96,,,,,,,,,d,orange,610041aee58af3bd8a5a7478,2021-10-22_12h50.39.415,forced_choiceRT_color,2021.2.3,Win32,59.1401029,,,,,,,,6,Ontime,short,d,1,1.9505,5,0,20,0,1,,,,,
,0.81,,,,,,,,,f,blue,610041aee58af3bd8a5a7478,2021-10-22_12h50.39.415,forced_choiceRT_color,2021.2.3,Win32,59.1401029,,,,,,,,6,Ontime,short,f,1,1.986,5,1,21,1,1,,,,,
,0.34,,,,,,,,,j,red,610041aee58af3bd8a5a7478,2021-10-22_12h50.39.415,forced_choiceRT_color,2021.2.3,Win32,59.1401029,,,,,,,,6,Ontime,short,j,1,2.0002,5,2,22,2,1,,,,,
,1.67,,,,,,,,,j,red,610041aee58af3bd8a5a7478,2021-10-22_12h50.39.415,forced_choiceRT_color,2021.2.3,Win32,59.1401029,,,,,,,,6,Ontime,short,k,0,1.9117,5,3,23,2,1,,,,,
,1.49,,,,,,,,,j,red,610041aee58af3bd8a5a7478,2021-10-22_12h50.39.415,forced_choiceRT_color,2021.2.3,Win32,59.1401029,,,,,,,,6,Ontime,short,j,1,1.9787,6,0,24,2,1,,,,,
,0.61,,,,,,,,,k,purple,610041aee58af3bd8a5a7478,2021-10-22_12h50.39.415,forced_choiceRT_color,2021.2.3,Win32,59.1401029,,,,,,,,6,Fast,short,k,1,1.8508,6,1,25,3,1,,,,,
,1.62,,,,,,,,,d,orange,610041aee58af3bd8a5a7478,2021-10-22_12h50.39.415,forced_choiceRT_color,2021.2.3,Win32,59.1401029,,,,,,,,6,Slow,short,d,1,2.2671,6,2,26,0,1,,,,,
,0.07,,,,,,,,,k,purple,610041aee58af3bd8a5a7478,2021-10-22_12h50.39.415,forced_choiceRT_color,2021.2.3,Win32,59.1401029,,,,,,,,6,Fast,short,k,1,1.8843,6,3,27,3,1,,,,,
,0.8,,,,,,,,,d,orange,610041aee58af3bd8a5a7478,2021-10-22_12h50.39.415,forced_choiceRT_color,2021.2.3,Win32,59.1401029,,,,,,,,6,Fast,short,d,1,1.884,7,0,28,0,1,,,,,
,0.74,,,,,,,,,k,purple,610041aee58af3bd8a5a7478,2021-10-22_12h50.39.415,forced_choiceRT_color,2021.2.3,Win32,59.1401029,,,,,,,,6,Ontime,short,k,1,2.084,7,1,29,3,1,,,,,
,1.09,,,,,,,,,j,red,610041aee58af3bd8a5a7478,2021-10-22_12h50.39.415,forced_choiceRT_color,2021.2.3,Win32,59.1401029,,,,,,,,6,Ontime,short,j,1,2.0279,7,2,30,2,1,,,,,
,0.64,,,,,,,,,f,blue,610041aee58af3bd8a5a7478,2021-10-22_12h50.39.415,forced_choiceRT_color,2021.2.3,Win32,59.1401029,,,,,,,,6,Ontime,short,f,1,2.0005,7,3,31,1,1,,,,,
,1.24,,,,,,,,,j,red,610041aee58af3bd8a5a7478,2021-10-22_12h50.39.415,forced_choiceRT_color,2021.2.3,Win32,59.1401029,,,,,,,,6,Ontime,short,k,0,2.0853,8,0,32,2,1,,,,,
,1.81,,,,,,,,,f,blue,610041aee58af3bd8a5a7478,2021-10-22_12h50.39.415,forced_choiceRT_color,2021.2.3,Win32,59.1401029,,,,,,,,6,Slow,short,j,0,2.2371,8,1,33,1,1,,,,,
,1.13,,,,,,,,,f,blue,610041aee58af3bd8a5a7478,2021-10-22_12h50.39.415,forced_choiceRT_color,2021.2.3,Win32,59.1401029,,,,,,,,6,Fast,short,f,1,1.8839,8,2,34,1,1,,,,,
,1.3,,,,,,,,,f,blue,610041aee58af3bd8a5a7478,2021-10-22_12h50.39.415,forced_choiceRT_color,2021.2.3,Win32,59.1401029,,,,,,,,6,Slow,short,f,1,2.2012,8,3,35,1,1,,,,,
,1.39,,,,,,,,,f,blue,610041aee58af3bd8a5a7478,2021-10-22_12h50.39.415,forced_choiceRT_color,2021.2.3,Win32,59.1401029,,,,,,,,6,Ontime,short,f,1,2.0235,9,0,36,1,1,,,,,
,0.1,,,,,,,,,k,purple,610041aee58af3bd8a5a7478,2021-10-22_12h50.39.415,forced_choiceRT_color,2021.2.3,Win32,59.1401029,,,,,,,,6,Slow,short,k,1,2.1576,9,1,37,3,1,,,,,
,1.72,,,,,,,,,d,orange,610041aee58af3bd8a5a7478,2021-10-22_12h50.39.415,forced_choiceRT_color,2021.2.3,Win32,59.1401029,,,,,,,,6,Slow,short,d,1,2.8347,9,2,38,0,1,,,,,
,0.87,,,,,,,,,j,red,610041aee58af3bd8a5a7478,2021-10-22_12h50.39.415,forced_choiceRT_color,2021.2.3,Win32,59.1401029,,,,,,,,6,Fast,short,j,1,1.8444,9,3,39,2,1,,,,,
,,,,,,,,,,,,610041aee58af3bd8a5a7478,2021-10-22_12h50.39.415,forced_choiceRT_color,2021.2.3,Win32,59.1401029,,,,,,,,,,,,,,,,,,,5,0,5,0,1
,1.03,,,,,,,,,d,orange,610041aee58af3bd8a5a7478,2021-10-22_12h50.39.415,forced_choiceRT_color,2021.2.3,Win32,59.1401029,,,,,,,,7,Fast,short,d,1,1.6708,0,0,0,0,1,,,,,
,1.6,,,,,,,,,f,blue,610041aee58af3bd8a5a7478,2021-10-22_12h50.39.415,forced_choiceRT_color,2021.2.3,Win32,59.1401029,,,,,,,,7,Ontime,short,j,0,2.0858,0,1,1,1,1,,,,,
,0.77,,,,,,,,,f,blue,610041aee58af3bd8a5a7478,2021-10-22_12h50.39.415,forced_choiceRT_color,2021.2.3,Win32,59.1401029,,,,,,,,7,Fast,short,f,1,1.8746,0,2,2,1,1,,,,,
,1.45,,,,,,,,,k,purple,610041aee58af3bd8a5a7478,2021-10-22_12h50.39.415,forced_choiceRT_color,2021.2.3,Win32,59.1401029,,,,,,,,7,Slow,short,k,1,2.1505,0,3,3,3,1,,,,,
,1.61,,,,,,,,,d,orange,610041aee58af3bd8a5a7478,2021-10-22_12h50.39.415,forced_choiceRT_color,2021.2.3,Win32,59.1401029,,,,,,,,7,Ontime,short,d,1,2.0835,1,0,4,0,1,,,,,
,0.67,,,,,,,,,k,purple,610041aee58af3bd8a5a7478,2021-10-22_12h50.39.415,forced_choiceRT_color,2021.2.3,Win32,59.1401029,,,,,,,,7,Ontime,short,k,1,1.9172,1,1,5,3,1,,,,,
,1.76,,,,,,,,,j,red,610041aee58af3bd8a5a7478,2021-10-22_12h50.39.415,forced_choiceRT_color,2021.2.3,Win32,59.1401029,,,,,,,,7,Slow,short,d,0,2.1248,1,2,6,2,1,,,,,
,0.65,,,,,,,,,k,purple,610041aee58af3bd8a5a7478,2021-10-22_12h50.39.415,forced_choiceRT_color,2021.2.3,Win32,59.1401029,,,,,,,,7,Ontime,short,k,1,2.0172,1,3,7,3,1,,,,,
,0.2,,,,,,,,,k,purple,610041aee58af3bd8a5a7478,2021-10-22_12h50.39.415,forced_choiceRT_color,2021.2.3,Win32,59.1401029,,,,,,,,7,Ontime,short,k,1,1.9516,2,0,8,3,1,,,,,
,0.75,,,,,,,,,f,blue,610041aee58af3bd8a5a7478,2021-10-22_12h50.39.415,forced_choiceRT_color,2021.2.3,Win32,59.1401029,,,,,,,,7,Ontime,short,f,1,1.9838,2,1,9,1,1,,,,,
,0.38,,,,,,,,,d,orange,610041aee58af3bd8a5a7478,2021-10-22_12h50.39.415,forced_choiceRT_color,2021.2.3,Win32,59.1401029,,,,,,,,7,Ontime,short,d,1,1.9285,2,2,10,0,1,,,,,
,0.72,,,,,,,,,j,red,610041aee58af3bd8a5a7478,2021-10-22_12h50.39.415,forced_choiceRT_color,2021.2.3,Win32,59.1401029,,,,,,,,7,Ontime,short,j,1,1.9841,2,3,11,2,1,,,,,
,1.07,,,,,,,,,k,purple,610041aee58af3bd8a5a7478,2021-10-22_12h50.39.415,forced_choiceRT_color,2021.2.3,Win32,59.1401029,,,,,,,,7,Ontime,short,k,1,1.9669,3,0,12,3,1,,,,,
,1.56,,,,,,,,,d,orange,610041aee58af3bd8a5a7478,2021-10-22_12h50.39.415,forced_choiceRT_color,2021.2.3,Win32,59.1401029,,,,,,,,7,Ontime,short,j,0,1.9596,3,1,13,0,1,,,,,
,1.24,,,,,,,,,k,purple,610041aee58af3bd8a5a7478,2021-10-22_12h50.39.415,forced_choiceRT_color,2021.2.3,Win32,59.1401029,,,,,,,,7,Ontime,short,k,1,2.017,3,2,14,3,1,,,,,
,1.78,,,,,,,,,d,orange,610041aee58af3bd8a5a7478,2021-10-22_12h50.39.415,forced_choiceRT_color,2021.2.3,Win32,59.1401029,,,,,,,,7,Slow,short,j,0,2.1862,3,3,15,0,1,,,,,
,1.38,,,,,,,,,j,red,610041aee58af3bd8a5a7478,2021-10-22_12h50.39.415,forced_choiceRT_color,2021.2.3,Win32,59.1401029,,,,,,,,7,Fast,short,j,1,1.8906,4,0,16,2,1,,,,,
,1.55,,,,,,,,,j,red,610041aee58af3bd8a5a7478,2021-10-22_12h50.39.415,forced_choiceRT_color,2021.2.3,Win32,59.1401029,,,,,,,,7,Ontime,short,j,1,2.0672,4,1,17,2,1,,,,,
,0.55,,,,,,,,,j,red,610041aee58af3bd8a5a7478,2021-10-22_12h50.39.415,forced_choiceRT_color,2021.2.3,Win32,59.1401029,,,,,,,,7,Ontime,short,j,1,1.9509,4,2,18,2,1,,,,,
,1.91,,,,,,,,,f,blue,610041aee58af3bd8a5a7478,2021-10-22_12h50.39.415,forced_choiceRT_color,2021.2.3,Win32,59.1401029,,,,,,,,7,Ontime,short,k,0,2.0284,4,3,19,1,1,,,,,
,1.73,,,,,,,,,j,red,610041aee58af3bd8a5a7478,2021-10-22_12h50.39.415,forced_choiceRT_color,2021.2.3,Win32,59.1401029,,,,,,,,7,Ontime,short,j,1,2.0234,5,0,20,2,1,,,,,
,0.91,,,,,,,,,d,orange,610041aee58af3bd8a5a7478,2021-10-22_12h50.39.415,forced_choiceRT_color,2021.2.3,Win32,59.1401029,,,,,,,,7,Slow,short,k,0,2.2469,5,1,21,0,1,,,,,
,1.11,,,,,,,,,k,purple,610041aee58af3bd8a5a7478,2021-10-22_12h50.39.415,forced_choiceRT_color,2021.2.3,Win32,59.1401029,,,,,,,,7,Fast,short,k,1,1.8672,5,2,22,3,1,,,,,
,1.89,,,,,,,,,d,orange,610041aee58af3bd8a5a7478,2021-10-22_12h50.39.415,forced_choiceRT_color,2021.2.3,Win32,59.1401029,,,,,,,,7,Slow,short,d,1,2.2124,5,3,23,0,1,,,,,
,1.49,,,,,,,,,j,red,610041aee58af3bd8a5a7478,2021-10-22_12h50.39.415,forced_choiceRT_color,2021.2.3,Win32,59.1401029,,,,,,,,7,Ontime,short,j,1,1.9009,6,0,24,2,1,,,,,
,1.44,,,,,,,,,f,blue,610041aee58af3bd8a5a7478,2021-10-22_12h50.39.415,forced_choiceRT_color,2021.2.3,Win32,59.1401029,,,,,,,,7,Ontime,short,f,1,1.9615,6,1,25,1,1,,,,,
,1.41,,,,,,,,,d,orange,610041aee58af3bd8a5a7478,2021-10-22_12h50.39.415,forced_choiceRT_color,2021.2.3,Win32,59.1401029,,,,,,,,7,Fast,short,k,0,1.8931,6,2,26,0,1,,,,,
,0.66,,,,,,,,,k,purple,610041aee58af3bd8a5a7478,2021-10-22_12h50.39.415,forced_choiceRT_color,2021.2.3,Win32,59.1401029,,,,,,,,7,Ontime,short,k,1,2.0071,6,3,27,3,1,,,,,
,1.51,,,,,,,,,f,blue,610041aee58af3bd8a5a7478,2021-10-22_12h50.39.415,forced_choiceRT_color,2021.2.3,Win32,59.1401029,,,,,,,,7,Ontime,short,j,0,1.9784,7,0,28,1,1,,,,,
,1.32,,,,,,,,,f,blue,610041aee58af3bd8a5a7478,2021-10-22_12h50.39.415,forced_choiceRT_color,2021.2.3,Win32,59.1401029,,,,,,,,7,Ontime,short,f,1,1.9093,7,1,29,1,1,,,,,
,0.39,,,,,,,,,k,purple,610041aee58af3bd8a5a7478,2021-10-22_12h50.39.415,forced_choiceRT_color,2021.2.3,Win32,59.1401029,,,,,,,,7,Ontime,short,k,1,1.9016,7,2,30,3,1,,,,,
,0.31,,,,,,,,,j,red,610041aee58af3bd8a5a7478,2021-10-22_12h50.39.415,forced_choiceRT_color,2021.2.3,Win32,59.1401029,,,,,,,,7,Ontime,short,j,1,1.9505,7,3,31,2,1,,,,,
,0.74,,,,,,,,,j,red,610041aee58af3bd8a5a7478,2021-10-22_12h50.39.415,forced_choiceRT_color,2021.2.3,Win32,59.1401029,,,,,,,,7,Ontime,short,j,1,1.9676,8,0,32,2,1,,,,,
,0.09,,,,,,,,,f,blue,610041aee58af3bd8a5a7478,2021-10-22_12h50.39.415,forced_choiceRT_color,2021.2.3,Win32,59.1401029,,,,,,,,7,Fast,short,f,1,1.8674,8,1,33,1,1,,,,,
,0.64,,,,,,,,,k,purple,610041aee58af3bd8a5a7478,2021-10-22_12h50.39.415,forced_choiceRT_color,2021.2.3,Win32,59.1401029,,,,,,,,7,Ontime,short,k,1,1.9838,8,2,34,3,1,,,,,
,0.95,,,,,,,,,d,orange,610041aee58af3bd8a5a7478,2021-10-22_12h50.39.415,forced_choiceRT_color,2021.2.3,Win32,59.1401029,,,,,,,,7,Ontime,short,d,1,2.0172,8,3,35,0,1,,,,,
,0.82,,,,,,,,,f,blue,610041aee58af3bd8a5a7478,2021-10-22_12h50.39.415,forced_choiceRT_color,2021.2.3,Win32,59.1401029,,,,,,,,7,Ontime,short,f,1,2.0505,9,0,36,1,1,,,,,
,1.39,,,,,,,,,f,blue,610041aee58af3bd8a5a7478,2021-10-22_12h50.39.415,forced_choiceRT_color,2021.2.3,Win32,59.1401029,,,,,,,,7,Ontime,short,f,1,2.0582,9,1,37,1,1,,,,,
,0.5,,,,,,,,,j,red,610041aee58af3bd8a5a7478,2021-10-22_12h50.39.415,forced_choiceRT_color,2021.2.3,Win32,59.1401029,,,,,,,,7,Ontime,short,j,1,1.9548,9,2,38,2,1,,,,,
,1.02,,,,,,,,,d,orange,610041aee58af3bd8a5a7478,2021-10-22_12h50.39.415,forced_choiceRT_color,2021.2.3,Win32,59.1401029,,,,,,,,7,Ontime,short,d,1,1.9568,9,3,39,0,1,,,,,
,,,,,,,,,,,,610041aee58af3bd8a5a7478,2021-10-22_12h50.39.415,forced_choiceRT_color,2021.2.3,Win32,59.1401029,,,,,,,,,,,,,,,,,,,6,0,6,0,1
,0.15,,,,,,,,,f,blue,610041aee58af3bd8a5a7478,2021-10-22_12h50.39.415,forced_choiceRT_color,2021.2.3,Win32,59.1401029,,,,,,,,8,Ontime,short,f,1,1.9339,0,0,0,1,1,,,,,
,1.74,,,,,,,,,f,blue,610041aee58af3bd8a5a7478,2021-10-22_12h50.39.415,forced_choiceRT_color,2021.2.3,Win32,59.1401029,,,,,,,,8,Ontime,short,j,0,2.0506,0,1,1,1,1,,,,,
,1.4,,,,,,,,,k,purple,610041aee58af3bd8a5a7478,2021-10-22_12h50.39.415,forced_choiceRT_color,2021.2.3,Win32,59.1401029,,,,,,,,8,Ontime,short,k,1,1.9503,0,2,2,3,1,,,,,
,0.07,,,,,,,,,j,red,610041aee58af3bd8a5a7478,2021-10-22_12h50.39.415,forced_choiceRT_color,2021.2.3,Win32,59.1401029,,,,,,,,8,Ontime,short,j,1,1.9468,0,3,3,2,1,,,,,
,1.04,,,,,,,,,f,blue,610041aee58af3bd8a5a7478,2021-10-22_12h50.39.415,forced_choiceRT_color,2021.2.3,Win32,59.1401029,,,,,,,,8,Ontime,short,f,1,1.9545,1,0,4,1,1,,,,,
,1.82,,,,,,,,,d,orange,610041aee58af3bd8a5a7478,2021-10-22_12h50.39.415,forced_choiceRT_color,2021.2.3,Win32,59.1401029,,,,,,,,8,Ontime,short,j,0,2.086,1,1,5,0,1,,,,,
,1.61,,,,,,,,,d,orange,610041aee58af3bd8a5a7478,2021-10-22_12h50.39.415,forced_choiceRT_color,2021.2.3,Win32,59.1401029,,,,,,,,8,Ontime,short,k,0,2.0845,1,2,6,0,1,,,,,
,1.02,,,,,,,,,j,red,610041aee58af3bd8a5a7478,2021-10-22_12h50.39.415,forced_choiceRT_color,2021.2.3,Win32,59.1401029,,,,,,,,8,Ontime,short,j,1,1.984,1,3,7,2,1,,,,,
,0.98,,,,,,,,,j,red,610041aee58af3bd8a5a7478,2021-10-22_12h50.39.415,forced_choiceRT_color,2021.2.3,Win32,59.1401029,,,,,,,,8,Ontime,short,j,1,2.0177,2,0,8,2,1,,,,,
,1.31,,,,,,,,,d,orange,610041aee58af3bd8a5a7478,2021-10-22_12h50.39.415,forced_choiceRT_color,2021.2.3,Win32,59.1401029,,,,,,,,8,Fast,short,d,1,1.8712,2,1,9,0,1,,,,,
,1.15,,,,,,,,,k,purple,610041aee58af3bd8a5a7478,2021-10-22_12h50.39.415,forced_choiceRT_color,2021.2.3,Win32,59.1401029,,,,,,,,8,Ontime,short,k,1,1.9006,2,2,10,3,1,,,,,
,0.8,,,,,,,,,f,blue,610041aee58af3bd8a5a7478,2021-10-22_12h50.39.415,forced_choiceRT_color,2021.2.3,Win32,59.1401029,,,,,,,,8,Ontime,short,f,1,1.9008,2,3,11,1,1,,,,,
,1.19,,,,,,,,,d,orange,610041aee58af3bd8a5a7478,2021-10-22_12h50.39.415,forced_choiceRT_color,2021.2.3,Win32,59.1401029,,,,,,,,8,Ontime,short,d,1,1.9855,3,0,12,0,1,,,,,
,0.56,,,,,,,,,k,purple,610041aee58af3bd8a5a7478,2021-10-22_12h50.39.415,forced_choiceRT_color,2021.2.3,Win32,59.1401029,,,,,,,,8,Ontime,short,k,1,1.9504,3,1,13,3,1,,,,,
,0.73,,,,,,,,,j,red,610041aee58af3bd8a5a7478,2021-10-22_12h50.39.415,forced_choiceRT_color,2021.2.3,Win32,59.1401029,,,,,,,,8,Ontime,short,j,1,1.9006,3,2,14,2,1,,,,,
,0.59,,,,,,,,,k,purple,610041aee58af3bd8a5a7478,2021-10-22_12h50.39.415,forced_choiceRT_color,2021.2.3,Win32,59.1401029,,,,,,,,8,Ontime,short,k,1,1.9874,3,3,15,3,1,,,,,
,0.4,,,,,,,,,j,red,610041aee58af3bd8a5a7478,2021-10-22_12h50.39.415,forced_choiceRT_color,2021.2.3,Win32,59.1401029,,,,,,,,8,Ontime,short,j,1,1.9505,4,0,16,2,1,,,,,
,1.75,,,,,,,,,j,red,610041aee58af3bd8a5a7478,2021-10-22_12h50.39.415,forced_choiceRT_color,2021.2.3,Win32,59.1401029,,,,,,,,8,Ontime,short,f,0,1.967,4,1,17,2,1,,,,,
,1.03,,,,,,,,,k,purple,610041aee58af3bd8a5a7478,2021-10-22_12h50.39.415,forced_choiceRT_color,2021.2.3,Win32,59.1401029,,,,,,,,8,Ontime,short,k,1,1.9442,4,2,18,3,1,,,,,
,0.26,,,,,,,,,d,orange,610041aee58af3bd8a5a7478,2021-10-22_12h50.39.415,forced_choiceRT_color,2021.2.3,Win32,59.1401029,,,,,,,,8,Ontime,short,d,1,1.9594,4,3,19,0,1,,,,,
,0.2,,,,,,,,,j,red,610041aee58af3bd8a5a7478,2021-10-22_12h50.39.415,forced_choiceRT_color,2021.2.3,Win32,59.1401029,,,,,,,,8,Ontime,short,j,1,2.0503,5,0,20,2,1,,,,,
,0.9,,,,,,,,,j,red,610041aee58af3bd8a5a7478,2021-10-22_12h50.39.415,forced_choiceRT_color,2021.2.3,Win32,59.1401029,,,,,,,,8,Ontime,short,j,1,2.0238,5,1,21,2,1,,,,,
,0.27,,,,,,,,,f,blue,610041aee58af3bd8a5a7478,2021-10-22_12h50.39.415,forced_choiceRT_color,2021.2.3,Win32,59.1401029,,,,,,,,8,Fast,short,f,1,1.8685,5,2,22,1,1,,,,,
,1.78,,,,,,,,,f,blue,610041aee58af3bd8a5a7478,2021-10-22_12h50.39.415,forced_choiceRT_color,2021.2.3,Win32,59.1401029,,,,,,,,8,Fast,short,f,1,1.8596,5,3,23,1,1,,,,,
,0.61,,,,,,,,,f,blue,610041aee58af3bd8a5a7478,2021-10-22_12h50.39.415,forced_choiceRT_color,2021.2.3,Win32,59.1401029,,,,,,,,8,Ontime,short,f,1,1.9338,6,0,24,1,1,,,,,
,0.16,,,,,,,,,d,orange,610041aee58af3bd8a5a7478,2021-10-22_12h50.39.415,forced_choiceRT_color,2021.2.3,Win32,59.1401029,,,,,,,,8,Ontime,short,d,1,2.0506,6,1,25,0,1,,,,,
,0.29,,,,,,,,,d,orange,610041aee58af3bd8a5a7478,2021-10-22_12h50.39.415,forced_choiceRT_color,2021.2.3,Win32,59.1401029,,,,,,,,8,Ontime,short,d,1,1.9218,6,2,26,0,1,,,,,
,0.53,,,,,,,,,d,orange,610041aee58af3bd8a5a7478,2021-10-22_12h50.39.415,forced_choiceRT_color,2021.2.3,Win32,59.1401029,,,,,,,,8,Ontime,short,d,1,1.9558,6,3,27,0,1,,,,,
,0.55,,,,,,,,,k,purple,610041aee58af3bd8a5a7478,2021-10-22_12h50.39.415,forced_choiceRT_color,2021.2.3,Win32,59.1401029,,,,,,,,8,Ontime,short,k,1,1.9575,7,0,28,3,1,,,,,
,1.22,,,,,,,,,j,red,610041aee58af3bd8a5a7478,2021-10-22_12h50.39.415,forced_choiceRT_color,2021.2.3,Win32,59.1401029,,,,,,,,8,Ontime,short,j,1,2.0342,7,1,29,2,1,,,,,
,0.56,,,,,,,,,k,purple,610041aee58af3bd8a5a7478,2021-10-22_12h50.39.415,forced_choiceRT_color,2021.2.3,Win32,59.1401029,,,,,,,,8,Ontime,short,j,0,2.0031,7,2,30,3,1,,,,,
,0.14,,,,,,,,,j,red,610041aee58af3bd8a5a7478,2021-10-22_12h50.39.415,forced_choiceRT_color,2021.2.3,Win32,59.1401029,,,,,,,,8,Ontime,short,j,1,2.0304,7,3,31,2,1,,,,,
,0.05,,,,,,,,,k,purple,610041aee58af3bd8a5a7478,2021-10-22_12h50.39.415,forced_choiceRT_color,2021.2.3,Win32,59.1401029,,,,,,,,8,Ontime,short,k,1,1.9295,8,0,32,3,1,,,,,
,0.45,,,,,,,,,k,purple,610041aee58af3bd8a5a7478,2021-10-22_12h50.39.415,forced_choiceRT_color,2021.2.3,Win32,59.1401029,,,,,,,,8,Ontime,short,k,1,2.0505,8,1,33,3,1,,,,,
,1.89,,,,,,,,,f,blue,610041aee58af3bd8a5a7478,2021-10-22_12h50.39.415,forced_choiceRT_color,2021.2.3,Win32,59.1401029,,,,,,,,8,Slow,short,f,1,2.1008,8,2,34,1,1,,,,,
,0.86,,,,,,,,,f,blue,610041aee58af3bd8a5a7478,2021-10-22_12h50.39.415,forced_choiceRT_color,2021.2.3,Win32,59.1401029,,,,,,,,8,Fast,short,f,1,1.7842,8,3,35,1,1,,,,,
,1.5,,,,,,,,,d,orange,610041aee58af3bd8a5a7478,2021-10-22_12h50.39.415,forced_choiceRT_color,2021.2.3,Win32,59.1401029,,,,,,,,8,Ontime,short,f,0,2.0342,9,0,36,0,1,,,,,
,0.44,,,,,,,,,d,orange,610041aee58af3bd8a5a7478,2021-10-22_12h50.39.415,forced_choiceRT_color,2021.2.3,Win32,59.1401029,,,,,,,,8,Ontime,short,d,1,1.9338,9,1,37,0,1,,,,,
,0.33,,,,,,,,,k,purple,610041aee58af3bd8a5a7478,2021-10-22_12h50.39.415,forced_choiceRT_color,2021.2.3,Win32,59.1401029,,,,,,,,8,Ontime,short,k,1,1.946,9,2,38,3,1,,,,,
,1.2,,,,,,,,,f,blue,610041aee58af3bd8a5a7478,2021-10-22_12h50.39.415,forced_choiceRT_color,2021.2.3,Win32,59.1401029,,,,,,,,8,Ontime,short,f,1,1.9667,9,3,39,1,1,,,,,
,,,,,,,,,,,,610041aee58af3bd8a5a7478,2021-10-22_12h50.39.415,forced_choiceRT_color,2021.2.3,Win32,59.1401029,,,,,,,,,,,,,,,,,,,7,0,7,0,1
,0.62,,,,,,,,,d,orange,610041aee58af3bd8a5a7478,2021-10-22_12h50.39.415,forced_choiceRT_color,2021.2.3,Win32,59.1401029,,,,,,,,9,Ontime,short,d,1,1.9747,0,0,0,0,1,,,,,
,0.96,,,,,,,,,d,orange,610041aee58af3bd8a5a7478,2021-10-22_12h50.39.415,forced_choiceRT_color,2021.2.3,Win32,59.1401029,,,,,,,,9,Ontime,short,d,1,1.9104,0,1,1,0,1,,,,,
,1.84,,,,,,,,,f,blue,610041aee58af3bd8a5a7478,2021-10-22_12h50.39.415,forced_choiceRT_color,2021.2.3,Win32,59.1401029,,,,,,,,9,Ontime,short,f,1,1.9674,0,2,2,1,1,,,,,
,0.96,,,,,,,,,k,purple,610041aee58af3bd8a5a7478,2021-10-22_12h50.39.415,forced_choiceRT_color,2021.2.3,Win32,59.1401029,,,,,,,,9,Fast,short,k,1,1.8917,0,3,3,3,1,,,,,
,1.62,,,,,,,,,d,orange,610041aee58af3bd8a5a7478,2021-10-22_12h50.39.415,forced_choiceRT_color,2021.2.3,Win32,59.1401029,,,,,,,,9,Fast,short,d,1,1.8673,1,0,4,0,1,,,,,
,1.03,,,,,,,,,k,purple,610041aee58af3bd8a5a7478,2021-10-22_12h50.39.415,forced_choiceRT_color,2021.2.3,Win32,59.1401029,,,,,,,,9,Ontime,short,k,1,1.9555,1,1,5,3,1,,,,,
,1.07,,,,,,,,,f,blue,610041aee58af3bd8a5a7478,2021-10-22_12h50.39.415,forced_choiceRT_color,2021.2.3,Win32,59.1401029,,,,,,,,9,Ontime,short,f,1,1.9088,1,2,6,1,1,,,,,
,0.57,,,,,,,,,k,purple,610041aee58af3bd8a5a7478,2021-10-22_12h50.39.415,forced_choiceRT_color,2021.2.3,Win32,59.1401029,,,,,,,,9,Ontime,short,k,1,1.9839,1,3,7,3,1,,,,,
,0.55,,,,,,,,,j,red,610041aee58af3bd8a5a7478,2021-10-22_12h50.39.415,forced_choiceRT_color,2021.2.3,Win32,59.1401029,,,,,,,,9,Slow,short,j,1,2.1096,2,0,8,2,1,,,,,
,0.64,,,,,,,,,j,red,610041aee58af3bd8a5a7478,2021-10-22_12h50.39.415,forced_choiceRT_color,2021.2.3,Win32,59.1401029,,,,,,,,9,Ontime,short,j,1,1.9364,2,1,9,2,1,,,,,
,0.73,,,,,,,,,d,orange,610041aee58af3bd8a5a7478,2021-10-22_12h50.39.415,forced_choiceRT_color,2021.2.3,Win32,59.1401029,,,,,,,,9,Ontime,short,d,1,1.9237,2,2,10,0,1,,,,,
,0.5,,,,,,,,,k,purple,610041aee58af3bd8a5a7478,2021-10-22_12h50.39.415,forced_choiceRT_color,2021.2.3,Win32,59.1401029,,,,,,,,9,Ontime,short,k,1,1.9341,2,3,11,3,1,,,,,
,1.92,,,,,,,,,j,red,610041aee58af3bd8a5a7478,2021-10-22_12h50.39.415,forced_choiceRT_color,2021.2.3,Win32,59.1401029,,,,,,,,9,Ontime,short,f,0,2.0506,3,0,12,2,1,,,,,
,1.13,,,,,,,,,d,orange,610041aee58af3bd8a5a7478,2021-10-22_12h50.39.415,forced_choiceRT_color,2021.2.3,Win32,59.1401029,,,,,,,,9,Ontime,short,d,1,1.9555,3,1,13,0,1,,,,,
,0.84,,,,,,,,,d,orange,610041aee58af3bd8a5a7478,2021-10-22_12h50.39.415,forced_choiceRT_color,2021.2.3,Win32,59.1401029,,,,,,,,9,Ontime,short,k,0,1.9275,3,2,14,0,1,,,,,
,0.85,,,,,,,,,d,orange,610041aee58af3bd8a5a7478,2021-10-22_12h50.39.415,forced_choiceRT_color,2021.2.3,Win32,59.1401029,,,,,,,,9,Ontime,short,d,1,2.0018,3,3,15,0,1,,,,,
,0.56,,,,,,,,,j,red,610041aee58af3bd8a5a7478,2021-10-22_12h50.39.415,forced_choiceRT_color,2021.2.3,Win32,59.1401029,,,,,,,,9,Fast,short,j,1,1.8657,4,0,16,2,1,,,,,
,0.4,,,,,,,,,f,blue,610041aee58af3bd8a5a7478,2021-10-22_12h50.39.415,forced_choiceRT_color,2021.2.3,Win32,59.1401029,,,,,,,,9,Ontime,short,f,1,1.9339,4,1,17,1,1,,,,,
,1.04,,,,,,,,,k,purple,610041aee58af3bd8a5a7478,2021-10-22_12h50.39.415,forced_choiceRT_color,2021.2.3,Win32,59.1401029,,,,,,,,9,Ontime,short,k,1,1.9096,4,2,18,3,1,,,,,
,0.59,,,,,,,,,j,red,610041aee58af3bd8a5a7478,2021-10-22_12h50.39.415,forced_choiceRT_color,2021.2.3,Win32,59.1401029,,,,,,,,9,Ontime,short,j,1,1.9267,4,3,19,2,1,,,,,
,1.65,,,,,,,,,f,blue,610041aee58af3bd8a5a7478,2021-10-22_12h50.39.415,forced_choiceRT_color,2021.2.3,Win32,59.1401029,,,,,,,,9,Ontime,short,k,0,1.9712,5,0,20,1,1,,,,,
,1.64,,,,,,,,,f,blue,610041aee58af3bd8a5a7478,2021-10-22_12h50.39.415,forced_choiceRT_color,2021.2.3,Win32,59.1401029,,,,,,,,9,Ontime,short,k,0,2.0265,5,1,21,1,1,,,,,
,0.81,,,,,,,,,d,orange,610041aee58af3bd8a5a7478,2021-10-22_12h50.39.415,forced_choiceRT_color,2021.2.3,Win32,59.1401029,,,,,,,,9,Ontime,short,d,1,1.9012,5,2,22,0,1,,,,,
,0.62,,,,,,,,,k,purple,610041aee58af3bd8a5a7478,2021-10-22_12h50.39.415,forced_choiceRT_color,2021.2.3,Win32,59.1401029,,,,,,,,9,Ontime,short,k,1,1.9339,5,3,23,3,1,,,,,
,0.14,,,,,,,,,f,blue,610041aee58af3bd8a5a7478,2021-10-22_12h50.39.415,forced_choiceRT_color,2021.2.3,Win32,59.1401029,,,,,,,,9,Fast,short,f,1,1.8845,6,0,24,1,1,,,,,
,0.51,,,,,,,,,f,blue,610041aee58af3bd8a5a7478,2021-10-22_12h50.39.415,forced_choiceRT_color,2021.2.3,Win32,59.1401029,,,,,,,,9,Ontime,short,f,1,2.0118,6,1,25,1,1,,,,,
,0.23,,,,,,,,,f,blue,610041aee58af3bd8a5a7478,2021-10-22_12h50.39.415,forced_choiceRT_color,2021.2.3,Win32,59.1401029,,,,,,,,9,Ontime,short,f,1,1.9171,6,2,26,1,1,,,,,
,1.51,,,,,,,,,d,orange,610041aee58af3bd8a5a7478,2021-10-22_12h50.39.415,forced_choiceRT_color,2021.2.3,Win32,59.1401029,,,,,,,,9,Ontime,short,d,1,2.0839,6,3,27,0,1,,,,,
,0.12,,,,,,,,,j,red,610041aee58af3bd8a5a7478,2021-10-22_12h50.39.415,forced_choiceRT_color,2021.2.3,Win32,59.1401029,,,,,,,,9,Ontime,short,j,1,1.9447,7,0,28,2,1,,,,,
,0.64,,,,,,,,,j,red,610041aee58af3bd8a5a7478,2021-10-22_12h50.39.415,forced_choiceRT_color,2021.2.3,Win32,59.1401029,,,,,,,,9,Ontime,short,j,1,1.9278,7,1,29,2,1,,,,,
,0,,,,,,,,,f,blue,610041aee58af3bd8a5a7478,2021-10-22_12h50.39.415,forced_choiceRT_color,2021.2.3,Win32,59.1401029,,,,,,,,9,Fast,short,f,1,1.8542,7,2,30,1,1,,,,,
,1.09,,,,,,,,,j,red,610041aee58af3bd8a5a7478,2021-10-22_12h50.39.415,forced_choiceRT_color,2021.2.3,Win32,59.1401029,,,,,,,,9,Ontime,short,j,1,1.9271,7,3,31,2,1,,,,,
,0.78,,,,,,,,,d,orange,610041aee58af3bd8a5a7478,2021-10-22_12h50.39.415,forced_choiceRT_color,2021.2.3,Win32,59.1401029,,,,,,,,9,Ontime,short,d,1,2.0836,8,0,32,0,1,,,,,
,0.53,,,,,,,,,j,red,610041aee58af3bd8a5a7478,2021-10-22_12h50.39.415,forced_choiceRT_color,2021.2.3,Win32,59.1401029,,,,,,,,9,Ontime,short,j,1,1.9839,8,1,33,2,1,,,,,
,0.21,,,,,,,,,k,purple,610041aee58af3bd8a5a7478,2021-10-22_12h50.39.415,forced_choiceRT_color,2021.2.3,Win32,59.1401029,,,,,,,,9,Slow,short,k,1,2.1342,8,2,34,3,1,,,,,
,1.69,,,,,,,,,k,purple,610041aee58af3bd8a5a7478,2021-10-22_12h50.39.415,forced_choiceRT_color,2021.2.3,Win32,59.1401029,,,,,,,,9,Slow,short,k,1,2.225,8,3,35,3,1,,,,,
,1.4,,,,,,,,,k,purple,610041aee58af3bd8a5a7478,2021-10-22_12h50.39.415,forced_choiceRT_color,2021.2.3,Win32,59.1401029,,,,,,,,9,Fast,short,k,1,1.8866,9,0,36,3,1,,,,,
,1.27,,,,,,,,,k,purple,610041aee58af3bd8a5a7478,2021-10-22_12h50.39.415,forced_choiceRT_color,2021.2.3,Win32,59.1401029,,,,,,,,9,Fast,short,k,1,1.8671,9,1,37,3,1,,,,,
,0.98,,,,,,,,,j,red,610041aee58af3bd8a5a7478,2021-10-22_12h50.39.415,forced_choiceRT_color,2021.2.3,Win32,59.1401029,,,,,,,,9,Ontime,short,j,1,1.9671,9,2,38,2,1,,,,,
,0.16,,,,,,,,,f,blue,610041aee58af3bd8a5a7478,2021-10-22_12h50.39.415,forced_choiceRT_color,2021.2.3,Win32,59.1401029,,,,,,,,9,Ontime,short,f,1,1.9026,9,3,39,1,1,,,,,
,,,,,,,,,,,,610041aee58af3bd8a5a7478,2021-10-22_12h50.39.415,forced_choiceRT_color,2021.2.3,Win32,59.1401029,,,,,,,,,,,,,,,,,,,8,0,8,0,1
,0.05,,,,,,,,,d,orange,610041aee58af3bd8a5a7478,2021-10-22_12h50.39.415,forced_choiceRT_color,2021.2.3,Win32,59.1401029,,,,,,,,10,Ontime,short,d,1,1.9072,0,0,0,0,1,,,,,
,1.16,,,,,,,,,d,orange,610041aee58af3bd8a5a7478,2021-10-22_12h50.39.415,forced_choiceRT_color,2021.2.3,Win32,59.1401029,,,,,,,,10,Ontime,short,d,1,2.0435,0,1,1,0,1,,,,,
,0.11,,,,,,,,,k,purple,610041aee58af3bd8a5a7478,2021-10-22_12h50.39.415,forced_choiceRT_color,2021.2.3,Win32,59.1401029,,,,,,,,10,Ontime,short,k,1,2.0114,0,2,2,3,1,,,,,
,0.46,,,,,,,,,f,blue,610041aee58af3bd8a5a7478,2021-10-22_12h50.39.415,forced_choiceRT_color,2021.2.3,Win32,59.1401029,,,,,,,,10,Ontime,short,f,1,2.0172,0,3,3,1,1,,,,,
,0.1,,,,,,,,,f,blue,610041aee58af3bd8a5a7478,2021-10-22_12h50.39.415,forced_choiceRT_color,2021.2.3,Win32,59.1401029,,,,,,,,10,Ontime,short,f,1,1.9339,1,0,4,1,1,,,,,
,0.59,,,,,,,,,f,blue,610041aee58af3bd8a5a7478,2021-10-22_12h50.39.415,forced_choiceRT_color,2021.2.3,Win32,59.1401029,,,,,,,,10,Ontime,short,f,1,2.0173,1,1,5,1,1,,,,,
,1.41,,,,,,,,,d,orange,610041aee58af3bd8a5a7478,2021-10-22_12h50.39.415,forced_choiceRT_color,2021.2.3,Win32,59.1401029,,,,,,,,10,Ontime,short,j,0,1.9409,1,2,6,0,1,,,,,
,1.97,,,,,,,,,j,red,610041aee58af3bd8a5a7478,2021-10-22_12h50.39.415,forced_choiceRT_color,2021.2.3,Win32,59.1401029,,,,,,,,10,Ontime,short,j,1,2.0008,1,3,7,2,1,,,,,
,0.15,,,,,,,,,j,red,610041aee58af3bd8a5a7478,2021-10-22_12h50.39.415,forced_choiceRT_color,2021.2.3,Win32,59.1401029,,,,,,,,10,Ontime,short,j,1,1.9006,2,0,8,2,1,,,,,
,0.77,,,,,,,,,j,red,610041aee58af3bd8a5a7478,2021-10-22_12h50.39.415,forced_choiceRT_color,2021.2.3,Win32,59.1401029,,,,,,,,10,Ontime,short,j,1,1.9421,2,1,9,2,1,,,,,
,0.25,,,,,,,,,d,orange,610041aee58af3bd8a5a7478,2021-10-22_12h50.39.415,forced_choiceRT_color,2021.2.3,Win32,59.1401029,,,,,,,,10,Fast,short,d,1,1.8998,2,2,10,0,1,,,,,
,0.65,,,,,,,,,d,orange,610041aee58af3bd8a5a7478,2021-10-22_12h50.39.415,forced_choiceRT_color,2021.2.3,Win32,59.1401029,,,,,,,,10,Ontime,short,d,1,1.9504,2,3,11,0,1,,,,,
,0.64,,,,,,,,,k,purple,610041aee58af3bd8a5a7478,2021-10-22_12h50.39.415,forced_choiceRT_color,2021.2.3,Win32,59.1401029,,,,,,,,10,Ontime,short,k,1,2.026,3,0,12,3,1,,,,,
,1.42,,,,,,,,,j,red,610041aee58af3bd8a5a7478,2021-10-22_12h50.39.415,forced_choiceRT_color,2021.2.3,Win32,59.1401029,,,,,,,,10,Slow,short,j,1,2.867,3,1,13,2,1,,,,,
,1.09,,,,,,,,,f,blue,610041aee58af3bd8a5a7478,2021-10-22_12h50.39.415,forced_choiceRT_color,2021.2.3,Win32,59.1401029,,,,,,,,10,Ontime,short,d,0,1.9681,3,2,14,1,1,,,,,
,1.55,,,,,,,,,f,blue,610041aee58af3bd8a5a7478,2021-10-22_12h50.39.415,forced_choiceRT_color,2021.2.3,Win32,59.1401029,,,,,,,,10,Ontime,short,f,1,1.9452,3,3,15,1,1,,,,,
,0.22,,,,,,,,,d,orange,610041aee58af3bd8a5a7478,2021-10-22_12h50.39.415,forced_choiceRT_color,2021.2.3,Win32,59.1401029,,,,,,,,10,Ontime,short,d,1,1.9172,4,0,16,0,1,,,,,
,0.05,,,,,,,,,j,red,610041aee58af3bd8a5a7478,2021-10-22_12h50.39.415,forced_choiceRT_color,2021.2.3,Win32,59.1401029,,,,,,,,10,Fast,short,j,1,1.8952,4,1,17,2,1,,,,,
,1.75,,,,,,,,,f,blue,610041aee58af3bd8a5a7478,2021-10-22_12h50.39.415,forced_choiceRT_color,2021.2.3,Win32,59.1401029,,,,,,,,10,Ontime,short,j,0,1.9006,4,2,18,1,1,,,,,
,1.58,,,,,,,,,d,orange,610041aee58af3bd8a5a7478,2021-10-22_12h50.39.415,forced_choiceRT_color,2021.2.3,Win32,59.1401029,,,,,,,,10,Fast,short,j,0,1.8191,4,3,19,0,1,,,,,
,0.39,,,,,,,,,k,purple,610041aee58af3bd8a5a7478,2021-10-22_12h50.39.415,forced_choiceRT_color,2021.2.3,Win32,59.1401029,,,,,,,,10,Fast,short,k,1,1.8196,5,0,20,3,1,,,,,
,1.27,,,,,,,,,j,red,610041aee58af3bd8a5a7478,2021-10-22_12h50.39.415,forced_choiceRT_color,2021.2.3,Win32,59.1401029,,,,,,,,10,Ontime,short,j,1,1.9351,5,1,21,2,1,,,,,
,1.51,,,,,,,,,k,purple,610041aee58af3bd8a5a7478,2021-10-22_12h50.39.415,forced_choiceRT_color,2021.2.3,Win32,59.1401029,,,,,,,,10,Ontime,short,k,1,1.9134,5,2,22,3,1,,,,,
,0.44,,,,,,,,,k,purple,610041aee58af3bd8a5a7478,2021-10-22_12h50.39.415,forced_choiceRT_color,2021.2.3,Win32,59.1401029,,,,,,,,10,Fast,short,k,1,1.7757,5,3,23,3,1,,,,,
,0.5,,,,,,,,,j,red,610041aee58af3bd8a5a7478,2021-10-22_12h50.39.415,forced_choiceRT_color,2021.2.3,Win32,59.1401029,,,,,,,,10,Fast,short,j,1,1.8506,6,0,24,2,1,,,,,
,0.51,,,,,,,,,d,orange,610041aee58af3bd8a5a7478,2021-10-22_12h50.39.415,forced_choiceRT_color,2021.2.3,Win32,59.1401029,,,,,,,,10,Ontime,short,d,1,1.9839,6,1,25,0,1,,,,,
,1.77,,,,,,,,,j,red,610041aee58af3bd8a5a7478,2021-10-22_12h50.39.415,forced_choiceRT_color,2021.2.3,Win32,59.1401029,,,,,,,,10,Ontime,short,d,0,1.939,6,2,26,2,1,,,,,
,1.36,,,,,,,,,k,purple,610041aee58af3bd8a5a7478,2021-10-22_12h50.39.415,forced_choiceRT_color,2021.2.3,Win32,59.1401029,,,,,,,,10,Ontime,short,k,1,1.9352,6,3,27,3,1,,,,,
,0.22,,,,,,,,,d,orange,610041aee58af3bd8a5a7478,2021-10-22_12h50.39.415,forced_choiceRT_color,2021.2.3,Win32,59.1401029,,,,,,,,10,Ontime,short,d,1,1.9167,7,0,28,0,1,,,,,
,0.26,,,,,,,,,f,blue,610041aee58af3bd8a5a7478,2021-10-22_12h50.39.415,forced_choiceRT_color,2021.2.3,Win32,59.1401029,,,,,,,,10,Ontime,short,f,1,1.9232,7,1,29,1,1,,,,,
,0.02,,,,,,,,,f,blue,610041aee58af3bd8a5a7478,2021-10-22_12h50.39.415,forced_choiceRT_color,2021.2.3,Win32,59.1401029,,,,,,,,10,Ontime,short,f,1,1.9144,7,2,30,1,1,,,,,
,1.59,,,,,,,,,j,red,610041aee58af3bd8a5a7478,2021-10-22_12h50.39.415,forced_choiceRT_color,2021.2.3,Win32,59.1401029,,,,,,,,10,Fast,short,j,1,1.8505,7,3,31,2,1,,,,,
,0.02,,,,,,,,,j,red,610041aee58af3bd8a5a7478,2021-10-22_12h50.39.415,forced_choiceRT_color,2021.2.3,Win32,59.1401029,,,,,,,,10,Fast,short,j,1,1.8809,8,0,32,2,1,,,,,
,1.56,,,,,,,,,k,purple,610041aee58af3bd8a5a7478,2021-10-22_12h50.39.415,forced_choiceRT_color,2021.2.3,Win32,59.1401029,,,,,,,,10,Ontime,short,j,0,1.9715,8,1,33,3,1,,,,,
,0.94,,,,,,,,,k,purple,610041aee58af3bd8a5a7478,2021-10-22_12h50.39.415,forced_choiceRT_color,2021.2.3,Win32,59.1401029,,,,,,,,10,Fast,short,k,1,1.8511,8,2,34,3,1,,,,,
,0.78,,,,,,,,,f,blue,610041aee58af3bd8a5a7478,2021-10-22_12h50.39.415,forced_choiceRT_color,2021.2.3,Win32,59.1401029,,,,,,,,10,Ontime,short,f,1,2.0059,8,3,35,1,1,,,,,
,0.65,,,,,,,,,d,orange,610041aee58af3bd8a5a7478,2021-10-22_12h50.39.415,forced_choiceRT_color,2021.2.3,Win32,59.1401029,,,,,,,,10,Ontime,short,d,1,1.9445,9,0,36,0,1,,,,,
,1.1,,,,,,,,,k,purple,610041aee58af3bd8a5a7478,2021-10-22_12h50.39.415,forced_choiceRT_color,2021.2.3,Win32,59.1401029,,,,,,,,10,Ontime,short,k,1,1.9888,9,1,37,3,1,,,,,
,0.51,,,,,,,,,f,blue,610041aee58af3bd8a5a7478,2021-10-22_12h50.39.415,forced_choiceRT_color,2021.2.3,Win32,59.1401029,,,,,,,,10,Ontime,short,f,1,1.989,9,2,38,1,1,,,,,
,0.48,,,,,,,,,k,purple,610041aee58af3bd8a5a7478,2021-10-22_12h50.39.415,forced_choiceRT_color,2021.2.3,Win32,59.1401029,,,,,,,,10,Ontime,short,k,1,1.9096,9,3,39,3,1,,,,,
,,,,,,,,,,,,610041aee58af3bd8a5a7478,2021-10-22_12h50.39.415,forced_choiceRT_color,2021.2.3,Win32,59.1401029,,,,,,,,,,,,,,,,,,,9,0,9,0,1
