IP_Addresss,target_onset,trial_resp_sp.keys,trial_resp_sp.corr,trial_resp_sp.rt,trials_train_loop.thisRepN,trials_train_loop.thisTrialN,trials_train_loop.thisN,trials_train_loop.thisIndex,trials_train_loop.ran,correct_key,color,participant,date,expName,psychopyVersion,OS,frameRate,trial_resp_timing.keys,trial_resp_timing.rt,trials_train_timing.thisRepN,trials_train_timing.thisTrialN,trials_train_timing.thisN,trials_train_timing.thisIndex,trials_train_timing.ran,block_id,ontime,feedback_cond,forcedRT_resp.keys,forcedRT_resp.corr,forcedRT_resp.rt,trials.thisRepN,trials.thisTrialN,trials.thisN,trials.thisIndex,trials.ran,blocks.thisRepN,blocks.thisTrialN,blocks.thisN,blocks.thisIndex,blocks.ran
47.55.116.77,0,d,1,1.5602,0,0,0,0,1,d,orange,61004f3450dcefc6213425c8,2021-10-22_15h56.48.492,forced_choiceRT_color,2021.2.3,MacIntel,59.97361161,,,,,,,,,,,,,,,,,,,,,,,
,0,f,1,1.2205,0,1,1,1,1,f,blue,61004f3450dcefc6213425c8,2021-10-22_15h56.48.492,forced_choiceRT_color,2021.2.3,MacIntel,59.97361161,,,,,,,,,,,,,,,,,,,,,,,
,0,f,1,0.7673,0,2,2,1,1,f,blue,61004f3450dcefc6213425c8,2021-10-22_15h56.48.492,forced_choiceRT_color,2021.2.3,MacIntel,59.97361161,,,,,,,,,,,,,,,,,,,,,,,
,0,k,1,1.0896,0,3,3,3,1,k,purple,61004f3450dcefc6213425c8,2021-10-22_15h56.48.492,forced_choiceRT_color,2021.2.3,MacIntel,59.97361161,,,,,,,,,,,,,,,,,,,,,,,
,0,d,1,0.8807,1,0,4,0,1,d,orange,61004f3450dcefc6213425c8,2021-10-22_15h56.48.492,forced_choiceRT_color,2021.2.3,MacIntel,59.97361161,,,,,,,,,,,,,,,,,,,,,,,
,0,d,1,0.8508,1,1,5,0,1,d,orange,61004f3450dcefc6213425c8,2021-10-22_15h56.48.492,forced_choiceRT_color,2021.2.3,MacIntel,59.97361161,,,,,,,,,,,,,,,,,,,,,,,
,0,j,1,0.9996,1,2,6,2,1,j,red,61004f3450dcefc6213425c8,2021-10-22_15h56.48.492,forced_choiceRT_color,2021.2.3,MacIntel,59.97361161,,,,,,,,,,,,,,,,,,,,,,,
,0,j,1,0.817,1,3,7,2,1,j,red,61004f3450dcefc6213425c8,2021-10-22_15h56.48.492,forced_choiceRT_color,2021.2.3,MacIntel,59.97361161,,,,,,,,,,,,,,,,,,,,,,,
,0,f,1,1.1363,2,0,8,1,1,f,blue,61004f3450dcefc6213425c8,2021-10-22_15h56.48.492,forced_choiceRT_color,2021.2.3,MacIntel,59.97361161,,,,,,,,,,,,,,,,,,,,,,,
,0,j,1,1.2493,2,1,9,2,1,j,red,61004f3450dcefc6213425c8,2021-10-22_15h56.48.492,forced_choiceRT_color,2021.2.3,MacIntel,59.97361161,,,,,,,,,,,,,,,,,,,,,,,
,0,k,1,0.772,2,2,10,3,1,k,purple,61004f3450dcefc6213425c8,2021-10-22_15h56.48.492,forced_choiceRT_color,2021.2.3,MacIntel,59.97361161,,,,,,,,,,,,,,,,,,,,,,,
,0,j,0,1.7698,2,3,11,1,1,f,blue,61004f3450dcefc6213425c8,2021-10-22_15h56.48.492,forced_choiceRT_color,2021.2.3,MacIntel,59.97361161,,,,,,,,,,,,,,,,,,,,,,,
,0,j,1,1.1543,3,0,12,2,1,j,red,61004f3450dcefc6213425c8,2021-10-22_15h56.48.492,forced_choiceRT_color,2021.2.3,MacIntel,59.97361161,,,,,,,,,,,,,,,,,,,,,,,
,0,j,1,0.7198,3,1,13,2,1,j,red,61004f3450dcefc6213425c8,2021-10-22_15h56.48.492,forced_choiceRT_color,2021.2.3,MacIntel,59.97361161,,,,,,,,,,,,,,,,,,,,,,,
,0,d,1,0.8343,3,2,14,0,1,d,orange,61004f3450dcefc6213425c8,2021-10-22_15h56.48.492,forced_choiceRT_color,2021.2.3,MacIntel,59.97361161,,,,,,,,,,,,,,,,,,,,,,,
,0,k,1,0.784,3,3,15,3,1,k,purple,61004f3450dcefc6213425c8,2021-10-22_15h56.48.492,forced_choiceRT_color,2021.2.3,MacIntel,59.97361161,,,,,,,,,,,,,,,,,,,,,,,
,0,f,1,1.1669,4,0,16,1,1,f,blue,61004f3450dcefc6213425c8,2021-10-22_15h56.48.492,forced_choiceRT_color,2021.2.3,MacIntel,59.97361161,,,,,,,,,,,,,,,,,,,,,,,
,0,k,1,1.255,4,1,17,3,1,k,purple,61004f3450dcefc6213425c8,2021-10-22_15h56.48.492,forced_choiceRT_color,2021.2.3,MacIntel,59.97361161,,,,,,,,,,,,,,,,,,,,,,,
,0,k,1,0.6006,4,2,18,3,1,k,purple,61004f3450dcefc6213425c8,2021-10-22_15h56.48.492,forced_choiceRT_color,2021.2.3,MacIntel,59.97361161,,,,,,,,,,,,,,,,,,,,,,,
,0,k,1,0.5191,4,3,19,3,1,k,purple,61004f3450dcefc6213425c8,2021-10-22_15h56.48.492,forced_choiceRT_color,2021.2.3,MacIntel,59.97361161,,,,,,,,,,,,,,,,,,,,,,,
,0,f,1,0.9904,5,0,20,1,1,f,blue,61004f3450dcefc6213425c8,2021-10-22_15h56.48.492,forced_choiceRT_color,2021.2.3,MacIntel,59.97361161,,,,,,,,,,,,,,,,,,,,,,,
,0,f,1,0.5564,5,1,21,1,1,f,blue,61004f3450dcefc6213425c8,2021-10-22_15h56.48.492,forced_choiceRT_color,2021.2.3,MacIntel,59.97361161,,,,,,,,,,,,,,,,,,,,,,,
,0,j,1,0.8159,5,2,22,2,1,j,red,61004f3450dcefc6213425c8,2021-10-22_15h56.48.492,forced_choiceRT_color,2021.2.3,MacIntel,59.97361161,,,,,,,,,,,,,,,,,,,,,,,
,0,f,1,0.8167,5,3,23,1,1,f,blue,61004f3450dcefc6213425c8,2021-10-22_15h56.48.492,forced_choiceRT_color,2021.2.3,MacIntel,59.97361161,,,,,,,,,,,,,,,,,,,,,,,
,0,d,1,0.8186,6,0,24,0,1,d,orange,61004f3450dcefc6213425c8,2021-10-22_15h56.48.492,forced_choiceRT_color,2021.2.3,MacIntel,59.97361161,,,,,,,,,,,,,,,,,,,,,,,
,0,f,1,1.2525,6,1,25,1,1,f,blue,61004f3450dcefc6213425c8,2021-10-22_15h56.48.492,forced_choiceRT_color,2021.2.3,MacIntel,59.97361161,,,,,,,,,,,,,,,,,,,,,,,
,0,k,1,0.6482,6,2,26,3,1,k,purple,61004f3450dcefc6213425c8,2021-10-22_15h56.48.492,forced_choiceRT_color,2021.2.3,MacIntel,59.97361161,,,,,,,,,,,,,,,,,,,,,,,
,0,d,0,0.8339,6,3,27,1,1,f,blue,61004f3450dcefc6213425c8,2021-10-22_15h56.48.492,forced_choiceRT_color,2021.2.3,MacIntel,59.97361161,,,,,,,,,,,,,,,,,,,,,,,
,0,d,1,0.8705,7,0,28,0,1,d,orange,61004f3450dcefc6213425c8,2021-10-22_15h56.48.492,forced_choiceRT_color,2021.2.3,MacIntel,59.97361161,,,,,,,,,,,,,,,,,,,,,,,
,0,j,1,0.8195,7,1,29,2,1,j,red,61004f3450dcefc6213425c8,2021-10-22_15h56.48.492,forced_choiceRT_color,2021.2.3,MacIntel,59.97361161,,,,,,,,,,,,,,,,,,,,,,,
,0,j,1,0.8685,7,2,30,2,1,j,red,61004f3450dcefc6213425c8,2021-10-22_15h56.48.492,forced_choiceRT_color,2021.2.3,MacIntel,59.97361161,,,,,,,,,,,,,,,,,,,,,,,
,0,d,1,0.936,7,3,31,0,1,d,orange,61004f3450dcefc6213425c8,2021-10-22_15h56.48.492,forced_choiceRT_color,2021.2.3,MacIntel,59.97361161,,,,,,,,,,,,,,,,,,,,,,,
,0,d,1,0.7478,8,0,32,0,1,d,orange,61004f3450dcefc6213425c8,2021-10-22_15h56.48.492,forced_choiceRT_color,2021.2.3,MacIntel,59.97361161,,,,,,,,,,,,,,,,,,,,,,,
,0,k,1,0.7513,8,1,33,3,1,k,purple,61004f3450dcefc6213425c8,2021-10-22_15h56.48.492,forced_choiceRT_color,2021.2.3,MacIntel,59.97361161,,,,,,,,,,,,,,,,,,,,,,,
,0,j,1,1.3476,8,2,34,2,1,j,red,61004f3450dcefc6213425c8,2021-10-22_15h56.48.492,forced_choiceRT_color,2021.2.3,MacIntel,59.97361161,,,,,,,,,,,,,,,,,,,,,,,
,0,d,1,0.9685,8,3,35,0,1,d,orange,61004f3450dcefc6213425c8,2021-10-22_15h56.48.492,forced_choiceRT_color,2021.2.3,MacIntel,59.97361161,,,,,,,,,,,,,,,,,,,,,,,
,0,j,1,0.8685,9,0,36,2,1,j,red,61004f3450dcefc6213425c8,2021-10-22_15h56.48.492,forced_choiceRT_color,2021.2.3,MacIntel,59.97361161,,,,,,,,,,,,,,,,,,,,,,,
,0,k,1,0.5039,9,1,37,3,1,k,purple,61004f3450dcefc6213425c8,2021-10-22_15h56.48.492,forced_choiceRT_color,2021.2.3,MacIntel,59.97361161,,,,,,,,,,,,,,,,,,,,,,,
,0,j,1,1.0201,9,2,38,2,1,j,red,61004f3450dcefc6213425c8,2021-10-22_15h56.48.492,forced_choiceRT_color,2021.2.3,MacIntel,59.97361161,,,,,,,,,,,,,,,,,,,,,,,
,0,k,1,0.5848,9,3,39,3,1,k,purple,61004f3450dcefc6213425c8,2021-10-22_15h56.48.492,forced_choiceRT_color,2021.2.3,MacIntel,59.97361161,,,,,,,,,,,,,,,,,,,,,,,
,0,d,1,1.3565,10,0,40,0,1,d,orange,61004f3450dcefc6213425c8,2021-10-22_15h56.48.492,forced_choiceRT_color,2021.2.3,MacIntel,59.97361161,,,,,,,,,,,,,,,,,,,,,,,
,0,k,1,0.9338,10,1,41,3,1,k,purple,61004f3450dcefc6213425c8,2021-10-22_15h56.48.492,forced_choiceRT_color,2021.2.3,MacIntel,59.97361161,,,,,,,,,,,,,,,,,,,,,,,
,0,k,1,0.6055,10,2,42,3,1,k,purple,61004f3450dcefc6213425c8,2021-10-22_15h56.48.492,forced_choiceRT_color,2021.2.3,MacIntel,59.97361161,,,,,,,,,,,,,,,,,,,,,,,
,0,d,1,1.0722,10,3,43,0,1,d,orange,61004f3450dcefc6213425c8,2021-10-22_15h56.48.492,forced_choiceRT_color,2021.2.3,MacIntel,59.97361161,,,,,,,,,,,,,,,,,,,,,,,
,0,d,1,0.6372,11,0,44,0,1,d,orange,61004f3450dcefc6213425c8,2021-10-22_15h56.48.492,forced_choiceRT_color,2021.2.3,MacIntel,59.97361161,,,,,,,,,,,,,,,,,,,,,,,
,0,k,1,0.669,11,1,45,3,1,k,purple,61004f3450dcefc6213425c8,2021-10-22_15h56.48.492,forced_choiceRT_color,2021.2.3,MacIntel,59.97361161,,,,,,,,,,,,,,,,,,,,,,,
,0,j,1,0.9848,11,2,46,2,1,j,red,61004f3450dcefc6213425c8,2021-10-22_15h56.48.492,forced_choiceRT_color,2021.2.3,MacIntel,59.97361161,,,,,,,,,,,,,,,,,,,,,,,
,0,f,1,0.7495,11,3,47,1,1,f,blue,61004f3450dcefc6213425c8,2021-10-22_15h56.48.492,forced_choiceRT_color,2021.2.3,MacIntel,59.97361161,,,,,,,,,,,,,,,,,,,,,,,
,0,d,1,0.7361,12,0,48,0,1,d,orange,61004f3450dcefc6213425c8,2021-10-22_15h56.48.492,forced_choiceRT_color,2021.2.3,MacIntel,59.97361161,,,,,,,,,,,,,,,,,,,,,,,
,0,j,1,0.6729,12,1,49,2,1,j,red,61004f3450dcefc6213425c8,2021-10-22_15h56.48.492,forced_choiceRT_color,2021.2.3,MacIntel,59.97361161,,,,,,,,,,,,,,,,,,,,,,,
,0,f,1,1.1375,12,2,50,1,1,f,blue,61004f3450dcefc6213425c8,2021-10-22_15h56.48.492,forced_choiceRT_color,2021.2.3,MacIntel,59.97361161,,,,,,,,,,,,,,,,,,,,,,,
,0,k,1,0.6377,12,3,51,3,1,k,purple,61004f3450dcefc6213425c8,2021-10-22_15h56.48.492,forced_choiceRT_color,2021.2.3,MacIntel,59.97361161,,,,,,,,,,,,,,,,,,,,,,,
,0,f,1,0.8486,13,0,52,1,1,f,blue,61004f3450dcefc6213425c8,2021-10-22_15h56.48.492,forced_choiceRT_color,2021.2.3,MacIntel,59.97361161,,,,,,,,,,,,,,,,,,,,,,,
,0,j,1,0.9527,13,1,53,2,1,j,red,61004f3450dcefc6213425c8,2021-10-22_15h56.48.492,forced_choiceRT_color,2021.2.3,MacIntel,59.97361161,,,,,,,,,,,,,,,,,,,,,,,
,0,f,1,1.1007,13,2,54,1,1,f,blue,61004f3450dcefc6213425c8,2021-10-22_15h56.48.492,forced_choiceRT_color,2021.2.3,MacIntel,59.97361161,,,,,,,,,,,,,,,,,,,,,,,
,0,d,1,1.0042,13,3,55,0,1,d,orange,61004f3450dcefc6213425c8,2021-10-22_15h56.48.492,forced_choiceRT_color,2021.2.3,MacIntel,59.97361161,,,,,,,,,,,,,,,,,,,,,,,
,0,f,1,0.7695,14,0,56,1,1,f,blue,61004f3450dcefc6213425c8,2021-10-22_15h56.48.492,forced_choiceRT_color,2021.2.3,MacIntel,59.97361161,,,,,,,,,,,,,,,,,,,,,,,
,0,d,1,0.7332,14,1,57,0,1,d,orange,61004f3450dcefc6213425c8,2021-10-22_15h56.48.492,forced_choiceRT_color,2021.2.3,MacIntel,59.97361161,,,,,,,,,,,,,,,,,,,,,,,
,0,k,1,0.5984,14,2,58,3,1,k,purple,61004f3450dcefc6213425c8,2021-10-22_15h56.48.492,forced_choiceRT_color,2021.2.3,MacIntel,59.97361161,,,,,,,,,,,,,,,,,,,,,,,
,0,j,1,0.7515,14,3,59,2,1,j,red,61004f3450dcefc6213425c8,2021-10-22_15h56.48.492,forced_choiceRT_color,2021.2.3,MacIntel,59.97361161,,,,,,,,,,,,,,,,,,,,,,,
,,,,,,,,,,,,61004f3450dcefc6213425c8,2021-10-22_15h56.48.492,forced_choiceRT_color,2021.2.3,MacIntel,59.97361161,k,2.3586,0,0,0,0,1,,,,,,,,,,,,,,,,
,,,,,,,,,,,,61004f3450dcefc6213425c8,2021-10-22_15h56.48.492,forced_choiceRT_color,2021.2.3,MacIntel,59.97361161,j,1.7479,1,0,1,0,1,,,,,,,,,,,,,,,,
,,,,,,,,,,,,61004f3450dcefc6213425c8,2021-10-22_15h56.48.492,forced_choiceRT_color,2021.2.3,MacIntel,59.97361161,d,2.2032,2,0,2,0,1,,,,,,,,,,,,,,,,
,,,,,,,,,,,,61004f3450dcefc6213425c8,2021-10-22_15h56.48.492,forced_choiceRT_color,2021.2.3,MacIntel,59.97361161,j,2.1148,3,0,3,0,1,,,,,,,,,,,,,,,,
,,,,,,,,,,,,61004f3450dcefc6213425c8,2021-10-22_15h56.48.492,forced_choiceRT_color,2021.2.3,MacIntel,59.97361161,j,2.0794,4,0,4,0,1,,,,,,,,,,,,,,,,
,,,,,,,,,,,,61004f3450dcefc6213425c8,2021-10-22_15h56.48.492,forced_choiceRT_color,2021.2.3,MacIntel,59.97361161,k,2.1483,5,0,5,0,1,,,,,,,,,,,,,,,,
,,,,,,,,,,,,61004f3450dcefc6213425c8,2021-10-22_15h56.48.492,forced_choiceRT_color,2021.2.3,MacIntel,59.97361161,j,2.152,6,0,6,0,1,,,,,,,,,,,,,,,,
,,,,,,,,,,,,61004f3450dcefc6213425c8,2021-10-22_15h56.48.492,forced_choiceRT_color,2021.2.3,MacIntel,59.97361161,d,1.794,7,0,7,0,1,,,,,,,,,,,,,,,,
,,,,,,,,,,,,61004f3450dcefc6213425c8,2021-10-22_15h56.48.492,forced_choiceRT_color,2021.2.3,MacIntel,59.97361161,d,1.8857,8,0,8,0,1,,,,,,,,,,,,,,,,
,,,,,,,,,,,,61004f3450dcefc6213425c8,2021-10-22_15h56.48.492,forced_choiceRT_color,2021.2.3,MacIntel,59.97361161,d,2.0668,9,0,9,0,1,,,,,,,,,,,,,,,,
,,,,,,,,,,,,61004f3450dcefc6213425c8,2021-10-22_15h56.48.492,forced_choiceRT_color,2021.2.3,MacIntel,59.97361161,f,2.1019,10,0,10,0,1,,,,,,,,,,,,,,,,
,,,,,,,,,,,,61004f3450dcefc6213425c8,2021-10-22_15h56.48.492,forced_choiceRT_color,2021.2.3,MacIntel,59.97361161,j,1.9663,11,0,11,0,1,,,,,,,,,,,,,,,,
,,,,,,,,,,,,61004f3450dcefc6213425c8,2021-10-22_15h56.48.492,forced_choiceRT_color,2021.2.3,MacIntel,59.97361161,k,1.9684,12,0,12,0,1,,,,,,,,,,,,,,,,
,,,,,,,,,,,,61004f3450dcefc6213425c8,2021-10-22_15h56.48.492,forced_choiceRT_color,2021.2.3,MacIntel,59.97361161,f,2.0546,13,0,13,0,1,,,,,,,,,,,,,,,,
,,,,,,,,,,,,61004f3450dcefc6213425c8,2021-10-22_15h56.48.492,forced_choiceRT_color,2021.2.3,MacIntel,59.97361161,d,2.0354,14,0,14,0,1,,,,,,,,,,,,,,,,
,,,,,,,,,,,,61004f3450dcefc6213425c8,2021-10-22_15h56.48.492,forced_choiceRT_color,2021.2.3,MacIntel,59.97361161,j,2.024,15,0,15,0,1,,,,,,,,,,,,,,,,
,,,,,,,,,,,,61004f3450dcefc6213425c8,2021-10-22_15h56.48.492,forced_choiceRT_color,2021.2.3,MacIntel,59.97361161,k,1.9352,16,0,16,0,1,,,,,,,,,,,,,,,,
,,,,,,,,,,,,61004f3450dcefc6213425c8,2021-10-22_15h56.48.492,forced_choiceRT_color,2021.2.3,MacIntel,59.97361161,d,2.0012,17,0,17,0,1,,,,,,,,,,,,,,,,
,,,,,,,,,,,,61004f3450dcefc6213425c8,2021-10-22_15h56.48.492,forced_choiceRT_color,2021.2.3,MacIntel,59.97361161,k,1.9368,18,0,18,0,1,,,,,,,,,,,,,,,,
,,,,,,,,,,,,61004f3450dcefc6213425c8,2021-10-22_15h56.48.492,forced_choiceRT_color,2021.2.3,MacIntel,59.97361161,j,1.8636,19,0,19,0,1,,,,,,,,,,,,,,,,
,0.07,,,,,,,,,j,red,61004f3450dcefc6213425c8,2021-10-22_15h56.48.492,forced_choiceRT_color,2021.2.3,MacIntel,59.97361161,,,,,,,,1,Fast,short,j,1,1.2979,0,0,0,2,1,,,,,
,0.35,,,,,,,,,d,orange,61004f3450dcefc6213425c8,2021-10-22_15h56.48.492,forced_choiceRT_color,2021.2.3,MacIntel,59.97361161,,,,,,,,1,Fast,short,d,1,1.7305,0,1,1,0,1,,,,,
,0.52,,,,,,,,,j,red,61004f3450dcefc6213425c8,2021-10-22_15h56.48.492,forced_choiceRT_color,2021.2.3,MacIntel,59.97361161,,,,,,,,1,Ontime,short,j,1,2.0443,0,2,2,2,1,,,,,
,1.21,,,,,,,,,k,purple,61004f3450dcefc6213425c8,2021-10-22_15h56.48.492,forced_choiceRT_color,2021.2.3,MacIntel,59.97361161,,,,,,,,1,Slow,short,k,1,2.1508,0,3,3,3,1,,,,,
,1.09,,,,,,,,,f,blue,61004f3450dcefc6213425c8,2021-10-22_15h56.48.492,forced_choiceRT_color,2021.2.3,MacIntel,59.97361161,,,,,,,,1,Ontime,short,j,0,1.9701,1,0,4,1,1,,,,,
,1.42,,,,,,,,,j,red,61004f3450dcefc6213425c8,2021-10-22_15h56.48.492,forced_choiceRT_color,2021.2.3,MacIntel,59.97361161,,,,,,,,1,Ontime,short,j,1,2.0855,1,1,5,2,1,,,,,
,1.23,,,,,,,,,d,orange,61004f3450dcefc6213425c8,2021-10-22_15h56.48.492,forced_choiceRT_color,2021.2.3,MacIntel,59.97361161,,,,,,,,1,Fast,short,d,1,1.8876,1,2,6,0,1,,,,,
,0.63,,,,,,,,,d,orange,61004f3450dcefc6213425c8,2021-10-22_15h56.48.492,forced_choiceRT_color,2021.2.3,MacIntel,59.97361161,,,,,,,,1,Ontime,short,d,1,2.0007,1,3,7,0,1,,,,,
,0.04,,,,,,,,,k,purple,61004f3450dcefc6213425c8,2021-10-22_15h56.48.492,forced_choiceRT_color,2021.2.3,MacIntel,59.97361161,,,,,,,,1,Ontime,short,k,1,1.9848,2,0,8,3,1,,,,,
,0.34,,,,,,,,,k,purple,61004f3450dcefc6213425c8,2021-10-22_15h56.48.492,forced_choiceRT_color,2021.2.3,MacIntel,59.97361161,,,,,,,,1,Ontime,short,k,1,2.0063,2,1,9,3,1,,,,,
,1.22,,,,,,,,,k,purple,61004f3450dcefc6213425c8,2021-10-22_15h56.48.492,forced_choiceRT_color,2021.2.3,MacIntel,59.97361161,,,,,,,,1,Ontime,short,k,1,2.0903,2,2,10,3,1,,,,,
,1.33,,,,,,,,,j,red,61004f3450dcefc6213425c8,2021-10-22_15h56.48.492,forced_choiceRT_color,2021.2.3,MacIntel,59.97361161,,,,,,,,1,Slow,short,j,1,2.1871,2,3,11,2,1,,,,,
,0.2,,,,,,,,,d,orange,61004f3450dcefc6213425c8,2021-10-22_15h56.48.492,forced_choiceRT_color,2021.2.3,MacIntel,59.97361161,,,,,,,,1,Ontime,short,d,1,2.0769,3,0,12,0,1,,,,,
,0.21,,,,,,,,,j,red,61004f3450dcefc6213425c8,2021-10-22_15h56.48.492,forced_choiceRT_color,2021.2.3,MacIntel,59.97361161,,,,,,,,1,Ontime,short,j,1,2.0516,3,1,13,2,1,,,,,
,0.24,,,,,,,,,d,orange,61004f3450dcefc6213425c8,2021-10-22_15h56.48.492,forced_choiceRT_color,2021.2.3,MacIntel,59.97361161,,,,,,,,1,Ontime,short,d,1,2.0045,3,2,14,0,1,,,,,
,1.43,,,,,,,,,k,purple,61004f3450dcefc6213425c8,2021-10-22_15h56.48.492,forced_choiceRT_color,2021.2.3,MacIntel,59.97361161,,,,,,,,1,Slow,short,k,1,2.1688,3,3,15,3,1,,,,,
,0.4,,,,,,,,,d,orange,61004f3450dcefc6213425c8,2021-10-22_15h56.48.492,forced_choiceRT_color,2021.2.3,MacIntel,59.97361161,,,,,,,,1,Ontime,short,d,1,1.968,4,0,16,0,1,,,,,
,0.04,,,,,,,,,k,purple,61004f3450dcefc6213425c8,2021-10-22_15h56.48.492,forced_choiceRT_color,2021.2.3,MacIntel,59.97361161,,,,,,,,1,Ontime,short,k,1,1.9684,4,1,17,3,1,,,,,
,1.52,,,,,,,,,f,blue,61004f3450dcefc6213425c8,2021-10-22_15h56.48.492,forced_choiceRT_color,2021.2.3,MacIntel,59.97361161,,,,,,,,1,Slow,short,f,1,2.2191,4,2,18,1,1,,,,,
,1.02,,,,,,,,,j,red,61004f3450dcefc6213425c8,2021-10-22_15h56.48.492,forced_choiceRT_color,2021.2.3,MacIntel,59.97361161,,,,,,,,1,Fast,short,j,1,1.5671,4,3,19,2,1,,,,,
,0.2,,,,,,,,,f,blue,61004f3450dcefc6213425c8,2021-10-22_15h56.48.492,forced_choiceRT_color,2021.2.3,MacIntel,59.97361161,,,,,,,,1,Ontime,short,f,1,2.023,5,0,20,1,1,,,,,
,1.12,,,,,,,,,d,orange,61004f3450dcefc6213425c8,2021-10-22_15h56.48.492,forced_choiceRT_color,2021.2.3,MacIntel,59.97361161,,,,,,,,1,Ontime,short,d,1,2.0731,5,1,21,0,1,,,,,
,1.78,,,,,,,,,f,blue,61004f3450dcefc6213425c8,2021-10-22_15h56.48.492,forced_choiceRT_color,2021.2.3,MacIntel,59.97361161,,,,,,,,1,Slow,short,j,0,2.2086,5,2,22,1,1,,,,,
,0.5,,,,,,,,,f,blue,61004f3450dcefc6213425c8,2021-10-22_15h56.48.492,forced_choiceRT_color,2021.2.3,MacIntel,59.97361161,,,,,,,,1,Ontime,short,f,1,1.9269,5,3,23,1,1,,,,,
,0.18,,,,,,,,,k,purple,61004f3450dcefc6213425c8,2021-10-22_15h56.48.492,forced_choiceRT_color,2021.2.3,MacIntel,59.97361161,,,,,,,,1,Ontime,short,k,1,1.9499,6,0,24,3,1,,,,,
,0.62,,,,,,,,,f,blue,61004f3450dcefc6213425c8,2021-10-22_15h56.48.492,forced_choiceRT_color,2021.2.3,MacIntel,59.97361161,,,,,,,,1,Ontime,short,f,1,2.0234,6,1,25,1,1,,,,,
,1.88,,,,,,,,,k,purple,61004f3450dcefc6213425c8,2021-10-22_15h56.48.492,forced_choiceRT_color,2021.2.3,MacIntel,59.97361161,,,,,,,,1,Slow,short,k,1,2.4844,6,2,26,3,1,,,,,
,0.02,,,,,,,,,j,red,61004f3450dcefc6213425c8,2021-10-22_15h56.48.492,forced_choiceRT_color,2021.2.3,MacIntel,59.97361161,,,,,,,,1,Ontime,short,j,1,1.9543,6,3,27,2,1,,,,,
,0.06,,,,,,,,,d,orange,61004f3450dcefc6213425c8,2021-10-22_15h56.48.492,forced_choiceRT_color,2021.2.3,MacIntel,59.97361161,,,,,,,,1,Ontime,short,d,1,1.9513,7,0,28,0,1,,,,,
,1.57,,,,,,,,,f,blue,61004f3450dcefc6213425c8,2021-10-22_15h56.48.492,forced_choiceRT_color,2021.2.3,MacIntel,59.97361161,,,,,,,,1,Slow,short,f,1,2.3759,7,1,29,1,1,,,,,
,1.16,,,,,,,,,k,purple,61004f3450dcefc6213425c8,2021-10-22_15h56.48.492,forced_choiceRT_color,2021.2.3,MacIntel,59.97361161,,,,,,,,1,Fast,short,k,1,1.8435,7,2,30,3,1,,,,,
,0.96,,,,,,,,,k,purple,61004f3450dcefc6213425c8,2021-10-22_15h56.48.492,forced_choiceRT_color,2021.2.3,MacIntel,59.97361161,,,,,,,,1,Ontime,short,k,1,1.9684,7,3,31,3,1,,,,,
,1.3,,,,,,,,,f,blue,61004f3450dcefc6213425c8,2021-10-22_15h56.48.492,forced_choiceRT_color,2021.2.3,MacIntel,59.97361161,,,,,,,,1,Slow,short,f,1,2.2482,8,0,32,1,1,,,,,
,1.85,,,,,,,,,d,orange,61004f3450dcefc6213425c8,2021-10-22_15h56.48.492,forced_choiceRT_color,2021.2.3,MacIntel,59.97361161,,,,,,,,1,Slow,short,j,0,2.2184,8,1,33,0,1,,,,,
,0.86,,,,,,,,,j,red,61004f3450dcefc6213425c8,2021-10-22_15h56.48.492,forced_choiceRT_color,2021.2.3,MacIntel,59.97361161,,,,,,,,1,Fast,short,j,1,1.8276,8,2,34,2,1,,,,,
,1.1,,,,,,,,,f,blue,61004f3450dcefc6213425c8,2021-10-22_15h56.48.492,forced_choiceRT_color,2021.2.3,MacIntel,59.97361161,,,,,,,,1,Ontime,short,f,1,1.9579,8,3,35,1,1,,,,,
,0.55,,,,,,,,,f,blue,61004f3450dcefc6213425c8,2021-10-22_15h56.48.492,forced_choiceRT_color,2021.2.3,MacIntel,59.97361161,,,,,,,,1,Ontime,short,f,1,1.9516,9,0,36,1,1,,,,,
,1.93,,,,,,,,,j,red,61004f3450dcefc6213425c8,2021-10-22_15h56.48.492,forced_choiceRT_color,2021.2.3,MacIntel,59.97361161,,,,,,,,1,Slow,short,j,1,2.4338,9,1,37,2,1,,,,,
,1.58,,,,,,,,,d,orange,61004f3450dcefc6213425c8,2021-10-22_15h56.48.492,forced_choiceRT_color,2021.2.3,MacIntel,59.97361161,,,,,,,,1,Ontime,short,d,1,2.0858,9,2,38,0,1,,,,,
,0.83,,,,,,,,,j,red,61004f3450dcefc6213425c8,2021-10-22_15h56.48.492,forced_choiceRT_color,2021.2.3,MacIntel,59.97361161,,,,,,,,1,Ontime,short,j,1,2.0019,9,3,39,2,1,,,,,
,,,,,,,,,,,,61004f3450dcefc6213425c8,2021-10-22_15h56.48.492,forced_choiceRT_color,2021.2.3,MacIntel,59.97361161,,,,,,,,,,,,,,,,,,,0,0,0,0,1
,0.52,,,,,,,,,d,orange,61004f3450dcefc6213425c8,2021-10-22_15h56.48.492,forced_choiceRT_color,2021.2.3,MacIntel,59.97361161,,,,,,,,2,Ontime,short,d,1,1.9719,0,0,0,0,1,,,,,
,0.52,,,,,,,,,k,purple,61004f3450dcefc6213425c8,2021-10-22_15h56.48.492,forced_choiceRT_color,2021.2.3,MacIntel,59.97361161,,,,,,,,2,Ontime,short,k,1,1.9909,0,1,1,3,1,,,,,
,0.11,,,,,,,,,f,blue,61004f3450dcefc6213425c8,2021-10-22_15h56.48.492,forced_choiceRT_color,2021.2.3,MacIntel,59.97361161,,,,,,,,2,Ontime,short,f,1,1.9184,0,2,2,1,1,,,,,
,1.11,,,,,,,,,d,orange,61004f3450dcefc6213425c8,2021-10-22_15h56.48.492,forced_choiceRT_color,2021.2.3,MacIntel,59.97361161,,,,,,,,2,Ontime,short,d,1,2.0738,0,3,3,0,1,,,,,
,0.82,,,,,,,,,d,orange,61004f3450dcefc6213425c8,2021-10-22_15h56.48.492,forced_choiceRT_color,2021.2.3,MacIntel,59.97361161,,,,,,,,2,Ontime,short,d,1,1.9763,1,0,4,0,1,,,,,
,1.08,,,,,,,,,k,purple,61004f3450dcefc6213425c8,2021-10-22_15h56.48.492,forced_choiceRT_color,2021.2.3,MacIntel,59.97361161,,,,,,,,2,Ontime,short,k,1,2.0393,1,1,5,3,1,,,,,
,1.76,,,,,,,,,f,blue,61004f3450dcefc6213425c8,2021-10-22_15h56.48.492,forced_choiceRT_color,2021.2.3,MacIntel,59.97361161,,,,,,,,2,Slow,short,k,0,2.2326,1,2,6,1,1,,,,,
,1.09,,,,,,,,,j,red,61004f3450dcefc6213425c8,2021-10-22_15h56.48.492,forced_choiceRT_color,2021.2.3,MacIntel,59.97361161,,,,,,,,2,Ontime,short,j,1,2.0316,1,3,7,2,1,,,,,
,1.16,,,,,,,,,k,purple,61004f3450dcefc6213425c8,2021-10-22_15h56.48.492,forced_choiceRT_color,2021.2.3,MacIntel,59.97361161,,,,,,,,2,Ontime,short,k,1,1.9836,2,0,8,3,1,,,,,
,1.21,,,,,,,,,f,blue,61004f3450dcefc6213425c8,2021-10-22_15h56.48.492,forced_choiceRT_color,2021.2.3,MacIntel,59.97361161,,,,,,,,2,Ontime,short,f,1,1.9839,2,1,9,1,1,,,,,
,0.98,,,,,,,,,f,blue,61004f3450dcefc6213425c8,2021-10-22_15h56.48.492,forced_choiceRT_color,2021.2.3,MacIntel,59.97361161,,,,,,,,2,Ontime,short,f,1,1.9688,2,2,10,1,1,,,,,
,1.49,,,,,,,,,f,blue,61004f3450dcefc6213425c8,2021-10-22_15h56.48.492,forced_choiceRT_color,2021.2.3,MacIntel,59.97361161,,,,,,,,2,Slow,short,f,1,2.2366,2,3,11,1,1,,,,,
,0.21,,,,,,,,,f,blue,61004f3450dcefc6213425c8,2021-10-22_15h56.48.492,forced_choiceRT_color,2021.2.3,MacIntel,59.97361161,,,,,,,,2,Fast,short,f,1,1.7875,3,0,12,1,1,,,,,
,0.09,,,,,,,,,k,purple,61004f3450dcefc6213425c8,2021-10-22_15h56.48.492,forced_choiceRT_color,2021.2.3,MacIntel,59.97361161,,,,,,,,2,Fast,short,k,1,1.835,3,1,13,3,1,,,,,
,0.91,,,,,,,,,k,purple,61004f3450dcefc6213425c8,2021-10-22_15h56.48.492,forced_choiceRT_color,2021.2.3,MacIntel,59.97361161,,,,,,,,2,Ontime,short,k,1,1.941,3,2,14,3,1,,,,,
,1.48,,,,,,,,,f,blue,61004f3450dcefc6213425c8,2021-10-22_15h56.48.492,forced_choiceRT_color,2021.2.3,MacIntel,59.97361161,,,,,,,,2,Slow,short,f,1,2.2017,3,3,15,1,1,,,,,
,0.63,,,,,,,,,d,orange,61004f3450dcefc6213425c8,2021-10-22_15h56.48.492,forced_choiceRT_color,2021.2.3,MacIntel,59.97361161,,,,,,,,2,Fast,short,d,1,1.884,4,0,16,0,1,,,,,
,0.84,,,,,,,,,d,orange,61004f3450dcefc6213425c8,2021-10-22_15h56.48.492,forced_choiceRT_color,2021.2.3,MacIntel,59.97361161,,,,,,,,2,Ontime,short,d,1,1.9528,4,1,17,0,1,,,,,
,0.23,,,,,,,,,d,orange,61004f3450dcefc6213425c8,2021-10-22_15h56.48.492,forced_choiceRT_color,2021.2.3,MacIntel,59.97361161,,,,,,,,2,Ontime,short,d,1,1.9062,4,2,18,0,1,,,,,
,1.1,,,,,,,,,f,blue,61004f3450dcefc6213425c8,2021-10-22_15h56.48.492,forced_choiceRT_color,2021.2.3,MacIntel,59.97361161,,,,,,,,2,Ontime,short,f,1,2.0007,4,3,19,1,1,,,,,
,1.3,,,,,,,,,j,red,61004f3450dcefc6213425c8,2021-10-22_15h56.48.492,forced_choiceRT_color,2021.2.3,MacIntel,59.97361161,,,,,,,,2,Slow,short,j,1,2.1015,5,0,20,2,1,,,,,
,1.18,,,,,,,,,j,red,61004f3450dcefc6213425c8,2021-10-22_15h56.48.492,forced_choiceRT_color,2021.2.3,MacIntel,59.97361161,,,,,,,,2,Fast,short,j,1,1.8839,5,1,21,2,1,,,,,
,0.91,,,,,,,,,k,purple,61004f3450dcefc6213425c8,2021-10-22_15h56.48.492,forced_choiceRT_color,2021.2.3,MacIntel,59.97361161,,,,,,,,2,Ontime,short,k,1,1.9632,5,2,22,3,1,,,,,
,1.95,,,,,,,,,j,red,61004f3450dcefc6213425c8,2021-10-22_15h56.48.492,forced_choiceRT_color,2021.2.3,MacIntel,59.97361161,,,,,,,,2,Slow,short,j,1,2.4861,5,3,23,2,1,,,,,
,0.45,,,,,,,,,k,purple,61004f3450dcefc6213425c8,2021-10-22_15h56.48.492,forced_choiceRT_color,2021.2.3,MacIntel,59.97361161,,,,,,,,2,Ontime,short,k,1,1.9551,6,0,24,3,1,,,,,
,0.75,,,,,,,,,d,orange,61004f3450dcefc6213425c8,2021-10-22_15h56.48.492,forced_choiceRT_color,2021.2.3,MacIntel,59.97361161,,,,,,,,2,Ontime,short,f,0,1.9687,6,1,25,0,1,,,,,
,1.01,,,,,,,,,d,orange,61004f3450dcefc6213425c8,2021-10-22_15h56.48.492,forced_choiceRT_color,2021.2.3,MacIntel,59.97361161,,,,,,,,2,Ontime,short,d,1,1.9359,6,2,26,0,1,,,,,
,1.73,,,,,,,,,k,purple,61004f3450dcefc6213425c8,2021-10-22_15h56.48.492,forced_choiceRT_color,2021.2.3,MacIntel,59.97361161,,,,,,,,2,Slow,short,j,0,2.2342,6,3,27,3,1,,,,,
,0.84,,,,,,,,,d,orange,61004f3450dcefc6213425c8,2021-10-22_15h56.48.492,forced_choiceRT_color,2021.2.3,MacIntel,59.97361161,,,,,,,,2,Fast,short,d,1,1.7877,7,0,28,0,1,,,,,
,1.76,,,,,,,,,j,red,61004f3450dcefc6213425c8,2021-10-22_15h56.48.492,forced_choiceRT_color,2021.2.3,MacIntel,59.97361161,,,,,,,,2,Slow,short,j,1,2.3272,7,1,29,2,1,,,,,
,1.21,,,,,,,,,j,red,61004f3450dcefc6213425c8,2021-10-22_15h56.48.492,forced_choiceRT_color,2021.2.3,MacIntel,59.97361161,,,,,,,,2,Fast,short,j,1,1.8347,7,2,30,2,1,,,,,
,0.9,,,,,,,,,k,purple,61004f3450dcefc6213425c8,2021-10-22_15h56.48.492,forced_choiceRT_color,2021.2.3,MacIntel,59.97361161,,,,,,,,2,Ontime,short,k,1,2.0856,7,3,31,3,1,,,,,
,1.64,,,,,,,,,k,purple,61004f3450dcefc6213425c8,2021-10-22_15h56.48.492,forced_choiceRT_color,2021.2.3,MacIntel,59.97361161,,,,,,,,2,Slow,short,k,1,2.2543,8,0,32,3,1,,,,,
,0.46,,,,,,,,,f,blue,61004f3450dcefc6213425c8,2021-10-22_15h56.48.492,forced_choiceRT_color,2021.2.3,MacIntel,59.97361161,,,,,,,,2,Ontime,short,f,1,1.9294,8,1,33,1,1,,,,,
,0.59,,,,,,,,,j,red,61004f3450dcefc6213425c8,2021-10-22_15h56.48.492,forced_choiceRT_color,2021.2.3,MacIntel,59.97361161,,,,,,,,2,Ontime,short,j,1,2.0182,8,2,34,2,1,,,,,
,0.3,,,,,,,,,j,red,61004f3450dcefc6213425c8,2021-10-22_15h56.48.492,forced_choiceRT_color,2021.2.3,MacIntel,59.97361161,,,,,,,,2,Ontime,short,j,1,1.9675,8,3,35,2,1,,,,,
,0.37,,,,,,,,,f,blue,61004f3450dcefc6213425c8,2021-10-22_15h56.48.492,forced_choiceRT_color,2021.2.3,MacIntel,59.97361161,,,,,,,,2,Ontime,short,f,1,1.9176,9,0,36,1,1,,,,,
,1.61,,,,,,,,,j,red,61004f3450dcefc6213425c8,2021-10-22_15h56.48.492,forced_choiceRT_color,2021.2.3,MacIntel,59.97361161,,,,,,,,2,Slow,short,j,1,2.2549,9,1,37,2,1,,,,,
,1.23,,,,,,,,,d,orange,61004f3450dcefc6213425c8,2021-10-22_15h56.48.492,forced_choiceRT_color,2021.2.3,MacIntel,59.97361161,,,,,,,,2,Fast,short,f,0,1.8382,9,2,38,0,1,,,,,
,1.54,,,,,,,,,j,red,61004f3450dcefc6213425c8,2021-10-22_15h56.48.492,forced_choiceRT_color,2021.2.3,MacIntel,59.97361161,,,,,,,,2,Slow,short,f,0,2.2153,9,3,39,2,1,,,,,
,,,,,,,,,,,,61004f3450dcefc6213425c8,2021-10-22_15h56.48.492,forced_choiceRT_color,2021.2.3,MacIntel,59.97361161,,,,,,,,,,,,,,,,,,,1,0,1,0,1
,0.29,,,,,,,,,k,purple,61004f3450dcefc6213425c8,2021-10-22_15h56.48.492,forced_choiceRT_color,2021.2.3,MacIntel,59.97361161,,,,,,,,3,Fast,short,k,1,1.8684,0,0,0,3,1,,,,,
,0.97,,,,,,,,,k,purple,61004f3450dcefc6213425c8,2021-10-22_15h56.48.492,forced_choiceRT_color,2021.2.3,MacIntel,59.97361161,,,,,,,,3,Ontime,short,k,1,1.9021,0,1,1,3,1,,,,,
,0.17,,,,,,,,,k,purple,61004f3450dcefc6213425c8,2021-10-22_15h56.48.492,forced_choiceRT_color,2021.2.3,MacIntel,59.97361161,,,,,,,,3,Ontime,short,k,1,2.0184,0,2,2,3,1,,,,,
,1.43,,,,,,,,,k,purple,61004f3450dcefc6213425c8,2021-10-22_15h56.48.492,forced_choiceRT_color,2021.2.3,MacIntel,59.97361161,,,,,,,,3,Slow,short,k,1,2.1049,0,3,3,3,1,,,,,
,0.64,,,,,,,,,k,purple,61004f3450dcefc6213425c8,2021-10-22_15h56.48.492,forced_choiceRT_color,2021.2.3,MacIntel,59.97361161,,,,,,,,3,Fast,short,k,1,1.802,1,0,4,3,1,,,,,
,0.86,,,,,,,,,j,red,61004f3450dcefc6213425c8,2021-10-22_15h56.48.492,forced_choiceRT_color,2021.2.3,MacIntel,59.97361161,,,,,,,,3,Ontime,short,j,1,1.9345,1,1,5,2,1,,,,,
,0.97,,,,,,,,,j,red,61004f3450dcefc6213425c8,2021-10-22_15h56.48.492,forced_choiceRT_color,2021.2.3,MacIntel,59.97361161,,,,,,,,3,Ontime,short,j,1,1.9548,1,2,6,2,1,,,,,
,1.37,,,,,,,,,f,blue,61004f3450dcefc6213425c8,2021-10-22_15h56.48.492,forced_choiceRT_color,2021.2.3,MacIntel,59.97361161,,,,,,,,3,Ontime,short,d,0,1.9564,1,3,7,1,1,,,,,
,0.35,,,,,,,,,f,blue,61004f3450dcefc6213425c8,2021-10-22_15h56.48.492,forced_choiceRT_color,2021.2.3,MacIntel,59.97361161,,,,,,,,3,Fast,short,d,0,1.7768,2,0,8,1,1,,,,,
,0.64,,,,,,,,,d,orange,61004f3450dcefc6213425c8,2021-10-22_15h56.48.492,forced_choiceRT_color,2021.2.3,MacIntel,59.97361161,,,,,,,,3,Slow,short,d,1,38.9697,2,1,9,0,1,,,,,
,0.94,,,,,,,,,d,orange,61004f3450dcefc6213425c8,2021-10-22_15h56.48.492,forced_choiceRT_color,2021.2.3,MacIntel,59.97361161,,,,,,,,3,Fast,short,d,1,1.6922,2,2,10,0,1,,,,,
,0.2,,,,,,,,,j,red,61004f3450dcefc6213425c8,2021-10-22_15h56.48.492,forced_choiceRT_color,2021.2.3,MacIntel,59.97361161,,,,,,,,3,Ontime,short,j,1,2.0169,2,3,11,2,1,,,,,
,0.33,,,,,,,,,k,purple,61004f3450dcefc6213425c8,2021-10-22_15h56.48.492,forced_choiceRT_color,2021.2.3,MacIntel,59.97361161,,,,,,,,3,Ontime,short,k,1,2.0867,3,0,12,3,1,,,,,
,0.07,,,,,,,,,f,blue,61004f3450dcefc6213425c8,2021-10-22_15h56.48.492,forced_choiceRT_color,2021.2.3,MacIntel,59.97361161,,,,,,,,3,Fast,short,f,1,1.7844,3,1,13,1,1,,,,,
,0.23,,,,,,,,,k,purple,61004f3450dcefc6213425c8,2021-10-22_15h56.48.492,forced_choiceRT_color,2021.2.3,MacIntel,59.97361161,,,,,,,,3,Fast,short,k,1,1.8813,3,2,14,3,1,,,,,
,1.45,,,,,,,,,j,red,61004f3450dcefc6213425c8,2021-10-22_15h56.48.492,forced_choiceRT_color,2021.2.3,MacIntel,59.97361161,,,,,,,,3,Slow,short,f,0,2.2315,3,3,15,2,1,,,,,
,1.93,,,,,,,,,d,orange,61004f3450dcefc6213425c8,2021-10-22_15h56.48.492,forced_choiceRT_color,2021.2.3,MacIntel,59.97361161,,,,,,,,3,Slow,short,j,0,2.3067,4,0,16,0,1,,,,,
,1.23,,,,,,,,,j,red,61004f3450dcefc6213425c8,2021-10-22_15h56.48.492,forced_choiceRT_color,2021.2.3,MacIntel,59.97361161,,,,,,,,3,Ontime,short,j,1,1.9586,4,1,17,2,1,,,,,
,0.22,,,,,,,,,f,blue,61004f3450dcefc6213425c8,2021-10-22_15h56.48.492,forced_choiceRT_color,2021.2.3,MacIntel,59.97361161,,,,,,,,3,Ontime,short,f,1,1.9488,4,2,18,1,1,,,,,
,0.11,,,,,,,,,f,blue,61004f3450dcefc6213425c8,2021-10-22_15h56.48.492,forced_choiceRT_color,2021.2.3,MacIntel,59.97361161,,,,,,,,3,Ontime,short,f,1,1.9546,4,3,19,1,1,,,,,
,1.54,,,,,,,,,d,orange,61004f3450dcefc6213425c8,2021-10-22_15h56.48.492,forced_choiceRT_color,2021.2.3,MacIntel,59.97361161,,,,,,,,3,Slow,short,d,1,2.2196,5,0,20,0,1,,,,,
,1.83,,,,,,,,,k,purple,61004f3450dcefc6213425c8,2021-10-22_15h56.48.492,forced_choiceRT_color,2021.2.3,MacIntel,59.97361161,,,,,,,,3,Slow,short,d,0,2.2668,5,1,21,3,1,,,,,
,1.64,,,,,,,,,j,red,61004f3450dcefc6213425c8,2021-10-22_15h56.48.492,forced_choiceRT_color,2021.2.3,MacIntel,59.97361161,,,,,,,,3,Ontime,short,j,1,2.078,5,2,22,2,1,,,,,
,0.88,,,,,,,,,k,purple,61004f3450dcefc6213425c8,2021-10-22_15h56.48.492,forced_choiceRT_color,2021.2.3,MacIntel,59.97361161,,,,,,,,3,Fast,short,f,0,0.0055,5,3,23,3,1,,,,,
,1.61,,,,,,,,,d,orange,61004f3450dcefc6213425c8,2021-10-22_15h56.48.492,forced_choiceRT_color,2021.2.3,MacIntel,59.97361161,,,,,,,,3,Ontime,short,d,1,2.0313,6,0,24,0,1,,,,,
,0.83,,,,,,,,,f,blue,61004f3450dcefc6213425c8,2021-10-22_15h56.48.492,forced_choiceRT_color,2021.2.3,MacIntel,59.97361161,,,,,,,,3,Ontime,short,f,1,2.0639,6,1,25,1,1,,,,,
,0.06,,,,,,,,,j,red,61004f3450dcefc6213425c8,2021-10-22_15h56.48.492,forced_choiceRT_color,2021.2.3,MacIntel,59.97361161,,,,,,,,3,Ontime,short,j,1,1.9354,6,2,26,2,1,,,,,
,1.93,,,,,,,,,f,blue,61004f3450dcefc6213425c8,2021-10-22_15h56.48.492,forced_choiceRT_color,2021.2.3,MacIntel,59.97361161,,,,,,,,3,Slow,short,f,1,2.2851,6,3,27,1,1,,,,,
,1.41,,,,,,,,,d,orange,61004f3450dcefc6213425c8,2021-10-22_15h56.48.492,forced_choiceRT_color,2021.2.3,MacIntel,59.97361161,,,,,,,,3,Ontime,short,d,1,1.9833,7,0,28,0,1,,,,,
,0.02,,,,,,,,,d,orange,61004f3450dcefc6213425c8,2021-10-22_15h56.48.492,forced_choiceRT_color,2021.2.3,MacIntel,59.97361161,,,,,,,,3,Ontime,short,d,1,2.0529,7,1,29,0,1,,,,,
,1.17,,,,,,,,,j,red,61004f3450dcefc6213425c8,2021-10-22_15h56.48.492,forced_choiceRT_color,2021.2.3,MacIntel,59.97361161,,,,,,,,3,Ontime,short,f,0,2.0489,7,2,30,2,1,,,,,
,0.18,,,,,,,,,f,blue,61004f3450dcefc6213425c8,2021-10-22_15h56.48.492,forced_choiceRT_color,2021.2.3,MacIntel,59.97361161,,,,,,,,3,Fast,short,f,1,1.8482,7,3,31,1,1,,,,,
,0.32,,,,,,,,,d,orange,61004f3450dcefc6213425c8,2021-10-22_15h56.48.492,forced_choiceRT_color,2021.2.3,MacIntel,59.97361161,,,,,,,,3,Ontime,short,d,1,2.0268,8,0,32,0,1,,,,,
,1.7,,,,,,,,,d,orange,61004f3450dcefc6213425c8,2021-10-22_15h56.48.492,forced_choiceRT_color,2021.2.3,MacIntel,59.97361161,,,,,,,,3,Slow,short,d,1,2.1184,8,1,33,0,1,,,,,
,1.71,,,,,,,,,k,purple,61004f3450dcefc6213425c8,2021-10-22_15h56.48.492,forced_choiceRT_color,2021.2.3,MacIntel,59.97361161,,,,,,,,3,Ontime,short,d,0,1.9816,8,2,34,3,1,,,,,
,0.81,,,,,,,,,f,blue,61004f3450dcefc6213425c8,2021-10-22_15h56.48.492,forced_choiceRT_color,2021.2.3,MacIntel,59.97361161,,,,,,,,3,Fast,short,f,1,1.8511,8,3,35,1,1,,,,,
,1.62,,,,,,,,,j,red,61004f3450dcefc6213425c8,2021-10-22_15h56.48.492,forced_choiceRT_color,2021.2.3,MacIntel,59.97361161,,,,,,,,3,Slow,short,j,1,2.1912,9,0,36,2,1,,,,,
,0.36,,,,,,,,,d,orange,61004f3450dcefc6213425c8,2021-10-22_15h56.48.492,forced_choiceRT_color,2021.2.3,MacIntel,59.97361161,,,,,,,,3,Fast,short,d,1,1.84,9,1,37,0,1,,,,,
,0.96,,,,,,,,,f,blue,61004f3450dcefc6213425c8,2021-10-22_15h56.48.492,forced_choiceRT_color,2021.2.3,MacIntel,59.97361161,,,,,,,,3,Ontime,short,f,1,2.002,9,2,38,1,1,,,,,
,1.39,,,,,,,,,j,red,61004f3450dcefc6213425c8,2021-10-22_15h56.48.492,forced_choiceRT_color,2021.2.3,MacIntel,59.97361161,,,,,,,,3,Slow,short,j,1,2.1229,9,3,39,2,1,,,,,
,,,,,,,,,,,,61004f3450dcefc6213425c8,2021-10-22_15h56.48.492,forced_choiceRT_color,2021.2.3,MacIntel,59.97361161,,,,,,,,,,,,,,,,,,,2,0,2,0,1
,0.57,,,,,,,,,j,red,61004f3450dcefc6213425c8,2021-10-22_15h56.48.492,forced_choiceRT_color,2021.2.3,MacIntel,59.97361161,,,,,,,,4,Ontime,short,j,1,1.9537,0,0,0,2,1,,,,,
,0.54,,,,,,,,,f,blue,61004f3450dcefc6213425c8,2021-10-22_15h56.48.492,forced_choiceRT_color,2021.2.3,MacIntel,59.97361161,,,,,,,,4,Ontime,short,f,1,2.0031,0,1,1,1,1,,,,,
,1.61,,,,,,,,,d,orange,61004f3450dcefc6213425c8,2021-10-22_15h56.48.492,forced_choiceRT_color,2021.2.3,MacIntel,59.97361161,,,,,,,,4,Slow,short,d,1,2.1584,0,2,2,0,1,,,,,
,0,,,,,,,,,d,orange,61004f3450dcefc6213425c8,2021-10-22_15h56.48.492,forced_choiceRT_color,2021.2.3,MacIntel,59.97361161,,,,,,,,4,Ontime,short,d,1,1.9083,0,3,3,0,1,,,,,
,1.2,,,,,,,,,d,orange,61004f3450dcefc6213425c8,2021-10-22_15h56.48.492,forced_choiceRT_color,2021.2.3,MacIntel,59.97361161,,,,,,,,4,Ontime,short,d,1,1.9977,1,0,4,0,1,,,,,
,0.75,,,,,,,,,j,red,61004f3450dcefc6213425c8,2021-10-22_15h56.48.492,forced_choiceRT_color,2021.2.3,MacIntel,59.97361161,,,,,,,,4,Ontime,short,j,1,2.0523,1,1,5,2,1,,,,,
,1.6,,,,,,,,,j,red,61004f3450dcefc6213425c8,2021-10-22_15h56.48.492,forced_choiceRT_color,2021.2.3,MacIntel,59.97361161,,,,,,,,4,Slow,short,j,1,2.1644,1,2,6,2,1,,,,,
,0.24,,,,,,,,,k,purple,61004f3450dcefc6213425c8,2021-10-22_15h56.48.492,forced_choiceRT_color,2021.2.3,MacIntel,59.97361161,,,,,,,,4,Fast,short,k,1,1.892,1,3,7,3,1,,,,,
,0.16,,,,,,,,,d,orange,61004f3450dcefc6213425c8,2021-10-22_15h56.48.492,forced_choiceRT_color,2021.2.3,MacIntel,59.97361161,,,,,,,,4,Ontime,short,d,1,1.9825,2,0,8,0,1,,,,,
,1.34,,,,,,,,,j,red,61004f3450dcefc6213425c8,2021-10-22_15h56.48.492,forced_choiceRT_color,2021.2.3,MacIntel,59.97361161,,,,,,,,4,Slow,short,j,1,2.1026,2,1,9,2,1,,,,,
,0.89,,,,,,,,,f,blue,61004f3450dcefc6213425c8,2021-10-22_15h56.48.492,forced_choiceRT_color,2021.2.3,MacIntel,59.97361161,,,,,,,,4,Ontime,short,f,1,1.9586,2,2,10,1,1,,,,,
,0.29,,,,,,,,,f,blue,61004f3450dcefc6213425c8,2021-10-22_15h56.48.492,forced_choiceRT_color,2021.2.3,MacIntel,59.97361161,,,,,,,,4,Ontime,short,f,1,1.9072,2,3,11,1,1,,,,,
,1.53,,,,,,,,,j,red,61004f3450dcefc6213425c8,2021-10-22_15h56.48.492,forced_choiceRT_color,2021.2.3,MacIntel,59.97361161,,,,,,,,4,Ontime,short,d,0,2.0186,3,0,12,2,1,,,,,
,0.4,,,,,,,,,k,purple,61004f3450dcefc6213425c8,2021-10-22_15h56.48.492,forced_choiceRT_color,2021.2.3,MacIntel,59.97361161,,,,,,,,4,Fast,short,k,1,0.0869,3,1,13,3,1,,,,,
,1.86,,,,,,,,,k,purple,61004f3450dcefc6213425c8,2021-10-22_15h56.48.492,forced_choiceRT_color,2021.2.3,MacIntel,59.97361161,,,,,,,,4,Slow,short,k,1,2.267,3,2,14,3,1,,,,,
,0.86,,,,,,,,,d,orange,61004f3450dcefc6213425c8,2021-10-22_15h56.48.492,forced_choiceRT_color,2021.2.3,MacIntel,59.97361161,,,,,,,,4,Ontime,short,d,1,1.9175,3,3,15,0,1,,,,,
,1.42,,,,,,,,,j,red,61004f3450dcefc6213425c8,2021-10-22_15h56.48.492,forced_choiceRT_color,2021.2.3,MacIntel,59.97361161,,,,,,,,4,Slow,short,j,1,2.1321,4,0,16,2,1,,,,,
,0.1,,,,,,,,,f,blue,61004f3450dcefc6213425c8,2021-10-22_15h56.48.492,forced_choiceRT_color,2021.2.3,MacIntel,59.97361161,,,,,,,,4,Fast,short,f,1,1.8444,4,1,17,1,1,,,,,
,0.65,,,,,,,,,j,red,61004f3450dcefc6213425c8,2021-10-22_15h56.48.492,forced_choiceRT_color,2021.2.3,MacIntel,59.97361161,,,,,,,,4,Fast,short,j,1,1.8982,4,2,18,2,1,,,,,
,1.33,,,,,,,,,d,orange,61004f3450dcefc6213425c8,2021-10-22_15h56.48.492,forced_choiceRT_color,2021.2.3,MacIntel,59.97361161,,,,,,,,4,Ontime,short,d,1,2.0498,4,3,19,0,1,,,,,
,0.27,,,,,,,,,j,red,61004f3450dcefc6213425c8,2021-10-22_15h56.48.492,forced_choiceRT_color,2021.2.3,MacIntel,59.97361161,,,,,,,,4,Ontime,short,j,1,1.9504,5,0,20,2,1,,,,,
,1.34,,,,,,,,,k,purple,61004f3450dcefc6213425c8,2021-10-22_15h56.48.492,forced_choiceRT_color,2021.2.3,MacIntel,59.97361161,,,,,,,,4,Ontime,short,k,1,2.0154,5,1,21,3,1,,,,,
,0.13,,,,,,,,,d,orange,61004f3450dcefc6213425c8,2021-10-22_15h56.48.492,forced_choiceRT_color,2021.2.3,MacIntel,59.97361161,,,,,,,,4,Ontime,short,d,1,1.9172,5,2,22,0,1,,,,,
,1.35,,,,,,,,,d,orange,61004f3450dcefc6213425c8,2021-10-22_15h56.48.492,forced_choiceRT_color,2021.2.3,MacIntel,59.97361161,,,,,,,,4,Slow,short,d,1,2.1322,5,3,23,0,1,,,,,
,1,,,,,,,,,k,purple,61004f3450dcefc6213425c8,2021-10-22_15h56.48.492,forced_choiceRT_color,2021.2.3,MacIntel,59.97361161,,,,,,,,4,Ontime,short,k,1,2.0353,6,0,24,3,1,,,,,
,0.94,,,,,,,,,f,blue,61004f3450dcefc6213425c8,2021-10-22_15h56.48.492,forced_choiceRT_color,2021.2.3,MacIntel,59.97361161,,,,,,,,4,Ontime,short,f,1,1.9992,6,1,25,1,1,,,,,
,0.13,,,,,,,,,k,purple,61004f3450dcefc6213425c8,2021-10-22_15h56.48.492,forced_choiceRT_color,2021.2.3,MacIntel,59.97361161,,,,,,,,4,Fast,short,k,1,1.8985,6,2,26,3,1,,,,,
,1.22,,,,,,,,,d,orange,61004f3450dcefc6213425c8,2021-10-22_15h56.48.492,forced_choiceRT_color,2021.2.3,MacIntel,59.97361161,,,,,,,,4,Ontime,short,d,1,2.0257,6,3,27,0,1,,,,,
,1.49,,,,,,,,,k,purple,61004f3450dcefc6213425c8,2021-10-22_15h56.48.492,forced_choiceRT_color,2021.2.3,MacIntel,59.97361161,,,,,,,,4,Slow,short,k,1,2.2524,7,0,28,3,1,,,,,
,1.01,,,,,,,,,k,purple,61004f3450dcefc6213425c8,2021-10-22_15h56.48.492,forced_choiceRT_color,2021.2.3,MacIntel,59.97361161,,,,,,,,4,Ontime,short,k,1,1.9704,7,1,29,3,1,,,,,
,0.01,,,,,,,,,d,orange,61004f3450dcefc6213425c8,2021-10-22_15h56.48.492,forced_choiceRT_color,2021.2.3,MacIntel,59.97361161,,,,,,,,4,Ontime,short,d,1,1.9499,7,2,30,0,1,,,,,
,0.26,,,,,,,,,j,red,61004f3450dcefc6213425c8,2021-10-22_15h56.48.492,forced_choiceRT_color,2021.2.3,MacIntel,59.97361161,,,,,,,,4,Ontime,short,j,1,1.9559,7,3,31,2,1,,,,,
,1.81,,,,,,,,,f,blue,61004f3450dcefc6213425c8,2021-10-22_15h56.48.492,forced_choiceRT_color,2021.2.3,MacIntel,59.97361161,,,,,,,,4,Slow,short,k,0,2.1826,8,0,32,1,1,,,,,
,0.74,,,,,,,,,f,blue,61004f3450dcefc6213425c8,2021-10-22_15h56.48.492,forced_choiceRT_color,2021.2.3,MacIntel,59.97361161,,,,,,,,4,Fast,short,f,1,1.7348,8,1,33,1,1,,,,,
,0.09,,,,,,,,,f,blue,61004f3450dcefc6213425c8,2021-10-22_15h56.48.492,forced_choiceRT_color,2021.2.3,MacIntel,59.97361161,,,,,,,,4,Ontime,short,f,1,1.9067,8,2,34,1,1,,,,,
,1.3,,,,,,,,,f,blue,61004f3450dcefc6213425c8,2021-10-22_15h56.48.492,forced_choiceRT_color,2021.2.3,MacIntel,59.97361161,,,,,,,,4,Slow,short,f,1,2.1161,8,3,35,1,1,,,,,
,0.69,,,,,,,,,k,purple,61004f3450dcefc6213425c8,2021-10-22_15h56.48.492,forced_choiceRT_color,2021.2.3,MacIntel,59.97361161,,,,,,,,4,Ontime,short,k,1,1.9121,9,0,36,3,1,,,,,
,0.88,,,,,,,,,j,red,61004f3450dcefc6213425c8,2021-10-22_15h56.48.492,forced_choiceRT_color,2021.2.3,MacIntel,59.97361161,,,,,,,,4,Ontime,short,f,0,1.9685,9,1,37,2,1,,,,,
,0.12,,,,,,,,,k,purple,61004f3450dcefc6213425c8,2021-10-22_15h56.48.492,forced_choiceRT_color,2021.2.3,MacIntel,59.97361161,,,,,,,,4,Fast,short,j,0,0.0485,9,2,38,3,1,,,,,
,0.63,,,,,,,,,f,blue,61004f3450dcefc6213425c8,2021-10-22_15h56.48.492,forced_choiceRT_color,2021.2.3,MacIntel,59.97361161,,,,,,,,4,Ontime,short,k,0,1.9039,9,3,39,1,1,,,,,
,,,,,,,,,,,,61004f3450dcefc6213425c8,2021-10-22_15h56.48.492,forced_choiceRT_color,2021.2.3,MacIntel,59.97361161,,,,,,,,,,,,,,,,,,,3,0,3,0,1
,0.22,,,,,,,,,j,red,61004f3450dcefc6213425c8,2021-10-22_15h56.48.492,forced_choiceRT_color,2021.2.3,MacIntel,59.97361161,,,,,,,,5,Fast,short,j,1,1.7281,0,0,0,2,1,,,,,
,1,,,,,,,,,j,red,61004f3450dcefc6213425c8,2021-10-22_15h56.48.492,forced_choiceRT_color,2021.2.3,MacIntel,59.97361161,,,,,,,,5,Ontime,short,j,1,1.935,0,1,1,2,1,,,,,
,0.9,,,,,,,,,d,orange,61004f3450dcefc6213425c8,2021-10-22_15h56.48.492,forced_choiceRT_color,2021.2.3,MacIntel,59.97361161,,,,,,,,5,Ontime,short,d,1,2.0149,0,2,2,0,1,,,,,
,0.68,,,,,,,,,k,purple,61004f3450dcefc6213425c8,2021-10-22_15h56.48.492,forced_choiceRT_color,2021.2.3,MacIntel,59.97361161,,,,,,,,5,Slow,short,k,1,2.1014,0,3,3,3,1,,,,,
,1.53,,,,,,,,,f,blue,61004f3450dcefc6213425c8,2021-10-22_15h56.48.492,forced_choiceRT_color,2021.2.3,MacIntel,59.97361161,,,,,,,,5,Slow,short,f,1,2.1833,1,0,4,1,1,,,,,
,1.81,,,,,,,,,j,red,61004f3450dcefc6213425c8,2021-10-22_15h56.48.492,forced_choiceRT_color,2021.2.3,MacIntel,59.97361161,,,,,,,,5,Slow,short,j,1,3.2989,1,1,5,2,1,,,,,
,0.69,,,,,,,,,k,purple,61004f3450dcefc6213425c8,2021-10-22_15h56.48.492,forced_choiceRT_color,2021.2.3,MacIntel,59.97361161,,,,,,,,5,Ontime,short,k,1,2.0261,1,2,6,3,1,,,,,
,1.52,,,,,,,,,k,purple,61004f3450dcefc6213425c8,2021-10-22_15h56.48.492,forced_choiceRT_color,2021.2.3,MacIntel,59.97361161,,,,,,,,5,Slow,short,k,1,2.2178,1,3,7,3,1,,,,,
,0.51,,,,,,,,,j,red,61004f3450dcefc6213425c8,2021-10-22_15h56.48.492,forced_choiceRT_color,2021.2.3,MacIntel,59.97361161,,,,,,,,5,Fast,short,j,1,1.7764,2,0,8,2,1,,,,,
,0.31,,,,,,,,,j,red,61004f3450dcefc6213425c8,2021-10-22_15h56.48.492,forced_choiceRT_color,2021.2.3,MacIntel,59.97361161,,,,,,,,5,Fast,short,j,1,1.8709,2,1,9,2,1,,,,,
,0.39,,,,,,,,,k,purple,61004f3450dcefc6213425c8,2021-10-22_15h56.48.492,forced_choiceRT_color,2021.2.3,MacIntel,59.97361161,,,,,,,,5,Fast,short,k,1,1.8839,2,2,10,3,1,,,,,
,1.87,,,,,,,,,k,purple,61004f3450dcefc6213425c8,2021-10-22_15h56.48.492,forced_choiceRT_color,2021.2.3,MacIntel,59.97361161,,,,,,,,5,Slow,short,k,1,2.2656,2,3,11,3,1,,,,,
,1.17,,,,,,,,,k,purple,61004f3450dcefc6213425c8,2021-10-22_15h56.48.492,forced_choiceRT_color,2021.2.3,MacIntel,59.97361161,,,,,,,,5,Ontime,short,k,1,1.9747,3,0,12,3,1,,,,,
,0.48,,,,,,,,,f,blue,61004f3450dcefc6213425c8,2021-10-22_15h56.48.492,forced_choiceRT_color,2021.2.3,MacIntel,59.97361161,,,,,,,,5,Ontime,short,f,1,2.0341,3,1,13,1,1,,,,,
,0.52,,,,,,,,,j,red,61004f3450dcefc6213425c8,2021-10-22_15h56.48.492,forced_choiceRT_color,2021.2.3,MacIntel,59.97361161,,,,,,,,5,Ontime,short,j,1,1.9682,3,2,14,2,1,,,,,
,1.58,,,,,,,,,f,blue,61004f3450dcefc6213425c8,2021-10-22_15h56.48.492,forced_choiceRT_color,2021.2.3,MacIntel,59.97361161,,,,,,,,5,Ontime,short,k,0,2.073,3,3,15,1,1,,,,,
,0.63,,,,,,,,,k,purple,61004f3450dcefc6213425c8,2021-10-22_15h56.48.492,forced_choiceRT_color,2021.2.3,MacIntel,59.97361161,,,,,,,,5,Ontime,short,k,1,2.0226,4,0,16,3,1,,,,,
,0.92,,,,,,,,,f,blue,61004f3450dcefc6213425c8,2021-10-22_15h56.48.492,forced_choiceRT_color,2021.2.3,MacIntel,59.97361161,,,,,,,,5,Ontime,short,f,1,1.9516,4,1,17,1,1,,,,,
,0.24,,,,,,,,,j,red,61004f3450dcefc6213425c8,2021-10-22_15h56.48.492,forced_choiceRT_color,2021.2.3,MacIntel,59.97361161,,,,,,,,5,Ontime,short,j,1,1.9518,4,2,18,2,1,,,,,
,0.88,,,,,,,,,f,blue,61004f3450dcefc6213425c8,2021-10-22_15h56.48.492,forced_choiceRT_color,2021.2.3,MacIntel,59.97361161,,,,,,,,5,Ontime,short,f,1,1.9495,4,3,19,1,1,,,,,
,0.71,,,,,,,,,d,orange,61004f3450dcefc6213425c8,2021-10-22_15h56.48.492,forced_choiceRT_color,2021.2.3,MacIntel,59.97361161,,,,,,,,5,Ontime,short,d,1,1.9515,5,0,20,0,1,,,,,
,0.91,,,,,,,,,f,blue,61004f3450dcefc6213425c8,2021-10-22_15h56.48.492,forced_choiceRT_color,2021.2.3,MacIntel,59.97361161,,,,,,,,5,Ontime,short,j,0,2.0279,5,1,21,1,1,,,,,
,0.75,,,,,,,,,d,orange,61004f3450dcefc6213425c8,2021-10-22_15h56.48.492,forced_choiceRT_color,2021.2.3,MacIntel,59.97361161,,,,,,,,5,Ontime,short,d,1,1.9396,5,2,22,0,1,,,,,
,1.03,,,,,,,,,d,orange,61004f3450dcefc6213425c8,2021-10-22_15h56.48.492,forced_choiceRT_color,2021.2.3,MacIntel,59.97361161,,,,,,,,5,Ontime,short,d,1,1.9225,5,3,23,0,1,,,,,
,0.28,,,,,,,,,d,orange,61004f3450dcefc6213425c8,2021-10-22_15h56.48.492,forced_choiceRT_color,2021.2.3,MacIntel,59.97361161,,,,,,,,5,Ontime,short,d,1,1.9055,6,0,24,0,1,,,,,
,0.9,,,,,,,,,k,purple,61004f3450dcefc6213425c8,2021-10-22_15h56.48.492,forced_choiceRT_color,2021.2.3,MacIntel,59.97361161,,,,,,,,5,Ontime,short,k,1,2.0253,6,1,25,3,1,,,,,
,0.02,,,,,,,,,d,orange,61004f3450dcefc6213425c8,2021-10-22_15h56.48.492,forced_choiceRT_color,2021.2.3,MacIntel,59.97361161,,,,,,,,5,Fast,short,d,1,1.7544,6,2,26,0,1,,,,,
,0.2,,,,,,,,,j,red,61004f3450dcefc6213425c8,2021-10-22_15h56.48.492,forced_choiceRT_color,2021.2.3,MacIntel,59.97361161,,,,,,,,5,Ontime,short,j,1,1.9982,6,3,27,2,1,,,,,
,1.23,,,,,,,,,d,orange,61004f3450dcefc6213425c8,2021-10-22_15h56.48.492,forced_choiceRT_color,2021.2.3,MacIntel,59.97361161,,,,,,,,5,Ontime,short,d,1,2.0724,7,0,28,0,1,,,,,
,1.61,,,,,,,,,f,blue,61004f3450dcefc6213425c8,2021-10-22_15h56.48.492,forced_choiceRT_color,2021.2.3,MacIntel,59.97361161,,,,,,,,5,Slow,short,k,0,2.188,7,1,29,1,1,,,,,
,0.59,,,,,,,,,f,blue,61004f3450dcefc6213425c8,2021-10-22_15h56.48.492,forced_choiceRT_color,2021.2.3,MacIntel,59.97361161,,,,,,,,5,Fast,short,j,0,1.8673,7,2,30,1,1,,,,,
,0.48,,,,,,,,,k,purple,61004f3450dcefc6213425c8,2021-10-22_15h56.48.492,forced_choiceRT_color,2021.2.3,MacIntel,59.97361161,,,,,,,,5,Ontime,short,k,1,1.9217,7,3,31,3,1,,,,,
,0.93,,,,,,,,,j,red,61004f3450dcefc6213425c8,2021-10-22_15h56.48.492,forced_choiceRT_color,2021.2.3,MacIntel,59.97361161,,,,,,,,5,Ontime,short,j,1,1.9169,8,0,32,2,1,,,,,
,0.51,,,,,,,,,d,orange,61004f3450dcefc6213425c8,2021-10-22_15h56.48.492,forced_choiceRT_color,2021.2.3,MacIntel,59.97361161,,,,,,,,5,Ontime,short,d,1,1.9832,8,1,33,0,1,,,,,
,0.14,,,,,,,,,j,red,61004f3450dcefc6213425c8,2021-10-22_15h56.48.492,forced_choiceRT_color,2021.2.3,MacIntel,59.97361161,,,,,,,,5,Fast,short,j,1,1.8901,8,2,34,2,1,,,,,
,0.33,,,,,,,,,d,orange,61004f3450dcefc6213425c8,2021-10-22_15h56.48.492,forced_choiceRT_color,2021.2.3,MacIntel,59.97361161,,,,,,,,5,Ontime,short,d,1,1.9168,8,3,35,0,1,,,,,
,0.24,,,,,,,,,f,blue,61004f3450dcefc6213425c8,2021-10-22_15h56.48.492,forced_choiceRT_color,2021.2.3,MacIntel,59.97361161,,,,,,,,5,Ontime,short,f,1,1.9184,9,0,36,1,1,,,,,
,0.39,,,,,,,,,k,purple,61004f3450dcefc6213425c8,2021-10-22_15h56.48.492,forced_choiceRT_color,2021.2.3,MacIntel,59.97361161,,,,,,,,5,Ontime,short,k,1,2.0035,9,1,37,3,1,,,,,
,1.7,,,,,,,,,d,orange,61004f3450dcefc6213425c8,2021-10-22_15h56.48.492,forced_choiceRT_color,2021.2.3,MacIntel,59.97361161,,,,,,,,5,Slow,short,f,0,2.2847,9,2,38,0,1,,,,,
,0.23,,,,,,,,,f,blue,61004f3450dcefc6213425c8,2021-10-22_15h56.48.492,forced_choiceRT_color,2021.2.3,MacIntel,59.97361161,,,,,,,,5,Fast,short,f,1,1.8994,9,3,39,1,1,,,,,
,,,,,,,,,,,,61004f3450dcefc6213425c8,2021-10-22_15h56.48.492,forced_choiceRT_color,2021.2.3,MacIntel,59.97361161,,,,,,,,,,,,,,,,,,,4,0,4,0,1
,0.31,,,,,,,,,d,orange,61004f3450dcefc6213425c8,2021-10-22_15h56.48.492,forced_choiceRT_color,2021.2.3,MacIntel,59.97361161,,,,,,,,6,Ontime,short,d,1,1.9266,0,0,0,0,1,,,,,
,0.33,,,,,,,,,k,purple,61004f3450dcefc6213425c8,2021-10-22_15h56.48.492,forced_choiceRT_color,2021.2.3,MacIntel,59.97361161,,,,,,,,6,Ontime,short,k,1,1.9906,0,1,1,3,1,,,,,
,0.26,,,,,,,,,j,red,61004f3450dcefc6213425c8,2021-10-22_15h56.48.492,forced_choiceRT_color,2021.2.3,MacIntel,59.97361161,,,,,,,,6,Ontime,short,j,1,1.9216,0,2,2,2,1,,,,,
,1.33,,,,,,,,,j,red,61004f3450dcefc6213425c8,2021-10-22_15h56.48.492,forced_choiceRT_color,2021.2.3,MacIntel,59.97361161,,,,,,,,6,Ontime,short,j,1,1.9522,0,3,3,2,1,,,,,
,0.01,,,,,,,,,d,orange,61004f3450dcefc6213425c8,2021-10-22_15h56.48.492,forced_choiceRT_color,2021.2.3,MacIntel,59.97361161,,,,,,,,6,Ontime,short,d,1,1.9016,1,0,4,0,1,,,,,
,1,,,,,,,,,j,red,61004f3450dcefc6213425c8,2021-10-22_15h56.48.492,forced_choiceRT_color,2021.2.3,MacIntel,59.97361161,,,,,,,,6,Ontime,short,j,1,1.9178,1,1,5,2,1,,,,,
,0.02,,,,,,,,,k,purple,61004f3450dcefc6213425c8,2021-10-22_15h56.48.492,forced_choiceRT_color,2021.2.3,MacIntel,59.97361161,,,,,,,,6,Ontime,short,k,1,1.9221,1,2,6,3,1,,,,,
,0.41,,,,,,,,,k,purple,61004f3450dcefc6213425c8,2021-10-22_15h56.48.492,forced_choiceRT_color,2021.2.3,MacIntel,59.97361161,,,,,,,,6,Ontime,short,k,1,2.0025,1,3,7,3,1,,,,,
,1.06,,,,,,,,,k,purple,61004f3450dcefc6213425c8,2021-10-22_15h56.48.492,forced_choiceRT_color,2021.2.3,MacIntel,59.97361161,,,,,,,,6,Ontime,short,k,1,2.0219,2,0,8,3,1,,,,,
,0.89,,,,,,,,,d,orange,61004f3450dcefc6213425c8,2021-10-22_15h56.48.492,forced_choiceRT_color,2021.2.3,MacIntel,59.97361161,,,,,,,,6,Ontime,short,d,1,1.9983,2,1,9,0,1,,,,,
,1.39,,,,,,,,,f,blue,61004f3450dcefc6213425c8,2021-10-22_15h56.48.492,forced_choiceRT_color,2021.2.3,MacIntel,59.97361161,,,,,,,,6,Slow,short,f,1,2.122,2,2,10,1,1,,,,,
,0.86,,,,,,,,,k,purple,61004f3450dcefc6213425c8,2021-10-22_15h56.48.492,forced_choiceRT_color,2021.2.3,MacIntel,59.97361161,,,,,,,,6,Fast,short,k,1,1.7775,2,3,11,3,1,,,,,
,1.93,,,,,,,,,f,blue,61004f3450dcefc6213425c8,2021-10-22_15h56.48.492,forced_choiceRT_color,2021.2.3,MacIntel,59.97361161,,,,,,,,6,Slow,short,j,0,2.3813,3,0,12,1,1,,,,,
,0.04,,,,,,,,,k,purple,61004f3450dcefc6213425c8,2021-10-22_15h56.48.492,forced_choiceRT_color,2021.2.3,MacIntel,59.97361161,,,,,,,,6,Fast,short,k,1,1.87,3,1,13,3,1,,,,,
,0.2,,,,,,,,,j,red,61004f3450dcefc6213425c8,2021-10-22_15h56.48.492,forced_choiceRT_color,2021.2.3,MacIntel,59.97361161,,,,,,,,6,Fast,short,j,1,1.8733,3,2,14,2,1,,,,,
,0.14,,,,,,,,,f,blue,61004f3450dcefc6213425c8,2021-10-22_15h56.48.492,forced_choiceRT_color,2021.2.3,MacIntel,59.97361161,,,,,,,,6,Ontime,short,f,1,1.9245,3,3,15,1,1,,,,,
,0.85,,,,,,,,,f,blue,61004f3450dcefc6213425c8,2021-10-22_15h56.48.492,forced_choiceRT_color,2021.2.3,MacIntel,59.97361161,,,,,,,,6,Ontime,short,f,1,2.0031,4,0,16,1,1,,,,,
,0.04,,,,,,,,,d,orange,61004f3450dcefc6213425c8,2021-10-22_15h56.48.492,forced_choiceRT_color,2021.2.3,MacIntel,59.97361161,,,,,,,,6,Ontime,short,d,1,1.9652,4,1,17,0,1,,,,,
,1.62,,,,,,,,,d,orange,61004f3450dcefc6213425c8,2021-10-22_15h56.48.492,forced_choiceRT_color,2021.2.3,MacIntel,59.97361161,,,,,,,,6,Slow,short,d,1,2.2181,4,2,18,0,1,,,,,
,0.51,,,,,,,,,j,red,61004f3450dcefc6213425c8,2021-10-22_15h56.48.492,forced_choiceRT_color,2021.2.3,MacIntel,59.97361161,,,,,,,,6,Fast,short,j,1,1.8354,4,3,19,2,1,,,,,
,0.35,,,,,,,,,f,blue,61004f3450dcefc6213425c8,2021-10-22_15h56.48.492,forced_choiceRT_color,2021.2.3,MacIntel,59.97361161,,,,,,,,6,Fast,short,f,1,1.6343,5,0,20,1,1,,,,,
,0.27,,,,,,,,,d,orange,61004f3450dcefc6213425c8,2021-10-22_15h56.48.492,forced_choiceRT_color,2021.2.3,MacIntel,59.97361161,,,,,,,,6,Ontime,short,d,1,2.0077,5,1,21,0,1,,,,,
,1.05,,,,,,,,,k,purple,61004f3450dcefc6213425c8,2021-10-22_15h56.48.492,forced_choiceRT_color,2021.2.3,MacIntel,59.97361161,,,,,,,,6,Slow,short,j,0,2.1878,5,2,22,3,1,,,,,
,1.76,,,,,,,,,j,red,61004f3450dcefc6213425c8,2021-10-22_15h56.48.492,forced_choiceRT_color,2021.2.3,MacIntel,59.97361161,,,,,,,,6,Slow,short,f,0,2.7779,5,3,23,2,1,,,,,
,1.9,,,,,,,,,k,purple,61004f3450dcefc6213425c8,2021-10-22_15h56.48.492,forced_choiceRT_color,2021.2.3,MacIntel,59.97361161,,,,,,,,6,Slow,short,k,1,2.1317,6,0,24,3,1,,,,,
,1.24,,,,,,,,,d,orange,61004f3450dcefc6213425c8,2021-10-22_15h56.48.492,forced_choiceRT_color,2021.2.3,MacIntel,59.97361161,,,,,,,,6,Fast,short,d,1,1.8903,6,1,25,0,1,,,,,
,1.24,,,,,,,,,j,red,61004f3450dcefc6213425c8,2021-10-22_15h56.48.492,forced_choiceRT_color,2021.2.3,MacIntel,59.97361161,,,,,,,,6,Ontime,short,j,1,1.9005,6,2,26,2,1,,,,,
,0.33,,,,,,,,,d,orange,61004f3450dcefc6213425c8,2021-10-22_15h56.48.492,forced_choiceRT_color,2021.2.3,MacIntel,59.97361161,,,,,,,,6,Fast,short,d,1,1.8986,6,3,27,0,1,,,,,
,1.13,,,,,,,,,f,blue,61004f3450dcefc6213425c8,2021-10-22_15h56.48.492,forced_choiceRT_color,2021.2.3,MacIntel,59.97361161,,,,,,,,6,Ontime,short,f,1,2.0488,7,0,28,1,1,,,,,
,0.18,,,,,,,,,d,orange,61004f3450dcefc6213425c8,2021-10-22_15h56.48.492,forced_choiceRT_color,2021.2.3,MacIntel,59.97361161,,,,,,,,6,Slow,short,d,1,2.1019,7,1,29,0,1,,,,,
,1.06,,,,,,,,,f,blue,61004f3450dcefc6213425c8,2021-10-22_15h56.48.492,forced_choiceRT_color,2021.2.3,MacIntel,59.97361161,,,,,,,,6,Fast,short,f,1,1.7649,7,2,30,1,1,,,,,
,0.76,,,,,,,,,j,red,61004f3450dcefc6213425c8,2021-10-22_15h56.48.492,forced_choiceRT_color,2021.2.3,MacIntel,59.97361161,,,,,,,,6,Ontime,short,j,1,1.9601,7,3,31,2,1,,,,,
,1.26,,,,,,,,,j,red,61004f3450dcefc6213425c8,2021-10-22_15h56.48.492,forced_choiceRT_color,2021.2.3,MacIntel,59.97361161,,,,,,,,6,Ontime,short,j,1,2.0813,8,0,32,2,1,,,,,
,1.91,,,,,,,,,f,blue,61004f3450dcefc6213425c8,2021-10-22_15h56.48.492,forced_choiceRT_color,2021.2.3,MacIntel,59.97361161,,,,,,,,6,Slow,short,j,0,2.3227,8,1,33,1,1,,,,,
,1.27,,,,,,,,,f,blue,61004f3450dcefc6213425c8,2021-10-22_15h56.48.492,forced_choiceRT_color,2021.2.3,MacIntel,59.97361161,,,,,,,,6,Ontime,short,f,1,1.9146,8,2,34,1,1,,,,,
,1.25,,,,,,,,,d,orange,61004f3450dcefc6213425c8,2021-10-22_15h56.48.492,forced_choiceRT_color,2021.2.3,MacIntel,59.97361161,,,,,,,,6,Ontime,short,d,1,1.9975,8,3,35,0,1,,,,,
,1,,,,,,,,,j,red,61004f3450dcefc6213425c8,2021-10-22_15h56.48.492,forced_choiceRT_color,2021.2.3,MacIntel,59.97361161,,,,,,,,6,Ontime,short,j,1,2.0347,9,0,36,2,1,,,,,
,0.91,,,,,,,,,k,purple,61004f3450dcefc6213425c8,2021-10-22_15h56.48.492,forced_choiceRT_color,2021.2.3,MacIntel,59.97361161,,,,,,,,6,Slow,short,k,1,2.1692,9,1,37,3,1,,,,,
,0.32,,,,,,,,,f,blue,61004f3450dcefc6213425c8,2021-10-22_15h56.48.492,forced_choiceRT_color,2021.2.3,MacIntel,59.97361161,,,,,,,,6,Fast,short,f,1,1.8551,9,2,38,1,1,,,,,
,0.37,,,,,,,,,k,purple,61004f3450dcefc6213425c8,2021-10-22_15h56.48.492,forced_choiceRT_color,2021.2.3,MacIntel,59.97361161,,,,,,,,6,Ontime,short,k,1,1.9944,9,3,39,3,1,,,,,
,,,,,,,,,,,,61004f3450dcefc6213425c8,2021-10-22_15h56.48.492,forced_choiceRT_color,2021.2.3,MacIntel,59.97361161,,,,,,,,,,,,,,,,,,,5,0,5,0,1
,1.03,,,,,,,,,d,orange,61004f3450dcefc6213425c8,2021-10-22_15h56.48.492,forced_choiceRT_color,2021.2.3,MacIntel,59.97361161,,,,,,,,7,Ontime,short,d,1,2.0189,0,0,0,0,1,,,,,
,1.48,,,,,,,,,d,orange,61004f3450dcefc6213425c8,2021-10-22_15h56.48.492,forced_choiceRT_color,2021.2.3,MacIntel,59.97361161,,,,,,,,7,Ontime,short,d,1,2.0374,0,1,1,0,1,,,,,
,1.61,,,,,,,,,k,purple,61004f3450dcefc6213425c8,2021-10-22_15h56.48.492,forced_choiceRT_color,2021.2.3,MacIntel,59.97361161,,,,,,,,7,Slow,short,k,1,2.1012,0,2,2,3,1,,,,,
,1.84,,,,,,,,,d,orange,61004f3450dcefc6213425c8,2021-10-22_15h56.48.492,forced_choiceRT_color,2021.2.3,MacIntel,59.97361161,,,,,,,,7,Slow,short,f,0,2.2408,0,3,3,0,1,,,,,
,0.48,,,,,,,,,d,orange,61004f3450dcefc6213425c8,2021-10-22_15h56.48.492,forced_choiceRT_color,2021.2.3,MacIntel,59.97361161,,,,,,,,7,Ontime,short,d,1,1.9835,1,0,4,0,1,,,,,
,0.68,,,,,,,,,f,blue,61004f3450dcefc6213425c8,2021-10-22_15h56.48.492,forced_choiceRT_color,2021.2.3,MacIntel,59.97361161,,,,,,,,7,Ontime,short,f,1,1.9843,1,1,5,1,1,,,,,
,1.19,,,,,,,,,k,purple,61004f3450dcefc6213425c8,2021-10-22_15h56.48.492,forced_choiceRT_color,2021.2.3,MacIntel,59.97361161,,,,,,,,7,Ontime,short,k,1,2.049,1,2,6,3,1,,,,,
,0.85,,,,,,,,,f,blue,61004f3450dcefc6213425c8,2021-10-22_15h56.48.492,forced_choiceRT_color,2021.2.3,MacIntel,59.97361161,,,,,,,,7,Ontime,short,f,1,2.019,1,3,7,1,1,,,,,
,0.47,,,,,,,,,j,red,61004f3450dcefc6213425c8,2021-10-22_15h56.48.492,forced_choiceRT_color,2021.2.3,MacIntel,59.97361161,,,,,,,,7,Fast,short,j,1,1.8817,2,0,8,2,1,,,,,
,1.46,,,,,,,,,f,blue,61004f3450dcefc6213425c8,2021-10-22_15h56.48.492,forced_choiceRT_color,2021.2.3,MacIntel,59.97361161,,,,,,,,7,Ontime,short,j,0,2.0835,2,1,9,1,1,,,,,
,0.05,,,,,,,,,d,orange,61004f3450dcefc6213425c8,2021-10-22_15h56.48.492,forced_choiceRT_color,2021.2.3,MacIntel,59.97361161,,,,,,,,7,Ontime,short,d,1,1.9994,2,2,10,0,1,,,,,
,1.48,,,,,,,,,f,blue,61004f3450dcefc6213425c8,2021-10-22_15h56.48.492,forced_choiceRT_color,2021.2.3,MacIntel,59.97361161,,,,,,,,7,Ontime,short,f,1,2.0705,2,3,11,1,1,,,,,
,0.5,,,,,,,,,k,purple,61004f3450dcefc6213425c8,2021-10-22_15h56.48.492,forced_choiceRT_color,2021.2.3,MacIntel,59.97361161,,,,,,,,7,Ontime,short,k,1,1.9194,3,0,12,3,1,,,,,
,1.96,,,,,,,,,k,purple,61004f3450dcefc6213425c8,2021-10-22_15h56.48.492,forced_choiceRT_color,2021.2.3,MacIntel,59.97361161,,,,,,,,7,Slow,short,k,1,2.5339,3,1,13,3,1,,,,,
,1.01,,,,,,,,,d,orange,61004f3450dcefc6213425c8,2021-10-22_15h56.48.492,forced_choiceRT_color,2021.2.3,MacIntel,59.97361161,,,,,,,,7,Ontime,short,d,1,1.912,3,2,14,0,1,,,,,
,0.03,,,,,,,,,k,purple,61004f3450dcefc6213425c8,2021-10-22_15h56.48.492,forced_choiceRT_color,2021.2.3,MacIntel,59.97361161,,,,,,,,7,Ontime,short,k,1,1.9047,3,3,15,3,1,,,,,
,0.71,,,,,,,,,f,blue,61004f3450dcefc6213425c8,2021-10-22_15h56.48.492,forced_choiceRT_color,2021.2.3,MacIntel,59.97361161,,,,,,,,7,Ontime,short,f,1,2.0333,4,0,16,1,1,,,,,
,0.45,,,,,,,,,f,blue,61004f3450dcefc6213425c8,2021-10-22_15h56.48.492,forced_choiceRT_color,2021.2.3,MacIntel,59.97361161,,,,,,,,7,Ontime,short,f,1,1.9559,4,1,17,1,1,,,,,
,1.01,,,,,,,,,f,blue,61004f3450dcefc6213425c8,2021-10-22_15h56.48.492,forced_choiceRT_color,2021.2.3,MacIntel,59.97361161,,,,,,,,7,Ontime,short,f,1,1.983,4,2,18,1,1,,,,,
,0.9,,,,,,,,,j,red,61004f3450dcefc6213425c8,2021-10-22_15h56.48.492,forced_choiceRT_color,2021.2.3,MacIntel,59.97361161,,,,,,,,7,Slow,short,j,1,2.1166,4,3,19,2,1,,,,,
,0.73,,,,,,,,,d,orange,61004f3450dcefc6213425c8,2021-10-22_15h56.48.492,forced_choiceRT_color,2021.2.3,MacIntel,59.97361161,,,,,,,,7,Ontime,short,d,1,2.0301,5,0,20,0,1,,,,,
,1.97,,,,,,,,,j,red,61004f3450dcefc6213425c8,2021-10-22_15h56.48.492,forced_choiceRT_color,2021.2.3,MacIntel,59.97361161,,,,,,,,7,Slow,short,k,0,2.4661,5,1,21,2,1,,,,,
,1.63,,,,,,,,,j,red,61004f3450dcefc6213425c8,2021-10-22_15h56.48.492,forced_choiceRT_color,2021.2.3,MacIntel,59.97361161,,,,,,,,7,Slow,short,j,1,2.1109,5,2,22,2,1,,,,,
,0.89,,,,,,,,,j,red,61004f3450dcefc6213425c8,2021-10-22_15h56.48.492,forced_choiceRT_color,2021.2.3,MacIntel,59.97361161,,,,,,,,7,Fast,short,j,1,1.8199,5,3,23,2,1,,,,,
,0.14,,,,,,,,,d,orange,61004f3450dcefc6213425c8,2021-10-22_15h56.48.492,forced_choiceRT_color,2021.2.3,MacIntel,59.97361161,,,,,,,,7,Ontime,short,d,1,1.9223,6,0,24,0,1,,,,,
,1.1,,,,,,,,,d,orange,61004f3450dcefc6213425c8,2021-10-22_15h56.48.492,forced_choiceRT_color,2021.2.3,MacIntel,59.97361161,,,,,,,,7,Ontime,short,d,1,2.0327,6,1,25,0,1,,,,,
,1.7,,,,,,,,,d,orange,61004f3450dcefc6213425c8,2021-10-22_15h56.48.492,forced_choiceRT_color,2021.2.3,MacIntel,59.97361161,,,,,,,,7,Slow,short,d,1,2.1662,6,2,26,0,1,,,,,
,1.76,,,,,,,,,j,red,61004f3450dcefc6213425c8,2021-10-22_15h56.48.492,forced_choiceRT_color,2021.2.3,MacIntel,59.97361161,,,,,,,,7,Ontime,short,d,0,1.9958,6,3,27,2,1,,,,,
,0.89,,,,,,,,,j,red,61004f3450dcefc6213425c8,2021-10-22_15h56.48.492,forced_choiceRT_color,2021.2.3,MacIntel,59.97361161,,,,,,,,7,Ontime,short,j,1,1.9327,7,0,28,2,1,,,,,
,1.05,,,,,,,,,k,purple,61004f3450dcefc6213425c8,2021-10-22_15h56.48.492,forced_choiceRT_color,2021.2.3,MacIntel,59.97361161,,,,,,,,7,Slow,short,k,1,2.1062,7,1,29,3,1,,,,,
,0.53,,,,,,,,,j,red,61004f3450dcefc6213425c8,2021-10-22_15h56.48.492,forced_choiceRT_color,2021.2.3,MacIntel,59.97361161,,,,,,,,7,Fast,short,j,1,1.7481,7,2,30,2,1,,,,,
,0.96,,,,,,,,,k,purple,61004f3450dcefc6213425c8,2021-10-22_15h56.48.492,forced_choiceRT_color,2021.2.3,MacIntel,59.97361161,,,,,,,,7,Ontime,short,k,1,1.9478,7,3,31,3,1,,,,,
,1.27,,,,,,,,,k,purple,61004f3450dcefc6213425c8,2021-10-22_15h56.48.492,forced_choiceRT_color,2021.2.3,MacIntel,59.97361161,,,,,,,,7,Ontime,short,k,1,1.9406,8,0,32,3,1,,,,,
,0,,,,,,,,,k,purple,61004f3450dcefc6213425c8,2021-10-22_15h56.48.492,forced_choiceRT_color,2021.2.3,MacIntel,59.97361161,,,,,,,,7,Fast,short,k,1,1.8998,8,1,33,3,1,,,,,
,1.45,,,,,,,,,f,blue,61004f3450dcefc6213425c8,2021-10-22_15h56.48.492,forced_choiceRT_color,2021.2.3,MacIntel,59.97361161,,,,,,,,7,Ontime,short,d,0,2.0718,8,2,34,1,1,,,,,
,0.04,,,,,,,,,f,blue,61004f3450dcefc6213425c8,2021-10-22_15h56.48.492,forced_choiceRT_color,2021.2.3,MacIntel,59.97361161,,,,,,,,7,Fast,short,f,1,0.098,8,3,35,1,1,,,,,
,1.6,,,,,,,,,j,red,61004f3450dcefc6213425c8,2021-10-22_15h56.48.492,forced_choiceRT_color,2021.2.3,MacIntel,59.97361161,,,,,,,,7,Slow,short,j,1,2.1092,9,0,36,2,1,,,,,
,1.62,,,,,,,,,k,purple,61004f3450dcefc6213425c8,2021-10-22_15h56.48.492,forced_choiceRT_color,2021.2.3,MacIntel,59.97361161,,,,,,,,7,Slow,short,k,1,2.1924,9,1,37,3,1,,,,,
,1.42,,,,,,,,,j,red,61004f3450dcefc6213425c8,2021-10-22_15h56.48.492,forced_choiceRT_color,2021.2.3,MacIntel,59.97361161,,,,,,,,7,Ontime,short,f,0,2.0099,9,2,38,2,1,,,,,
,0.63,,,,,,,,,f,blue,61004f3450dcefc6213425c8,2021-10-22_15h56.48.492,forced_choiceRT_color,2021.2.3,MacIntel,59.97361161,,,,,,,,7,Fast,short,j,0,0.0133,9,3,39,1,1,,,,,
,,,,,,,,,,,,61004f3450dcefc6213425c8,2021-10-22_15h56.48.492,forced_choiceRT_color,2021.2.3,MacIntel,59.97361161,,,,,,,,,,,,,,,,,,,6,0,6,0,1
,1.09,,,,,,,,,f,blue,61004f3450dcefc6213425c8,2021-10-22_15h56.48.492,forced_choiceRT_color,2021.2.3,MacIntel,59.97361161,,,,,,,,8,Ontime,short,j,0,1.9872,0,0,0,1,1,,,,,
,1.6,,,,,,,,,d,orange,61004f3450dcefc6213425c8,2021-10-22_15h56.48.492,forced_choiceRT_color,2021.2.3,MacIntel,59.97361161,,,,,,,,8,Fast,short,f,0,0.0132,0,1,1,0,1,,,,,
,0.67,,,,,,,,,d,orange,61004f3450dcefc6213425c8,2021-10-22_15h56.48.492,forced_choiceRT_color,2021.2.3,MacIntel,59.97361161,,,,,,,,8,Ontime,short,d,1,1.9656,0,2,2,0,1,,,,,
,0.52,,,,,,,,,k,purple,61004f3450dcefc6213425c8,2021-10-22_15h56.48.492,forced_choiceRT_color,2021.2.3,MacIntel,59.97361161,,,,,,,,8,Ontime,short,k,1,2.0138,0,3,3,3,1,,,,,
,0.42,,,,,,,,,d,orange,61004f3450dcefc6213425c8,2021-10-22_15h56.48.492,forced_choiceRT_color,2021.2.3,MacIntel,59.97361161,,,,,,,,8,Ontime,short,d,1,1.9217,1,0,4,0,1,,,,,
,1.99,,,,,,,,,f,blue,61004f3450dcefc6213425c8,2021-10-22_15h56.48.492,forced_choiceRT_color,2021.2.3,MacIntel,59.97361161,,,,,,,,8,Slow,short,j,0,2.3815,1,1,5,1,1,,,,,
,0.44,,,,,,,,,f,blue,61004f3450dcefc6213425c8,2021-10-22_15h56.48.492,forced_choiceRT_color,2021.2.3,MacIntel,59.97361161,,,,,,,,8,Ontime,short,f,1,1.9938,1,2,6,1,1,,,,,
,1.18,,,,,,,,,k,purple,61004f3450dcefc6213425c8,2021-10-22_15h56.48.492,forced_choiceRT_color,2021.2.3,MacIntel,59.97361161,,,,,,,,8,Ontime,short,k,1,1.9661,1,3,7,3,1,,,,,
,1.67,,,,,,,,,k,purple,61004f3450dcefc6213425c8,2021-10-22_15h56.48.492,forced_choiceRT_color,2021.2.3,MacIntel,59.97361161,,,,,,,,8,Slow,short,k,1,2.1973,2,0,8,3,1,,,,,
,0.05,,,,,,,,,f,blue,61004f3450dcefc6213425c8,2021-10-22_15h56.48.492,forced_choiceRT_color,2021.2.3,MacIntel,59.97361161,,,,,,,,8,Fast,short,f,1,1.7708,2,1,9,1,1,,,,,
,1.79,,,,,,,,,d,orange,61004f3450dcefc6213425c8,2021-10-22_15h56.48.492,forced_choiceRT_color,2021.2.3,MacIntel,59.97361161,,,,,,,,8,Slow,short,d,1,2.3578,2,2,10,0,1,,,,,
,0.85,,,,,,,,,d,orange,61004f3450dcefc6213425c8,2021-10-22_15h56.48.492,forced_choiceRT_color,2021.2.3,MacIntel,59.97361161,,,,,,,,8,Fast,short,d,1,1.8954,2,3,11,0,1,,,,,
,1.98,,,,,,,,,j,red,61004f3450dcefc6213425c8,2021-10-22_15h56.48.492,forced_choiceRT_color,2021.2.3,MacIntel,59.97361161,,,,,,,,8,Slow,short,k,0,2.1164,3,0,12,2,1,,,,,
,1.41,,,,,,,,,j,red,61004f3450dcefc6213425c8,2021-10-22_15h56.48.492,forced_choiceRT_color,2021.2.3,MacIntel,59.97361161,,,,,,,,8,Ontime,short,j,1,1.9492,3,1,13,2,1,,,,,
,0.03,,,,,,,,,f,blue,61004f3450dcefc6213425c8,2021-10-22_15h56.48.492,forced_choiceRT_color,2021.2.3,MacIntel,59.97361161,,,,,,,,8,Ontime,short,f,1,1.965,3,2,14,1,1,,,,,
,1.03,,,,,,,,,j,red,61004f3450dcefc6213425c8,2021-10-22_15h56.48.492,forced_choiceRT_color,2021.2.3,MacIntel,59.97361161,,,,,,,,8,Ontime,short,j,1,2.0513,3,3,15,2,1,,,,,
,1.33,,,,,,,,,j,red,61004f3450dcefc6213425c8,2021-10-22_15h56.48.492,forced_choiceRT_color,2021.2.3,MacIntel,59.97361161,,,,,,,,8,Ontime,short,j,1,2.0991,4,0,16,2,1,,,,,
,1.8,,,,,,,,,j,red,61004f3450dcefc6213425c8,2021-10-22_15h56.48.492,forced_choiceRT_color,2021.2.3,MacIntel,59.97361161,,,,,,,,8,Slow,short,j,1,2.2342,4,1,17,2,1,,,,,
,0.79,,,,,,,,,f,blue,61004f3450dcefc6213425c8,2021-10-22_15h56.48.492,forced_choiceRT_color,2021.2.3,MacIntel,59.97361161,,,,,,,,8,Fast,short,f,1,1.835,4,2,18,1,1,,,,,
,1.82,,,,,,,,,f,blue,61004f3450dcefc6213425c8,2021-10-22_15h56.48.492,forced_choiceRT_color,2021.2.3,MacIntel,59.97361161,,,,,,,,8,Ontime,short,d,0,2.0151,4,3,19,1,1,,,,,
,0.52,,,,,,,,,j,red,61004f3450dcefc6213425c8,2021-10-22_15h56.48.492,forced_choiceRT_color,2021.2.3,MacIntel,59.97361161,,,,,,,,8,Ontime,short,j,1,1.9659,5,0,20,2,1,,,,,
,1.41,,,,,,,,,j,red,61004f3450dcefc6213425c8,2021-10-22_15h56.48.492,forced_choiceRT_color,2021.2.3,MacIntel,59.97361161,,,,,,,,8,Ontime,short,j,1,1.9872,5,1,21,2,1,,,,,
,0.19,,,,,,,,,k,purple,61004f3450dcefc6213425c8,2021-10-22_15h56.48.492,forced_choiceRT_color,2021.2.3,MacIntel,59.97361161,,,,,,,,8,Ontime,short,k,1,1.9733,5,2,22,3,1,,,,,
,0.39,,,,,,,,,j,red,61004f3450dcefc6213425c8,2021-10-22_15h56.48.492,forced_choiceRT_color,2021.2.3,MacIntel,59.97361161,,,,,,,,8,Ontime,short,j,1,1.9364,5,3,23,2,1,,,,,
,1.19,,,,,,,,,f,blue,61004f3450dcefc6213425c8,2021-10-22_15h56.48.492,forced_choiceRT_color,2021.2.3,MacIntel,59.97361161,,,,,,,,8,Slow,short,f,1,2.2974,6,0,24,1,1,,,,,
,1.26,,,,,,,,,k,purple,61004f3450dcefc6213425c8,2021-10-22_15h56.48.492,forced_choiceRT_color,2021.2.3,MacIntel,59.97361161,,,,,,,,8,Fast,short,k,1,1.8911,6,1,25,3,1,,,,,
,0.81,,,,,,,,,j,red,61004f3450dcefc6213425c8,2021-10-22_15h56.48.492,forced_choiceRT_color,2021.2.3,MacIntel,59.97361161,,,,,,,,8,Ontime,short,j,1,1.9228,6,2,26,2,1,,,,,
,0.3,,,,,,,,,f,blue,61004f3450dcefc6213425c8,2021-10-22_15h56.48.492,forced_choiceRT_color,2021.2.3,MacIntel,59.97361161,,,,,,,,8,Ontime,short,f,1,1.958,6,3,27,1,1,,,,,
,0.67,,,,,,,,,d,orange,61004f3450dcefc6213425c8,2021-10-22_15h56.48.492,forced_choiceRT_color,2021.2.3,MacIntel,59.97361161,,,,,,,,8,Ontime,short,d,1,1.9651,7,0,28,0,1,,,,,
,0.28,,,,,,,,,k,purple,61004f3450dcefc6213425c8,2021-10-22_15h56.48.492,forced_choiceRT_color,2021.2.3,MacIntel,59.97361161,,,,,,,,8,Ontime,short,k,1,1.9832,7,1,29,3,1,,,,,
,1.19,,,,,,,,,d,orange,61004f3450dcefc6213425c8,2021-10-22_15h56.48.492,forced_choiceRT_color,2021.2.3,MacIntel,59.97361161,,,,,,,,8,Ontime,short,d,1,2.0066,7,2,30,0,1,,,,,
,0.08,,,,,,,,,d,orange,61004f3450dcefc6213425c8,2021-10-22_15h56.48.492,forced_choiceRT_color,2021.2.3,MacIntel,59.97361161,,,,,,,,8,Ontime,short,d,1,1.903,7,3,31,0,1,,,,,
,1.15,,,,,,,,,k,purple,61004f3450dcefc6213425c8,2021-10-22_15h56.48.492,forced_choiceRT_color,2021.2.3,MacIntel,59.97361161,,,,,,,,8,Ontime,short,k,1,2.0288,8,0,32,3,1,,,,,
,1.95,,,,,,,,,k,purple,61004f3450dcefc6213425c8,2021-10-22_15h56.48.492,forced_choiceRT_color,2021.2.3,MacIntel,59.97361161,,,,,,,,8,Slow,short,k,1,2.45,8,1,33,3,1,,,,,
,0.96,,,,,,,,,k,purple,61004f3450dcefc6213425c8,2021-10-22_15h56.48.492,forced_choiceRT_color,2021.2.3,MacIntel,59.97361161,,,,,,,,8,Ontime,short,k,1,2.0251,8,2,34,3,1,,,,,
,1.05,,,,,,,,,j,red,61004f3450dcefc6213425c8,2021-10-22_15h56.48.492,forced_choiceRT_color,2021.2.3,MacIntel,59.97361161,,,,,,,,8,Ontime,short,j,1,2.0492,8,3,35,2,1,,,,,
,1.21,,,,,,,,,d,orange,61004f3450dcefc6213425c8,2021-10-22_15h56.48.492,forced_choiceRT_color,2021.2.3,MacIntel,59.97361161,,,,,,,,8,Ontime,short,d,1,2.0691,9,0,36,0,1,,,,,
,1.99,,,,,,,,,f,blue,61004f3450dcefc6213425c8,2021-10-22_15h56.48.492,forced_choiceRT_color,2021.2.3,MacIntel,59.97361161,,,,,,,,8,Slow,short,k,0,2.2242,9,1,37,1,1,,,,,
,0.53,,,,,,,,,k,purple,61004f3450dcefc6213425c8,2021-10-22_15h56.48.492,forced_choiceRT_color,2021.2.3,MacIntel,59.97361161,,,,,,,,8,Ontime,short,k,1,1.9162,9,2,38,3,1,,,,,
,0.62,,,,,,,,,d,orange,61004f3450dcefc6213425c8,2021-10-22_15h56.48.492,forced_choiceRT_color,2021.2.3,MacIntel,59.97361161,,,,,,,,8,Ontime,short,d,1,1.9321,9,3,39,0,1,,,,,
,,,,,,,,,,,,61004f3450dcefc6213425c8,2021-10-22_15h56.48.492,forced_choiceRT_color,2021.2.3,MacIntel,59.97361161,,,,,,,,,,,,,,,,,,,7,0,7,0,1
,0.71,,,,,,,,,j,red,61004f3450dcefc6213425c8,2021-10-22_15h56.48.492,forced_choiceRT_color,2021.2.3,MacIntel,59.97361161,,,,,,,,9,Fast,short,j,1,1.8897,0,0,0,2,1,,,,,
,0.28,,,,,,,,,d,orange,61004f3450dcefc6213425c8,2021-10-22_15h56.48.492,forced_choiceRT_color,2021.2.3,MacIntel,59.97361161,,,,,,,,9,Ontime,short,d,1,2.0844,0,1,1,0,1,,,,,
,1.63,,,,,,,,,k,purple,61004f3450dcefc6213425c8,2021-10-22_15h56.48.492,forced_choiceRT_color,2021.2.3,MacIntel,59.97361161,,,,,,,,9,Slow,short,j,0,2.1381,0,2,2,3,1,,,,,
,1.41,,,,,,,,,d,orange,61004f3450dcefc6213425c8,2021-10-22_15h56.48.492,forced_choiceRT_color,2021.2.3,MacIntel,59.97361161,,,,,,,,9,Ontime,short,j,0,2.0372,0,3,3,0,1,,,,,
,1.22,,,,,,,,,f,blue,61004f3450dcefc6213425c8,2021-10-22_15h56.48.492,forced_choiceRT_color,2021.2.3,MacIntel,59.97361161,,,,,,,,9,Ontime,short,f,1,2.0889,1,0,4,1,1,,,,,
,1.78,,,,,,,,,d,orange,61004f3450dcefc6213425c8,2021-10-22_15h56.48.492,forced_choiceRT_color,2021.2.3,MacIntel,59.97361161,,,,,,,,9,Slow,short,d,1,2.2052,1,1,5,0,1,,,,,
,1.25,,,,,,,,,j,red,61004f3450dcefc6213425c8,2021-10-22_15h56.48.492,forced_choiceRT_color,2021.2.3,MacIntel,59.97361161,,,,,,,,9,Ontime,short,j,1,1.9593,1,2,6,2,1,,,,,
,0,,,,,,,,,k,purple,61004f3450dcefc6213425c8,2021-10-22_15h56.48.492,forced_choiceRT_color,2021.2.3,MacIntel,59.97361161,,,,,,,,9,Ontime,short,k,1,2.0171,1,3,7,3,1,,,,,
,0.63,,,,,,,,,f,blue,61004f3450dcefc6213425c8,2021-10-22_15h56.48.492,forced_choiceRT_color,2021.2.3,MacIntel,59.97361161,,,,,,,,9,Ontime,short,f,1,1.9819,2,0,8,1,1,,,,,
,1.09,,,,,,,,,f,blue,61004f3450dcefc6213425c8,2021-10-22_15h56.48.492,forced_choiceRT_color,2021.2.3,MacIntel,59.97361161,,,,,,,,9,Ontime,short,f,1,1.9532,2,1,9,1,1,,,,,
,0.35,,,,,,,,,d,orange,61004f3450dcefc6213425c8,2021-10-22_15h56.48.492,forced_choiceRT_color,2021.2.3,MacIntel,59.97361161,,,,,,,,9,Ontime,short,d,1,1.9561,2,2,10,0,1,,,,,
,1.61,,,,,,,,,f,blue,61004f3450dcefc6213425c8,2021-10-22_15h56.48.492,forced_choiceRT_color,2021.2.3,MacIntel,59.97361161,,,,,,,,9,Slow,short,f,1,2.1686,2,3,11,1,1,,,,,
,0.57,,,,,,,,,k,purple,61004f3450dcefc6213425c8,2021-10-22_15h56.48.492,forced_choiceRT_color,2021.2.3,MacIntel,59.97361161,,,,,,,,9,Fast,short,k,1,1.826,3,0,12,3,1,,,,,
,1.42,,,,,,,,,k,purple,61004f3450dcefc6213425c8,2021-10-22_15h56.48.492,forced_choiceRT_color,2021.2.3,MacIntel,59.97361161,,,,,,,,9,Slow,short,k,1,2.1146,3,1,13,3,1,,,,,
,1.66,,,,,,,,,j,red,61004f3450dcefc6213425c8,2021-10-22_15h56.48.492,forced_choiceRT_color,2021.2.3,MacIntel,59.97361161,,,,,,,,9,Slow,short,j,1,2.2658,3,2,14,2,1,,,,,
,0.1,,,,,,,,,d,orange,61004f3450dcefc6213425c8,2021-10-22_15h56.48.492,forced_choiceRT_color,2021.2.3,MacIntel,59.97361161,,,,,,,,9,Fast,short,d,1,1.7442,3,3,15,0,1,,,,,
,0.83,,,,,,,,,d,orange,61004f3450dcefc6213425c8,2021-10-22_15h56.48.492,forced_choiceRT_color,2021.2.3,MacIntel,59.97361161,,,,,,,,9,Ontime,short,d,1,1.9075,4,0,16,0,1,,,,,
,1.16,,,,,,,,,f,blue,61004f3450dcefc6213425c8,2021-10-22_15h56.48.492,forced_choiceRT_color,2021.2.3,MacIntel,59.97361161,,,,,,,,9,Ontime,short,f,1,2.033,4,1,17,1,1,,,,,
,0.15,,,,,,,,,j,red,61004f3450dcefc6213425c8,2021-10-22_15h56.48.492,forced_choiceRT_color,2021.2.3,MacIntel,59.97361161,,,,,,,,9,Ontime,short,j,1,1.9376,4,2,18,2,1,,,,,
,0.73,,,,,,,,,k,purple,61004f3450dcefc6213425c8,2021-10-22_15h56.48.492,forced_choiceRT_color,2021.2.3,MacIntel,59.97361161,,,,,,,,9,Fast,short,k,1,1.8647,4,3,19,3,1,,,,,
,0.34,,,,,,,,,j,red,61004f3450dcefc6213425c8,2021-10-22_15h56.48.492,forced_choiceRT_color,2021.2.3,MacIntel,59.97361161,,,,,,,,9,Fast,short,j,1,1.8509,5,0,20,2,1,,,,,
,0.47,,,,,,,,,j,red,61004f3450dcefc6213425c8,2021-10-22_15h56.48.492,forced_choiceRT_color,2021.2.3,MacIntel,59.97361161,,,,,,,,9,Ontime,short,j,1,1.9046,5,1,21,2,1,,,,,
,1.69,,,,,,,,,f,blue,61004f3450dcefc6213425c8,2021-10-22_15h56.48.492,forced_choiceRT_color,2021.2.3,MacIntel,59.97361161,,,,,,,,9,Ontime,short,k,0,1.9671,5,2,22,1,1,,,,,
,0.65,,,,,,,,,f,blue,61004f3450dcefc6213425c8,2021-10-22_15h56.48.492,forced_choiceRT_color,2021.2.3,MacIntel,59.97361161,,,,,,,,9,Ontime,short,f,1,1.9651,5,3,23,1,1,,,,,
,0.27,,,,,,,,,f,blue,61004f3450dcefc6213425c8,2021-10-22_15h56.48.492,forced_choiceRT_color,2021.2.3,MacIntel,59.97361161,,,,,,,,9,Ontime,short,f,1,1.9823,6,0,24,1,1,,,,,
,1.2,,,,,,,,,d,orange,61004f3450dcefc6213425c8,2021-10-22_15h56.48.492,forced_choiceRT_color,2021.2.3,MacIntel,59.97361161,,,,,,,,9,Ontime,short,d,1,2.0273,6,1,25,0,1,,,,,
,0.56,,,,,,,,,f,blue,61004f3450dcefc6213425c8,2021-10-22_15h56.48.492,forced_choiceRT_color,2021.2.3,MacIntel,59.97361161,,,,,,,,9,Ontime,short,f,1,1.9539,6,2,26,1,1,,,,,
,1.41,,,,,,,,,k,purple,61004f3450dcefc6213425c8,2021-10-22_15h56.48.492,forced_choiceRT_color,2021.2.3,MacIntel,59.97361161,,,,,,,,9,Fast,short,k,1,1.8824,6,3,27,3,1,,,,,
,1.8,,,,,,,,,k,purple,61004f3450dcefc6213425c8,2021-10-22_15h56.48.492,forced_choiceRT_color,2021.2.3,MacIntel,59.97361161,,,,,,,,9,Ontime,short,k,1,2.0178,7,0,28,3,1,,,,,
,1.98,,,,,,,,,j,red,61004f3450dcefc6213425c8,2021-10-22_15h56.48.492,forced_choiceRT_color,2021.2.3,MacIntel,59.97361161,,,,,,,,9,Ontime,short,k,0,2.0728,7,1,29,2,1,,,,,
,0.52,,,,,,,,,j,red,61004f3450dcefc6213425c8,2021-10-22_15h56.48.492,forced_choiceRT_color,2021.2.3,MacIntel,59.97361161,,,,,,,,9,Ontime,short,j,1,2.0047,7,2,30,2,1,,,,,
,1.74,,,,,,,,,d,orange,61004f3450dcefc6213425c8,2021-10-22_15h56.48.492,forced_choiceRT_color,2021.2.3,MacIntel,59.97361161,,,,,,,,9,Ontime,short,d,1,2.0153,7,3,31,0,1,,,,,
,0.09,,,,,,,,,d,orange,61004f3450dcefc6213425c8,2021-10-22_15h56.48.492,forced_choiceRT_color,2021.2.3,MacIntel,59.97361161,,,,,,,,9,Fast,short,d,1,1.8075,8,0,32,0,1,,,,,
,1.43,,,,,,,,,k,purple,61004f3450dcefc6213425c8,2021-10-22_15h56.48.492,forced_choiceRT_color,2021.2.3,MacIntel,59.97361161,,,,,,,,9,Ontime,short,j,0,1.9152,8,1,33,3,1,,,,,
,0.82,,,,,,,,,j,red,61004f3450dcefc6213425c8,2021-10-22_15h56.48.492,forced_choiceRT_color,2021.2.3,MacIntel,59.97361161,,,,,,,,9,Fast,short,k,0,0.1323,8,2,34,2,1,,,,,
,0.09,,,,,,,,,f,blue,61004f3450dcefc6213425c8,2021-10-22_15h56.48.492,forced_choiceRT_color,2021.2.3,MacIntel,59.97361161,,,,,,,,9,Fast,short,j,0,1.7357,8,3,35,1,1,,,,,
,1.51,,,,,,,,,j,red,61004f3450dcefc6213425c8,2021-10-22_15h56.48.492,forced_choiceRT_color,2021.2.3,MacIntel,59.97361161,,,,,,,,9,Ontime,short,k,0,1.9808,9,0,36,2,1,,,,,
,0.25,,,,,,,,,k,purple,61004f3450dcefc6213425c8,2021-10-22_15h56.48.492,forced_choiceRT_color,2021.2.3,MacIntel,59.97361161,,,,,,,,9,Ontime,short,k,1,2.0484,9,1,37,3,1,,,,,
,0,,,,,,,,,k,purple,61004f3450dcefc6213425c8,2021-10-22_15h56.48.492,forced_choiceRT_color,2021.2.3,MacIntel,59.97361161,,,,,,,,9,Ontime,short,k,1,2.0344,9,2,38,3,1,,,,,
,1.64,,,,,,,,,d,orange,61004f3450dcefc6213425c8,2021-10-22_15h56.48.492,forced_choiceRT_color,2021.2.3,MacIntel,59.97361161,,,,,,,,9,Slow,short,f,0,2.1477,9,3,39,0,1,,,,,
,,,,,,,,,,,,61004f3450dcefc6213425c8,2021-10-22_15h56.48.492,forced_choiceRT_color,2021.2.3,MacIntel,59.97361161,,,,,,,,,,,,,,,,,,,8,0,8,0,1
,0.81,,,,,,,,,d,orange,61004f3450dcefc6213425c8,2021-10-22_15h56.48.492,forced_choiceRT_color,2021.2.3,MacIntel,59.97361161,,,,,,,,10,Ontime,short,d,1,1.927,0,0,0,0,1,,,,,
,0.06,,,,,,,,,j,red,61004f3450dcefc6213425c8,2021-10-22_15h56.48.492,forced_choiceRT_color,2021.2.3,MacIntel,59.97361161,,,,,,,,10,Ontime,short,j,1,1.9404,0,1,1,2,1,,,,,
,0.97,,,,,,,,,j,red,61004f3450dcefc6213425c8,2021-10-22_15h56.48.492,forced_choiceRT_color,2021.2.3,MacIntel,59.97361161,,,,,,,,10,Ontime,short,j,1,2.0069,0,2,2,2,1,,,,,
,0.59,,,,,,,,,k,purple,61004f3450dcefc6213425c8,2021-10-22_15h56.48.492,forced_choiceRT_color,2021.2.3,MacIntel,59.97361161,,,,,,,,10,Ontime,short,k,1,1.9864,0,3,3,3,1,,,,,
,0.06,,,,,,,,,j,red,61004f3450dcefc6213425c8,2021-10-22_15h56.48.492,forced_choiceRT_color,2021.2.3,MacIntel,59.97361161,,,,,,,,10,Ontime,short,j,1,2,1,0,4,2,1,,,,,
,0.21,,,,,,,,,d,orange,61004f3450dcefc6213425c8,2021-10-22_15h56.48.492,forced_choiceRT_color,2021.2.3,MacIntel,59.97361161,,,,,,,,10,Fast,short,d,1,1.8901,1,1,5,0,1,,,,,
,0.8,,,,,,,,,k,purple,61004f3450dcefc6213425c8,2021-10-22_15h56.48.492,forced_choiceRT_color,2021.2.3,MacIntel,59.97361161,,,,,,,,10,Ontime,short,k,1,1.9843,1,2,6,3,1,,,,,
,1.83,,,,,,,,,f,blue,61004f3450dcefc6213425c8,2021-10-22_15h56.48.492,forced_choiceRT_color,2021.2.3,MacIntel,59.97361161,,,,,,,,10,Slow,short,j,0,2.2143,1,3,7,1,1,,,,,
,1.68,,,,,,,,,k,purple,61004f3450dcefc6213425c8,2021-10-22_15h56.48.492,forced_choiceRT_color,2021.2.3,MacIntel,59.97361161,,,,,,,,10,Slow,short,k,1,2.1155,2,0,8,3,1,,,,,
,1.96,,,,,,,,,d,orange,61004f3450dcefc6213425c8,2021-10-22_15h56.48.492,forced_choiceRT_color,2021.2.3,MacIntel,59.97361161,,,,,,,,10,Slow,short,k,0,2.1905,2,1,9,0,1,,,,,
,1.37,,,,,,,,,d,orange,61004f3450dcefc6213425c8,2021-10-22_15h56.48.492,forced_choiceRT_color,2021.2.3,MacIntel,59.97361161,,,,,,,,10,Ontime,short,d,1,1.9933,2,2,10,0,1,,,,,
,0.99,,,,,,,,,k,purple,61004f3450dcefc6213425c8,2021-10-22_15h56.48.492,forced_choiceRT_color,2021.2.3,MacIntel,59.97361161,,,,,,,,10,Slow,short,k,1,2.1498,2,3,11,3,1,,,,,
,0.49,,,,,,,,,k,purple,61004f3450dcefc6213425c8,2021-10-22_15h56.48.492,forced_choiceRT_color,2021.2.3,MacIntel,59.97361161,,,,,,,,10,Fast,short,k,1,1.8834,3,0,12,3,1,,,,,
,1.63,,,,,,,,,d,orange,61004f3450dcefc6213425c8,2021-10-22_15h56.48.492,forced_choiceRT_color,2021.2.3,MacIntel,59.97361161,,,,,,,,10,Ontime,short,f,0,2.0039,3,1,13,0,1,,,,,
,1.42,,,,,,,,,d,orange,61004f3450dcefc6213425c8,2021-10-22_15h56.48.492,forced_choiceRT_color,2021.2.3,MacIntel,59.97361161,,,,,,,,10,Ontime,short,d,1,1.9701,3,2,14,0,1,,,,,
,0.14,,,,,,,,,j,red,61004f3450dcefc6213425c8,2021-10-22_15h56.48.492,forced_choiceRT_color,2021.2.3,MacIntel,59.97361161,,,,,,,,10,Ontime,short,j,1,1.9876,3,3,15,2,1,,,,,
,1.81,,,,,,,,,j,red,61004f3450dcefc6213425c8,2021-10-22_15h56.48.492,forced_choiceRT_color,2021.2.3,MacIntel,59.97361161,,,,,,,,10,Slow,short,j,1,2.2479,4,0,16,2,1,,,,,
,1.14,,,,,,,,,d,orange,61004f3450dcefc6213425c8,2021-10-22_15h56.48.492,forced_choiceRT_color,2021.2.3,MacIntel,59.97361161,,,,,,,,10,Fast,short,k,0,1.8977,4,1,17,0,1,,,,,
,0.96,,,,,,,,,f,blue,61004f3450dcefc6213425c8,2021-10-22_15h56.48.492,forced_choiceRT_color,2021.2.3,MacIntel,59.97361161,,,,,,,,10,Fast,short,f,1,1.8007,4,2,18,1,1,,,,,
,0.81,,,,,,,,,j,red,61004f3450dcefc6213425c8,2021-10-22_15h56.48.492,forced_choiceRT_color,2021.2.3,MacIntel,59.97361161,,,,,,,,10,Ontime,short,j,1,1.929,4,3,19,2,1,,,,,
,0.47,,,,,,,,,f,blue,61004f3450dcefc6213425c8,2021-10-22_15h56.48.492,forced_choiceRT_color,2021.2.3,MacIntel,59.97361161,,,,,,,,10,Ontime,short,f,1,1.9673,5,0,20,1,1,,,,,
,1.67,,,,,,,,,k,purple,61004f3450dcefc6213425c8,2021-10-22_15h56.48.492,forced_choiceRT_color,2021.2.3,MacIntel,59.97361161,,,,,,,,10,Slow,short,k,1,2.2194,5,1,21,3,1,,,,,
,0.45,,,,,,,,,d,orange,61004f3450dcefc6213425c8,2021-10-22_15h56.48.492,forced_choiceRT_color,2021.2.3,MacIntel,59.97361161,,,,,,,,10,Ontime,short,d,1,1.9703,5,2,22,0,1,,,,,
,1.05,,,,,,,,,d,orange,61004f3450dcefc6213425c8,2021-10-22_15h56.48.492,forced_choiceRT_color,2021.2.3,MacIntel,59.97361161,,,,,,,,10,Ontime,short,d,1,1.9522,5,3,23,0,1,,,,,
,1.5,,,,,,,,,k,purple,61004f3450dcefc6213425c8,2021-10-22_15h56.48.492,forced_choiceRT_color,2021.2.3,MacIntel,59.97361161,,,,,,,,10,Ontime,short,k,1,2.0236,6,0,24,3,1,,,,,
,1.95,,,,,,,,,f,blue,61004f3450dcefc6213425c8,2021-10-22_15h56.48.492,forced_choiceRT_color,2021.2.3,MacIntel,59.97361161,,,,,,,,10,Slow,short,j,0,2.3417,6,1,25,1,1,,,,,
,0.77,,,,,,,,,j,red,61004f3450dcefc6213425c8,2021-10-22_15h56.48.492,forced_choiceRT_color,2021.2.3,MacIntel,59.97361161,,,,,,,,10,Ontime,short,j,1,1.9086,6,2,26,2,1,,,,,
,0.95,,,,,,,,,f,blue,61004f3450dcefc6213425c8,2021-10-22_15h56.48.492,forced_choiceRT_color,2021.2.3,MacIntel,59.97361161,,,,,,,,10,Ontime,short,f,1,2.0581,6,3,27,1,1,,,,,
,0.38,,,,,,,,,f,blue,61004f3450dcefc6213425c8,2021-10-22_15h56.48.492,forced_choiceRT_color,2021.2.3,MacIntel,59.97361161,,,,,,,,10,Ontime,short,f,1,1.9189,7,0,28,1,1,,,,,
,0.68,,,,,,,,,j,red,61004f3450dcefc6213425c8,2021-10-22_15h56.48.492,forced_choiceRT_color,2021.2.3,MacIntel,59.97361161,,,,,,,,10,Ontime,short,j,1,2.0218,7,1,29,2,1,,,,,
,1.05,,,,,,,,,j,red,61004f3450dcefc6213425c8,2021-10-22_15h56.48.492,forced_choiceRT_color,2021.2.3,MacIntel,59.97361161,,,,,,,,10,Ontime,short,j,1,1.9674,7,2,30,2,1,,,,,
,1.54,,,,,,,,,k,purple,61004f3450dcefc6213425c8,2021-10-22_15h56.48.492,forced_choiceRT_color,2021.2.3,MacIntel,59.97361161,,,,,,,,10,Ontime,short,k,1,2.054,7,3,31,3,1,,,,,
,1.79,,,,,,,,,f,blue,61004f3450dcefc6213425c8,2021-10-22_15h56.48.492,forced_choiceRT_color,2021.2.3,MacIntel,59.97361161,,,,,,,,10,Slow,short,j,0,2.1815,8,0,32,1,1,,,,,
,1.4,,,,,,,,,f,blue,61004f3450dcefc6213425c8,2021-10-22_15h56.48.492,forced_choiceRT_color,2021.2.3,MacIntel,59.97361161,,,,,,,,10,Slow,short,f,1,2.1318,8,1,33,1,1,,,,,
,1.18,,,,,,,,,f,blue,61004f3450dcefc6213425c8,2021-10-22_15h56.48.492,forced_choiceRT_color,2021.2.3,MacIntel,59.97361161,,,,,,,,10,Fast,short,f,1,1.8847,8,2,34,1,1,,,,,
,0.49,,,,,,,,,f,blue,61004f3450dcefc6213425c8,2021-10-22_15h56.48.492,forced_choiceRT_color,2021.2.3,MacIntel,59.97361161,,,,,,,,10,Ontime,short,f,1,1.9151,8,3,35,1,1,,,,,
,1.9,,,,,,,,,k,purple,61004f3450dcefc6213425c8,2021-10-22_15h56.48.492,forced_choiceRT_color,2021.2.3,MacIntel,59.97361161,,,,,,,,10,Slow,short,k,1,2.1605,9,0,36,3,1,,,,,
,0.5,,,,,,,,,d,orange,61004f3450dcefc6213425c8,2021-10-22_15h56.48.492,forced_choiceRT_color,2021.2.3,MacIntel,59.97361161,,,,,,,,10,Ontime,short,d,1,1.965,9,1,37,0,1,,,,,
,0.01,,,,,,,,,j,red,61004f3450dcefc6213425c8,2021-10-22_15h56.48.492,forced_choiceRT_color,2021.2.3,MacIntel,59.97361161,,,,,,,,10,Ontime,short,j,1,1.9161,9,2,38,2,1,,,,,
,0.95,,,,,,,,,k,purple,61004f3450dcefc6213425c8,2021-10-22_15h56.48.492,forced_choiceRT_color,2021.2.3,MacIntel,59.97361161,,,,,,,,10,Slow,short,k,1,2.2031,9,3,39,3,1,,,,,
,,,,,,,,,,,,61004f3450dcefc6213425c8,2021-10-22_15h56.48.492,forced_choiceRT_color,2021.2.3,MacIntel,59.97361161,,,,,,,,,,,,,,,,,,,9,0,9,0,1
