IP_Addresss,target_onset,trial_resp_sp.keys,trial_resp_sp.corr,trial_resp_sp.rt,trials_train_loop.thisRepN,trials_train_loop.thisTrialN,trials_train_loop.thisN,trials_train_loop.thisIndex,trials_train_loop.ran,correct_key,color,participant,date,expName,psychopyVersion,OS,frameRate,trial_resp_timing.keys,trial_resp_timing.rt,trials_train_timing.thisRepN,trials_train_timing.thisTrialN,trials_train_timing.thisN,trials_train_timing.thisIndex,trials_train_timing.ran,block_id,ontime,feedback_cond,forcedRT_resp.keys,forcedRT_resp.corr,forcedRT_resp.rt,trials.thisRepN,trials.thisTrialN,trials.thisN,trials.thisIndex,trials.ran,blocks.thisRepN,blocks.thisTrialN,blocks.thisN,blocks.thisIndex,blocks.ran
96.245.42.31,0,j,1,3.59,0,0,0,2,1,j,red,6102d892986a0f83785e2470,2021-09-27_15h07.54.259,forced_choiceRT_color,2021.2.3,Win32,29.97601918,,,,,,,,,,,,,,,,,,,,,,,
,0,f,1,1.053,0,1,1,1,1,f,blue,6102d892986a0f83785e2470,2021-09-27_15h07.54.259,forced_choiceRT_color,2021.2.3,Win32,29.97601918,,,,,,,,,,,,,,,,,,,,,,,
,0,d,1,1.518,0,2,2,0,1,d,orange,6102d892986a0f83785e2470,2021-09-27_15h07.54.259,forced_choiceRT_color,2021.2.3,Win32,29.97601918,,,,,,,,,,,,,,,,,,,,,,,
,0,k,1,0.78,0,3,3,3,1,k,purple,6102d892986a0f83785e2470,2021-09-27_15h07.54.259,forced_choiceRT_color,2021.2.3,Win32,29.97601918,,,,,,,,,,,,,,,,,,,,,,,
,0,f,1,0.881,1,0,4,1,1,f,blue,6102d892986a0f83785e2470,2021-09-27_15h07.54.259,forced_choiceRT_color,2021.2.3,Win32,29.97601918,,,,,,,,,,,,,,,,,,,,,,,
,0,j,1,1.116,1,1,5,2,1,j,red,6102d892986a0f83785e2470,2021-09-27_15h07.54.259,forced_choiceRT_color,2021.2.3,Win32,29.97601918,,,,,,,,,,,,,,,,,,,,,,,
,0,k,1,0.716,1,2,6,3,1,k,purple,6102d892986a0f83785e2470,2021-09-27_15h07.54.259,forced_choiceRT_color,2021.2.3,Win32,29.97601918,,,,,,,,,,,,,,,,,,,,,,,
,0,k,1,0.568,1,3,7,3,1,k,purple,6102d892986a0f83785e2470,2021-09-27_15h07.54.259,forced_choiceRT_color,2021.2.3,Win32,29.97601918,,,,,,,,,,,,,,,,,,,,,,,
,0,j,1,0.866,2,0,8,2,1,j,red,6102d892986a0f83785e2470,2021-09-27_15h07.54.259,forced_choiceRT_color,2021.2.3,Win32,29.97601918,,,,,,,,,,,,,,,,,,,,,,,
,0,j,1,0.601,2,1,9,2,1,j,red,6102d892986a0f83785e2470,2021-09-27_15h07.54.259,forced_choiceRT_color,2021.2.3,Win32,29.97601918,,,,,,,,,,,,,,,,,,,,,,,
,0,d,1,0.653,2,2,10,0,1,d,orange,6102d892986a0f83785e2470,2021-09-27_15h07.54.259,forced_choiceRT_color,2021.2.3,Win32,29.97601918,,,,,,,,,,,,,,,,,,,,,,,
,0,f,1,0.528,2,3,11,1,1,f,blue,6102d892986a0f83785e2470,2021-09-27_15h07.54.259,forced_choiceRT_color,2021.2.3,Win32,29.97601918,,,,,,,,,,,,,,,,,,,,,,,
,0,k,1,0.698,3,0,12,3,1,k,purple,6102d892986a0f83785e2470,2021-09-27_15h07.54.259,forced_choiceRT_color,2021.2.3,Win32,29.97601918,,,,,,,,,,,,,,,,,,,,,,,
,0,d,1,0.778,3,1,13,0,1,d,orange,6102d892986a0f83785e2470,2021-09-27_15h07.54.259,forced_choiceRT_color,2021.2.3,Win32,29.97601918,,,,,,,,,,,,,,,,,,,,,,,
,0,d,1,0.577,3,2,14,0,1,d,orange,6102d892986a0f83785e2470,2021-09-27_15h07.54.259,forced_choiceRT_color,2021.2.3,Win32,29.97601918,,,,,,,,,,,,,,,,,,,,,,,
,0,d,1,0.694,3,3,15,0,1,d,orange,6102d892986a0f83785e2470,2021-09-27_15h07.54.259,forced_choiceRT_color,2021.2.3,Win32,29.97601918,,,,,,,,,,,,,,,,,,,,,,,
,0,f,1,0.529,4,0,16,1,1,f,blue,6102d892986a0f83785e2470,2021-09-27_15h07.54.259,forced_choiceRT_color,2021.2.3,Win32,29.97601918,,,,,,,,,,,,,,,,,,,,,,,
,0,j,0,0.541,4,1,17,3,1,k,purple,6102d892986a0f83785e2470,2021-09-27_15h07.54.259,forced_choiceRT_color,2021.2.3,Win32,29.97601918,,,,,,,,,,,,,,,,,,,,,,,
,0,d,1,0.784,4,2,18,0,1,d,orange,6102d892986a0f83785e2470,2021-09-27_15h07.54.259,forced_choiceRT_color,2021.2.3,Win32,29.97601918,,,,,,,,,,,,,,,,,,,,,,,
,0,d,1,0.729,4,3,19,0,1,d,orange,6102d892986a0f83785e2470,2021-09-27_15h07.54.259,forced_choiceRT_color,2021.2.3,Win32,29.97601918,,,,,,,,,,,,,,,,,,,,,,,
,0,d,1,0.631,5,0,20,0,1,d,orange,6102d892986a0f83785e2470,2021-09-27_15h07.54.259,forced_choiceRT_color,2021.2.3,Win32,29.97601918,,,,,,,,,,,,,,,,,,,,,,,
,0,j,1,0.952,5,1,21,2,1,j,red,6102d892986a0f83785e2470,2021-09-27_15h07.54.259,forced_choiceRT_color,2021.2.3,Win32,29.97601918,,,,,,,,,,,,,,,,,,,,,,,
,0,k,1,0.612,5,2,22,3,1,k,purple,6102d892986a0f83785e2470,2021-09-27_15h07.54.259,forced_choiceRT_color,2021.2.3,Win32,29.97601918,,,,,,,,,,,,,,,,,,,,,,,
,0,d,0,0.769,5,3,23,1,1,f,blue,6102d892986a0f83785e2470,2021-09-27_15h07.54.259,forced_choiceRT_color,2021.2.3,Win32,29.97601918,,,,,,,,,,,,,,,,,,,,,,,
,0,f,1,0.817,6,0,24,1,1,f,blue,6102d892986a0f83785e2470,2021-09-27_15h07.54.259,forced_choiceRT_color,2021.2.3,Win32,29.97601918,,,,,,,,,,,,,,,,,,,,,,,
,0,j,1,0.78,6,1,25,2,1,j,red,6102d892986a0f83785e2470,2021-09-27_15h07.54.259,forced_choiceRT_color,2021.2.3,Win32,29.97601918,,,,,,,,,,,,,,,,,,,,,,,
,0,j,1,0.763,6,2,26,2,1,j,red,6102d892986a0f83785e2470,2021-09-27_15h07.54.259,forced_choiceRT_color,2021.2.3,Win32,29.97601918,,,,,,,,,,,,,,,,,,,,,,,
,0,d,1,0.638,6,3,27,0,1,d,orange,6102d892986a0f83785e2470,2021-09-27_15h07.54.259,forced_choiceRT_color,2021.2.3,Win32,29.97601918,,,,,,,,,,,,,,,,,,,,,,,
,0,f,1,0.639,7,0,28,1,1,f,blue,6102d892986a0f83785e2470,2021-09-27_15h07.54.259,forced_choiceRT_color,2021.2.3,Win32,29.97601918,,,,,,,,,,,,,,,,,,,,,,,
,0,f,1,0.588,7,1,29,1,1,f,blue,6102d892986a0f83785e2470,2021-09-27_15h07.54.259,forced_choiceRT_color,2021.2.3,Win32,29.97601918,,,,,,,,,,,,,,,,,,,,,,,
,0,j,1,1.318,7,2,30,2,1,j,red,6102d892986a0f83785e2470,2021-09-27_15h07.54.259,forced_choiceRT_color,2021.2.3,Win32,29.97601918,,,,,,,,,,,,,,,,,,,,,,,
,0,k,1,0.515,7,3,31,3,1,k,purple,6102d892986a0f83785e2470,2021-09-27_15h07.54.259,forced_choiceRT_color,2021.2.3,Win32,29.97601918,,,,,,,,,,,,,,,,,,,,,,,
,0,j,1,0.542,8,0,32,2,1,j,red,6102d892986a0f83785e2470,2021-09-27_15h07.54.259,forced_choiceRT_color,2021.2.3,Win32,29.97601918,,,,,,,,,,,,,,,,,,,,,,,
,0,d,1,0.655,8,1,33,0,1,d,orange,6102d892986a0f83785e2470,2021-09-27_15h07.54.259,forced_choiceRT_color,2021.2.3,Win32,29.97601918,,,,,,,,,,,,,,,,,,,,,,,
,0,f,1,0.569,8,2,34,1,1,f,blue,6102d892986a0f83785e2470,2021-09-27_15h07.54.259,forced_choiceRT_color,2021.2.3,Win32,29.97601918,,,,,,,,,,,,,,,,,,,,,,,
,0,j,1,0.597,8,3,35,2,1,j,red,6102d892986a0f83785e2470,2021-09-27_15h07.54.259,forced_choiceRT_color,2021.2.3,Win32,29.97601918,,,,,,,,,,,,,,,,,,,,,,,
,0,k,1,0.636,9,0,36,3,1,k,purple,6102d892986a0f83785e2470,2021-09-27_15h07.54.259,forced_choiceRT_color,2021.2.3,Win32,29.97601918,,,,,,,,,,,,,,,,,,,,,,,
,0,k,1,0.834,9,1,37,3,1,k,purple,6102d892986a0f83785e2470,2021-09-27_15h07.54.259,forced_choiceRT_color,2021.2.3,Win32,29.97601918,,,,,,,,,,,,,,,,,,,,,,,
,0,f,1,0.643,9,2,38,1,1,f,blue,6102d892986a0f83785e2470,2021-09-27_15h07.54.259,forced_choiceRT_color,2021.2.3,Win32,29.97601918,,,,,,,,,,,,,,,,,,,,,,,
,0,k,1,0.769,9,3,39,3,1,k,purple,6102d892986a0f83785e2470,2021-09-27_15h07.54.259,forced_choiceRT_color,2021.2.3,Win32,29.97601918,,,,,,,,,,,,,,,,,,,,,,,
,0,k,1,0.773,10,0,40,3,1,k,purple,6102d892986a0f83785e2470,2021-09-27_15h07.54.259,forced_choiceRT_color,2021.2.3,Win32,29.97601918,,,,,,,,,,,,,,,,,,,,,,,
,0,j,1,0.658,10,1,41,2,1,j,red,6102d892986a0f83785e2470,2021-09-27_15h07.54.259,forced_choiceRT_color,2021.2.3,Win32,29.97601918,,,,,,,,,,,,,,,,,,,,,,,
,0,j,1,0.815,10,2,42,2,1,j,red,6102d892986a0f83785e2470,2021-09-27_15h07.54.259,forced_choiceRT_color,2021.2.3,Win32,29.97601918,,,,,,,,,,,,,,,,,,,,,,,
,0,k,1,0.653,10,3,43,3,1,k,purple,6102d892986a0f83785e2470,2021-09-27_15h07.54.259,forced_choiceRT_color,2021.2.3,Win32,29.97601918,,,,,,,,,,,,,,,,,,,,,,,
,0,k,1,0.549,11,0,44,3,1,k,purple,6102d892986a0f83785e2470,2021-09-27_15h07.54.259,forced_choiceRT_color,2021.2.3,Win32,29.97601918,,,,,,,,,,,,,,,,,,,,,,,
,0,j,0,0.673,11,1,45,1,1,f,blue,6102d892986a0f83785e2470,2021-09-27_15h07.54.259,forced_choiceRT_color,2021.2.3,Win32,29.97601918,,,,,,,,,,,,,,,,,,,,,,,
,0,j,1,0.727,11,2,46,2,1,j,red,6102d892986a0f83785e2470,2021-09-27_15h07.54.259,forced_choiceRT_color,2021.2.3,Win32,29.97601918,,,,,,,,,,,,,,,,,,,,,,,
,0,d,1,0.785,11,3,47,0,1,d,orange,6102d892986a0f83785e2470,2021-09-27_15h07.54.259,forced_choiceRT_color,2021.2.3,Win32,29.97601918,,,,,,,,,,,,,,,,,,,,,,,
,0,d,1,1.136,12,0,48,0,1,d,orange,6102d892986a0f83785e2470,2021-09-27_15h07.54.259,forced_choiceRT_color,2021.2.3,Win32,29.97601918,,,,,,,,,,,,,,,,,,,,,,,
,0,d,1,0.61,12,1,49,0,1,d,orange,6102d892986a0f83785e2470,2021-09-27_15h07.54.259,forced_choiceRT_color,2021.2.3,Win32,29.97601918,,,,,,,,,,,,,,,,,,,,,,,
,0,d,1,0.505,12,2,50,0,1,d,orange,6102d892986a0f83785e2470,2021-09-27_15h07.54.259,forced_choiceRT_color,2021.2.3,Win32,29.97601918,,,,,,,,,,,,,,,,,,,,,,,
,0,j,1,1.025,12,3,51,2,1,j,red,6102d892986a0f83785e2470,2021-09-27_15h07.54.259,forced_choiceRT_color,2021.2.3,Win32,29.97601918,,,,,,,,,,,,,,,,,,,,,,,
,0,k,1,0.673,13,0,52,3,1,k,purple,6102d892986a0f83785e2470,2021-09-27_15h07.54.259,forced_choiceRT_color,2021.2.3,Win32,29.97601918,,,,,,,,,,,,,,,,,,,,,,,
,0,f,1,1.519,13,1,53,1,1,f,blue,6102d892986a0f83785e2470,2021-09-27_15h07.54.259,forced_choiceRT_color,2021.2.3,Win32,29.97601918,,,,,,,,,,,,,,,,,,,,,,,
,0,f,1,0.637,13,2,54,1,1,f,blue,6102d892986a0f83785e2470,2021-09-27_15h07.54.259,forced_choiceRT_color,2021.2.3,Win32,29.97601918,,,,,,,,,,,,,,,,,,,,,,,
,0,f,1,0.464,13,3,55,1,1,f,blue,6102d892986a0f83785e2470,2021-09-27_15h07.54.259,forced_choiceRT_color,2021.2.3,Win32,29.97601918,,,,,,,,,,,,,,,,,,,,,,,
,0,k,1,0.851,14,0,56,3,1,k,purple,6102d892986a0f83785e2470,2021-09-27_15h07.54.259,forced_choiceRT_color,2021.2.3,Win32,29.97601918,,,,,,,,,,,,,,,,,,,,,,,
,0,d,1,0.946,14,1,57,0,1,d,orange,6102d892986a0f83785e2470,2021-09-27_15h07.54.259,forced_choiceRT_color,2021.2.3,Win32,29.97601918,,,,,,,,,,,,,,,,,,,,,,,
,0,f,1,0.822,14,2,58,1,1,f,blue,6102d892986a0f83785e2470,2021-09-27_15h07.54.259,forced_choiceRT_color,2021.2.3,Win32,29.97601918,,,,,,,,,,,,,,,,,,,,,,,
,0,j,1,1.15,14,3,59,2,1,j,red,6102d892986a0f83785e2470,2021-09-27_15h07.54.259,forced_choiceRT_color,2021.2.3,Win32,29.97601918,,,,,,,,,,,,,,,,,,,,,,,
,,,,,,,,,,,,6102d892986a0f83785e2470,2021-09-27_15h07.54.259,forced_choiceRT_color,2021.2.3,Win32,29.97601918,f,2.388,0,0,0,0,1,,,,,,,,,,,,,,,,
,,,,,,,,,,,,6102d892986a0f83785e2470,2021-09-27_15h07.54.259,forced_choiceRT_color,2021.2.3,Win32,29.97601918,f,1.832,1,0,1,0,1,,,,,,,,,,,,,,,,
,,,,,,,,,,,,6102d892986a0f83785e2470,2021-09-27_15h07.54.259,forced_choiceRT_color,2021.2.3,Win32,29.97601918,f,2.092,2,0,2,0,1,,,,,,,,,,,,,,,,
,,,,,,,,,,,,6102d892986a0f83785e2470,2021-09-27_15h07.54.259,forced_choiceRT_color,2021.2.3,Win32,29.97601918,f,2.16,3,0,3,0,1,,,,,,,,,,,,,,,,
,,,,,,,,,,,,6102d892986a0f83785e2470,2021-09-27_15h07.54.259,forced_choiceRT_color,2021.2.3,Win32,29.97601918,f,2.109,4,0,4,0,1,,,,,,,,,,,,,,,,
,,,,,,,,,,,,6102d892986a0f83785e2470,2021-09-27_15h07.54.259,forced_choiceRT_color,2021.2.3,Win32,29.97601918,f,2.05,5,0,5,0,1,,,,,,,,,,,,,,,,
,,,,,,,,,,,,6102d892986a0f83785e2470,2021-09-27_15h07.54.259,forced_choiceRT_color,2021.2.3,Win32,29.97601918,f,2.039,6,0,6,0,1,,,,,,,,,,,,,,,,
,,,,,,,,,,,,6102d892986a0f83785e2470,2021-09-27_15h07.54.259,forced_choiceRT_color,2021.2.3,Win32,29.97601918,f,2.155,7,0,7,0,1,,,,,,,,,,,,,,,,
,,,,,,,,,,,,6102d892986a0f83785e2470,2021-09-27_15h07.54.259,forced_choiceRT_color,2021.2.3,Win32,29.97601918,f,1.984,8,0,8,0,1,,,,,,,,,,,,,,,,
,,,,,,,,,,,,6102d892986a0f83785e2470,2021-09-27_15h07.54.259,forced_choiceRT_color,2021.2.3,Win32,29.97601918,f,2.077,9,0,9,0,1,,,,,,,,,,,,,,,,
,,,,,,,,,,,,6102d892986a0f83785e2470,2021-09-27_15h07.54.259,forced_choiceRT_color,2021.2.3,Win32,29.97601918,f,2.034,10,0,10,0,1,,,,,,,,,,,,,,,,
,,,,,,,,,,,,6102d892986a0f83785e2470,2021-09-27_15h07.54.259,forced_choiceRT_color,2021.2.3,Win32,29.97601918,f,2.04,11,0,11,0,1,,,,,,,,,,,,,,,,
,,,,,,,,,,,,6102d892986a0f83785e2470,2021-09-27_15h07.54.259,forced_choiceRT_color,2021.2.3,Win32,29.97601918,f,1.837,12,0,12,0,1,,,,,,,,,,,,,,,,
,,,,,,,,,,,,6102d892986a0f83785e2470,2021-09-27_15h07.54.259,forced_choiceRT_color,2021.2.3,Win32,29.97601918,f,1.809,13,0,13,0,1,,,,,,,,,,,,,,,,
,,,,,,,,,,,,6102d892986a0f83785e2470,2021-09-27_15h07.54.259,forced_choiceRT_color,2021.2.3,Win32,29.97601918,f,2.071,14,0,14,0,1,,,,,,,,,,,,,,,,
,,,,,,,,,,,,6102d892986a0f83785e2470,2021-09-27_15h07.54.259,forced_choiceRT_color,2021.2.3,Win32,29.97601918,f,2.073,15,0,15,0,1,,,,,,,,,,,,,,,,
,,,,,,,,,,,,6102d892986a0f83785e2470,2021-09-27_15h07.54.259,forced_choiceRT_color,2021.2.3,Win32,29.97601918,f,1.982,16,0,16,0,1,,,,,,,,,,,,,,,,
,,,,,,,,,,,,6102d892986a0f83785e2470,2021-09-27_15h07.54.259,forced_choiceRT_color,2021.2.3,Win32,29.97601918,f,1.86,17,0,17,0,1,,,,,,,,,,,,,,,,
,,,,,,,,,,,,6102d892986a0f83785e2470,2021-09-27_15h07.54.259,forced_choiceRT_color,2021.2.3,Win32,29.97601918,f,1.976,18,0,18,0,1,,,,,,,,,,,,,,,,
,,,,,,,,,,,,6102d892986a0f83785e2470,2021-09-27_15h07.54.259,forced_choiceRT_color,2021.2.3,Win32,29.97601918,f,1.899,19,0,19,0,1,,,,,,,,,,,,,,,,
,0.84,,,,,,,,,k,purple,6102d892986a0f83785e2470,2021-09-27_15h07.54.259,forced_choiceRT_color,2021.2.3,Win32,29.97601918,,,,,,,,1,Slow,long,k,1,8.812,0,0,0,3,1,,,,,
,1.96,,,,,,,,,j,red,6102d892986a0f83785e2470,2021-09-27_15h07.54.259,forced_choiceRT_color,2021.2.3,Win32,29.97601918,,,,,,,,1,Slow,long,k,0,2.389,0,1,1,2,1,,,,,
,0.58,,,,,,,,,j,red,6102d892986a0f83785e2470,2021-09-27_15h07.54.259,forced_choiceRT_color,2021.2.3,Win32,29.97601918,,,,,,,,1,Fast,long,j,1,1.256,0,2,2,2,1,,,,,
,1.65,,,,,,,,,k,purple,6102d892986a0f83785e2470,2021-09-27_15h07.54.259,forced_choiceRT_color,2021.2.3,Win32,29.97601918,,,,,,,,1,Slow,long,k,1,2.346,0,3,3,3,1,,,,,
,1.26,,,,,,,,,k,purple,6102d892986a0f83785e2470,2021-09-27_15h07.54.259,forced_choiceRT_color,2021.2.3,Win32,29.97601918,,,,,,,,1,Ontime,long,k,1,2.041,1,0,4,3,1,,,,,
,1.64,,,,,,,,,f,blue,6102d892986a0f83785e2470,2021-09-27_15h07.54.259,forced_choiceRT_color,2021.2.3,Win32,29.97601918,,,,,,,,1,Slow,long,f,1,2.512,1,1,5,1,1,,,,,
,0.93,,,,,,,,,f,blue,6102d892986a0f83785e2470,2021-09-27_15h07.54.259,forced_choiceRT_color,2021.2.3,Win32,29.97601918,,,,,,,,1,Fast,long,f,1,1.835,1,2,6,1,1,,,,,
,1.64,,,,,,,,,f,blue,6102d892986a0f83785e2470,2021-09-27_15h07.54.259,forced_choiceRT_color,2021.2.3,Win32,29.97601918,,,,,,,,1,Slow,long,f,1,2.387,1,3,7,1,1,,,,,
,1.27,,,,,,,,,f,blue,6102d892986a0f83785e2470,2021-09-27_15h07.54.259,forced_choiceRT_color,2021.2.3,Win32,29.97601918,,,,,,,,1,Slow,long,f,1,2.106,2,0,8,1,1,,,,,
,0.79,,,,,,,,,f,blue,6102d892986a0f83785e2470,2021-09-27_15h07.54.259,forced_choiceRT_color,2021.2.3,Win32,29.97601918,,,,,,,,1,Fast,long,f,1,1.829,2,1,9,1,1,,,,,
,0.66,,,,,,,,,d,orange,6102d892986a0f83785e2470,2021-09-27_15h07.54.259,forced_choiceRT_color,2021.2.3,Win32,29.97601918,,,,,,,,1,Fast,long,d,1,1.823,2,2,10,0,1,,,,,
,0.06,,,,,,,,,k,purple,6102d892986a0f83785e2470,2021-09-27_15h07.54.259,forced_choiceRT_color,2021.2.3,Win32,29.97601918,,,,,,,,1,Ontime,long,k,1,2.008,2,3,11,3,1,,,,,
,0.4,,,,,,,,,j,red,6102d892986a0f83785e2470,2021-09-27_15h07.54.259,forced_choiceRT_color,2021.2.3,Win32,29.97601918,,,,,,,,1,Ontime,long,j,1,2.069,3,0,12,2,1,,,,,
,1.34,,,,,,,,,j,red,6102d892986a0f83785e2470,2021-09-27_15h07.54.259,forced_choiceRT_color,2021.2.3,Win32,29.97601918,,,,,,,,1,Ontime,long,j,1,2.001,3,1,13,2,1,,,,,
,0.37,,,,,,,,,j,red,6102d892986a0f83785e2470,2021-09-27_15h07.54.259,forced_choiceRT_color,2021.2.3,Win32,29.97601918,,,,,,,,1,Ontime,long,j,1,1.919,3,2,14,2,1,,,,,
,1.66,,,,,,,,,j,red,6102d892986a0f83785e2470,2021-09-27_15h07.54.259,forced_choiceRT_color,2021.2.3,Win32,29.97601918,,,,,,,,1,Slow,long,j,1,2.24,3,3,15,2,1,,,,,
,1.81,,,,,,,,,d,orange,6102d892986a0f83785e2470,2021-09-27_15h07.54.259,forced_choiceRT_color,2021.2.3,Win32,29.97601918,,,,,,,,1,Ontime,long,j,0,2.021,4,0,16,0,1,,,,,
,0.39,,,,,,,,,k,purple,6102d892986a0f83785e2470,2021-09-27_15h07.54.259,forced_choiceRT_color,2021.2.3,Win32,29.97601918,,,,,,,,1,Fast,long,k,1,1.811,4,1,17,3,1,,,,,
,1.5,,,,,,,,,d,orange,6102d892986a0f83785e2470,2021-09-27_15h07.54.259,forced_choiceRT_color,2021.2.3,Win32,29.97601918,,,,,,,,1,Slow,long,f,0,2.392,4,2,18,0,1,,,,,
,0.1,,,,,,,,,d,orange,6102d892986a0f83785e2470,2021-09-27_15h07.54.259,forced_choiceRT_color,2021.2.3,Win32,29.97601918,,,,,,,,1,Ontime,long,d,1,1.932,4,3,19,0,1,,,,,
,1.47,,,,,,,,,d,orange,6102d892986a0f83785e2470,2021-09-27_15h07.54.259,forced_choiceRT_color,2021.2.3,Win32,29.97601918,,,,,,,,1,Slow,long,d,1,2.164,5,0,20,0,1,,,,,
,1.86,,,,,,,,,j,red,6102d892986a0f83785e2470,2021-09-27_15h07.54.259,forced_choiceRT_color,2021.2.3,Win32,29.97601918,,,,,,,,1,Ontime,long,d,0,2.047,5,1,21,2,1,,,,,
,0.97,,,,,,,,,f,blue,6102d892986a0f83785e2470,2021-09-27_15h07.54.259,forced_choiceRT_color,2021.2.3,Win32,29.97601918,,,,,,,,1,Ontime,long,d,0,2.087,5,2,22,1,1,,,,,
,0.23,,,,,,,,,j,red,6102d892986a0f83785e2470,2021-09-27_15h07.54.259,forced_choiceRT_color,2021.2.3,Win32,29.97601918,,,,,,,,1,Ontime,long,d,0,2.067,5,3,23,2,1,,,,,
,1.58,,,,,,,,,f,blue,6102d892986a0f83785e2470,2021-09-27_15h07.54.259,forced_choiceRT_color,2021.2.3,Win32,29.97601918,,,,,,,,1,Slow,long,f,1,2.493,6,0,24,1,1,,,,,
,1.02,,,,,,,,,k,purple,6102d892986a0f83785e2470,2021-09-27_15h07.54.259,forced_choiceRT_color,2021.2.3,Win32,29.97601918,,,,,,,,1,Ontime,long,k,1,2.05,6,1,25,3,1,,,,,
,0.57,,,,,,,,,f,blue,6102d892986a0f83785e2470,2021-09-27_15h07.54.259,forced_choiceRT_color,2021.2.3,Win32,29.97601918,,,,,,,,1,Ontime,long,f,1,2.061,6,2,26,1,1,,,,,
,0.67,,,,,,,,,d,orange,6102d892986a0f83785e2470,2021-09-27_15h07.54.259,forced_choiceRT_color,2021.2.3,Win32,29.97601918,,,,,,,,1,Ontime,long,d,1,2.072,6,3,27,0,1,,,,,
,0.21,,,,,,,,,d,orange,6102d892986a0f83785e2470,2021-09-27_15h07.54.259,forced_choiceRT_color,2021.2.3,Win32,29.97601918,,,,,,,,1,Ontime,long,d,1,1.921,7,0,28,0,1,,,,,
,1.9,,,,,,,,,f,blue,6102d892986a0f83785e2470,2021-09-27_15h07.54.259,forced_choiceRT_color,2021.2.3,Win32,29.97601918,,,,,,,,1,Slow,long,d,0,2.51,7,1,29,1,1,,,,,
,0.14,,,,,,,,,d,orange,6102d892986a0f83785e2470,2021-09-27_15h07.54.259,forced_choiceRT_color,2021.2.3,Win32,29.97601918,,,,,,,,1,Ontime,long,d,1,2.071,7,2,30,0,1,,,,,
,1.33,,,,,,,,,k,purple,6102d892986a0f83785e2470,2021-09-27_15h07.54.259,forced_choiceRT_color,2021.2.3,Win32,29.97601918,,,,,,,,1,Slow,long,k,1,2.15,7,3,31,3,1,,,,,
,1.16,,,,,,,,,k,purple,6102d892986a0f83785e2470,2021-09-27_15h07.54.259,forced_choiceRT_color,2021.2.3,Win32,29.97601918,,,,,,,,1,Ontime,long,k,1,2.046,8,0,32,3,1,,,,,
,0.85,,,,,,,,,f,blue,6102d892986a0f83785e2470,2021-09-27_15h07.54.259,forced_choiceRT_color,2021.2.3,Win32,29.97601918,,,,,,,,1,Fast,long,f,1,1.833,8,1,33,1,1,,,,,
,0.31,,,,,,,,,k,purple,6102d892986a0f83785e2470,2021-09-27_15h07.54.259,forced_choiceRT_color,2021.2.3,Win32,29.97601918,,,,,,,,1,Ontime,long,k,1,1.928,8,2,34,3,1,,,,,
,0.06,,,,,,,,,d,orange,6102d892986a0f83785e2470,2021-09-27_15h07.54.259,forced_choiceRT_color,2021.2.3,Win32,29.97601918,,,,,,,,1,Ontime,long,d,1,1.994,8,3,35,0,1,,,,,
,0.55,,,,,,,,,k,purple,6102d892986a0f83785e2470,2021-09-27_15h07.54.259,forced_choiceRT_color,2021.2.3,Win32,29.97601918,,,,,,,,1,Ontime,long,k,1,2.07,9,0,36,3,1,,,,,
,1.85,,,,,,,,,j,red,6102d892986a0f83785e2470,2021-09-27_15h07.54.259,forced_choiceRT_color,2021.2.3,Win32,29.97601918,,,,,,,,1,Slow,long,d,0,2.424,9,1,37,2,1,,,,,
,0.18,,,,,,,,,d,orange,6102d892986a0f83785e2470,2021-09-27_15h07.54.259,forced_choiceRT_color,2021.2.3,Win32,29.97601918,,,,,,,,1,Ontime,long,d,1,2.054,9,2,38,0,1,,,,,
,1.37,,,,,,,,,j,red,6102d892986a0f83785e2470,2021-09-27_15h07.54.259,forced_choiceRT_color,2021.2.3,Win32,29.97601918,,,,,,,,1,Ontime,long,j,1,2.077,9,3,39,2,1,,,,,
,,,,,,,,,,,,6102d892986a0f83785e2470,2021-09-27_15h07.54.259,forced_choiceRT_color,2021.2.3,Win32,29.97601918,,,,,,,,,,,,,,,,,,,0,0,0,0,1
,1.76,,,,,,,,,k,purple,6102d892986a0f83785e2470,2021-09-27_15h07.54.259,forced_choiceRT_color,2021.2.3,Win32,29.97601918,,,,,,,,2,Slow,long,j,0,2.128,0,0,0,3,1,,,,,
,1.15,,,,,,,,,j,red,6102d892986a0f83785e2470,2021-09-27_15h07.54.259,forced_choiceRT_color,2021.2.3,Win32,29.97601918,,,,,,,,2,Ontime,long,j,1,2.081,0,1,1,2,1,,,,,
,0.32,,,,,,,,,f,blue,6102d892986a0f83785e2470,2021-09-27_15h07.54.259,forced_choiceRT_color,2021.2.3,Win32,29.97601918,,,,,,,,2,Ontime,long,f,1,2.009,0,2,2,1,1,,,,,
,0.53,,,,,,,,,k,purple,6102d892986a0f83785e2470,2021-09-27_15h07.54.259,forced_choiceRT_color,2021.2.3,Win32,29.97601918,,,,,,,,2,Fast,long,k,1,1.892,0,3,3,3,1,,,,,
,0.52,,,,,,,,,d,orange,6102d892986a0f83785e2470,2021-09-27_15h07.54.259,forced_choiceRT_color,2021.2.3,Win32,29.97601918,,,,,,,,2,Slow,long,d,1,2.109,1,0,4,0,1,,,,,
,0.99,,,,,,,,,k,purple,6102d892986a0f83785e2470,2021-09-27_15h07.54.259,forced_choiceRT_color,2021.2.3,Win32,29.97601918,,,,,,,,2,Slow,long,k,1,2.147,1,1,5,3,1,,,,,
,1.07,,,,,,,,,d,orange,6102d892986a0f83785e2470,2021-09-27_15h07.54.259,forced_choiceRT_color,2021.2.3,Win32,29.97601918,,,,,,,,2,Ontime,long,d,1,2.087,1,2,6,0,1,,,,,
,1.51,,,,,,,,,d,orange,6102d892986a0f83785e2470,2021-09-27_15h07.54.259,forced_choiceRT_color,2021.2.3,Win32,29.97601918,,,,,,,,2,Fast,long,d,1,1.853,1,3,7,0,1,,,,,
,1.24,,,,,,,,,f,blue,6102d892986a0f83785e2470,2021-09-27_15h07.54.259,forced_choiceRT_color,2021.2.3,Win32,29.97601918,,,,,,,,2,Ontime,long,f,1,2.024,2,0,8,1,1,,,,,
,0.16,,,,,,,,,d,orange,6102d892986a0f83785e2470,2021-09-27_15h07.54.259,forced_choiceRT_color,2021.2.3,Win32,29.97601918,,,,,,,,2,Ontime,long,d,1,2.065,2,1,9,0,1,,,,,
,1.58,,,,,,,,,d,orange,6102d892986a0f83785e2470,2021-09-27_15h07.54.259,forced_choiceRT_color,2021.2.3,Win32,29.97601918,,,,,,,,2,Slow,long,f,0,2.281,2,2,10,0,1,,,,,
,0.12,,,,,,,,,f,blue,6102d892986a0f83785e2470,2021-09-27_15h07.54.259,forced_choiceRT_color,2021.2.3,Win32,29.97601918,,,,,,,,2,Ontime,long,f,1,2.029,2,3,11,1,1,,,,,
,1.32,,,,,,,,,j,red,6102d892986a0f83785e2470,2021-09-27_15h07.54.259,forced_choiceRT_color,2021.2.3,Win32,29.97601918,,,,,,,,2,Slow,long,j,1,2.188,3,0,12,2,1,,,,,
,1.2,,,,,,,,,k,purple,6102d892986a0f83785e2470,2021-09-27_15h07.54.259,forced_choiceRT_color,2021.2.3,Win32,29.97601918,,,,,,,,2,Ontime,long,k,1,2.068,3,1,13,3,1,,,,,
,1.05,,,,,,,,,k,purple,6102d892986a0f83785e2470,2021-09-27_15h07.54.259,forced_choiceRT_color,2021.2.3,Win32,29.97601918,,,,,,,,2,Ontime,long,k,1,2.019,3,2,14,3,1,,,,,
,0.87,,,,,,,,,j,red,6102d892986a0f83785e2470,2021-09-27_15h07.54.259,forced_choiceRT_color,2021.2.3,Win32,29.97601918,,,,,,,,2,Fast,long,j,1,1.735,3,3,15,2,1,,,,,
,0.08,,,,,,,,,f,blue,6102d892986a0f83785e2470,2021-09-27_15h07.54.259,forced_choiceRT_color,2021.2.3,Win32,29.97601918,,,,,,,,2,Fast,long,f,1,1.84,4,0,16,1,1,,,,,
,0.18,,,,,,,,,j,red,6102d892986a0f83785e2470,2021-09-27_15h07.54.259,forced_choiceRT_color,2021.2.3,Win32,29.97601918,,,,,,,,2,Slow,long,j,1,2.167,4,1,17,2,1,,,,,
,0.87,,,,,,,,,j,red,6102d892986a0f83785e2470,2021-09-27_15h07.54.259,forced_choiceRT_color,2021.2.3,Win32,29.97601918,,,,,,,,2,Ontime,long,j,1,2,4,2,18,2,1,,,,,
,1.09,,,,,,,,,j,red,6102d892986a0f83785e2470,2021-09-27_15h07.54.259,forced_choiceRT_color,2021.2.3,Win32,29.97601918,,,,,,,,2,Ontime,long,j,1,2.094,4,3,19,2,1,,,,,
,0.6,,,,,,,,,k,purple,6102d892986a0f83785e2470,2021-09-27_15h07.54.259,forced_choiceRT_color,2021.2.3,Win32,29.97601918,,,,,,,,2,Ontime,long,k,1,2.037,5,0,20,3,1,,,,,
,0.22,,,,,,,,,k,purple,6102d892986a0f83785e2470,2021-09-27_15h07.54.259,forced_choiceRT_color,2021.2.3,Win32,29.97601918,,,,,,,,2,Fast,long,k,1,1.793,5,1,21,3,1,,,,,
,1.35,,,,,,,,,d,orange,6102d892986a0f83785e2470,2021-09-27_15h07.54.259,forced_choiceRT_color,2021.2.3,Win32,29.97601918,,,,,,,,2,Slow,long,d,1,2.106,5,2,22,0,1,,,,,
,1.82,,,,,,,,,k,purple,6102d892986a0f83785e2470,2021-09-27_15h07.54.259,forced_choiceRT_color,2021.2.3,Win32,29.97601918,,,,,,,,2,Slow,long,j,0,2.15,5,3,23,3,1,,,,,
,1.64,,,,,,,,,k,purple,6102d892986a0f83785e2470,2021-09-27_15h07.54.259,forced_choiceRT_color,2021.2.3,Win32,29.97601918,,,,,,,,2,Ontime,long,k,1,2.078,6,0,24,3,1,,,,,
,0.65,,,,,,,,,f,blue,6102d892986a0f83785e2470,2021-09-27_15h07.54.259,forced_choiceRT_color,2021.2.3,Win32,29.97601918,,,,,,,,2,Ontime,long,f,1,2.076,6,1,25,1,1,,,,,
,1.24,,,,,,,,,d,orange,6102d892986a0f83785e2470,2021-09-27_15h07.54.259,forced_choiceRT_color,2021.2.3,Win32,29.97601918,,,,,,,,2,Slow,long,d,1,2.115,6,2,26,0,1,,,,,
,1.71,,,,,,,,,d,orange,6102d892986a0f83785e2470,2021-09-27_15h07.54.259,forced_choiceRT_color,2021.2.3,Win32,29.97601918,,,,,,,,2,Ontime,long,d,1,2.001,6,3,27,0,1,,,,,
,1.92,,,,,,,,,f,blue,6102d892986a0f83785e2470,2021-09-27_15h07.54.259,forced_choiceRT_color,2021.2.3,Win32,29.97601918,,,,,,,,2,Ontime,long,k,0,2.085,7,0,28,1,1,,,,,
,1.38,,,,,,,,,j,red,6102d892986a0f83785e2470,2021-09-27_15h07.54.259,forced_choiceRT_color,2021.2.3,Win32,29.97601918,,,,,,,,2,Ontime,long,j,1,1.971,7,1,29,2,1,,,,,
,0.65,,,,,,,,,f,blue,6102d892986a0f83785e2470,2021-09-27_15h07.54.259,forced_choiceRT_color,2021.2.3,Win32,29.97601918,,,,,,,,2,Ontime,long,f,1,2.052,7,2,30,1,1,,,,,
,0.74,,,,,,,,,j,red,6102d892986a0f83785e2470,2021-09-27_15h07.54.259,forced_choiceRT_color,2021.2.3,Win32,29.97601918,,,,,,,,2,Ontime,long,j,1,2.022,7,3,31,2,1,,,,,
,1.02,,,,,,,,,f,blue,6102d892986a0f83785e2470,2021-09-27_15h07.54.259,forced_choiceRT_color,2021.2.3,Win32,29.97601918,,,,,,,,2,Ontime,long,f,1,2.007,8,0,32,1,1,,,,,
,0.65,,,,,,,,,f,blue,6102d892986a0f83785e2470,2021-09-27_15h07.54.259,forced_choiceRT_color,2021.2.3,Win32,29.97601918,,,,,,,,2,Fast,long,f,1,1.855,8,1,33,1,1,,,,,
,0.56,,,,,,,,,j,red,6102d892986a0f83785e2470,2021-09-27_15h07.54.259,forced_choiceRT_color,2021.2.3,Win32,29.97601918,,,,,,,,2,Ontime,long,j,1,2.003,8,2,34,2,1,,,,,
,0.2,,,,,,,,,j,red,6102d892986a0f83785e2470,2021-09-27_15h07.54.259,forced_choiceRT_color,2021.2.3,Win32,29.97601918,,,,,,,,2,Ontime,long,j,1,2.014,8,3,35,2,1,,,,,
,0.34,,,,,,,,,k,purple,6102d892986a0f83785e2470,2021-09-27_15h07.54.259,forced_choiceRT_color,2021.2.3,Win32,29.97601918,,,,,,,,2,Ontime,long,k,1,1.971,9,0,36,3,1,,,,,
,0.75,,,,,,,,,d,orange,6102d892986a0f83785e2470,2021-09-27_15h07.54.259,forced_choiceRT_color,2021.2.3,Win32,29.97601918,,,,,,,,2,Ontime,long,d,1,2.09,9,1,37,0,1,,,,,
,1.6,,,,,,,,,d,orange,6102d892986a0f83785e2470,2021-09-27_15h07.54.259,forced_choiceRT_color,2021.2.3,Win32,29.97601918,,,,,,,,2,Fast,long,f,0,1.798,9,2,38,0,1,,,,,
,1.04,,,,,,,,,f,blue,6102d892986a0f83785e2470,2021-09-27_15h07.54.259,forced_choiceRT_color,2021.2.3,Win32,29.97601918,,,,,,,,2,Ontime,long,f,1,2.081,9,3,39,1,1,,,,,
,,,,,,,,,,,,6102d892986a0f83785e2470,2021-09-27_15h07.54.259,forced_choiceRT_color,2021.2.3,Win32,29.97601918,,,,,,,,,,,,,,,,,,,1,0,1,0,1
,0.79,,,,,,,,,f,blue,6102d892986a0f83785e2470,2021-09-27_15h07.54.259,forced_choiceRT_color,2021.2.3,Win32,29.97601918,,,,,,,,3,Ontime,long,f,1,1.91,0,0,0,1,1,,,,,
,0.83,,,,,,,,,j,red,6102d892986a0f83785e2470,2021-09-27_15h07.54.259,forced_choiceRT_color,2021.2.3,Win32,29.97601918,,,,,,,,3,Ontime,long,j,1,2.088,0,1,1,2,1,,,,,
,0.26,,,,,,,,,k,purple,6102d892986a0f83785e2470,2021-09-27_15h07.54.259,forced_choiceRT_color,2021.2.3,Win32,29.97601918,,,,,,,,3,Ontime,long,k,1,1.962,0,2,2,3,1,,,,,
,1.81,,,,,,,,,f,blue,6102d892986a0f83785e2470,2021-09-27_15h07.54.259,forced_choiceRT_color,2021.2.3,Win32,29.97601918,,,,,,,,3,Slow,long,j,0,2.126,0,3,3,1,1,,,,,
,0.76,,,,,,,,,k,purple,6102d892986a0f83785e2470,2021-09-27_15h07.54.259,forced_choiceRT_color,2021.2.3,Win32,29.97601918,,,,,,,,3,Ontime,long,k,1,2.008,1,0,4,3,1,,,,,
,0.68,,,,,,,,,d,orange,6102d892986a0f83785e2470,2021-09-27_15h07.54.259,forced_choiceRT_color,2021.2.3,Win32,29.97601918,,,,,,,,3,Fast,long,d,1,1.893,1,1,5,0,1,,,,,
,1.91,,,,,,,,,k,purple,6102d892986a0f83785e2470,2021-09-27_15h07.54.259,forced_choiceRT_color,2021.2.3,Win32,29.97601918,,,,,,,,3,Slow,long,f,0,2.127,1,2,6,3,1,,,,,
,1.27,,,,,,,,,d,orange,6102d892986a0f83785e2470,2021-09-27_15h07.54.259,forced_choiceRT_color,2021.2.3,Win32,29.97601918,,,,,,,,3,Slow,long,j,0,2.244,1,3,7,0,1,,,,,
,0.74,,,,,,,,,j,red,6102d892986a0f83785e2470,2021-09-27_15h07.54.259,forced_choiceRT_color,2021.2.3,Win32,29.97601918,,,,,,,,3,Ontime,long,j,1,2.051,2,0,8,2,1,,,,,
,1.4,,,,,,,,,f,blue,6102d892986a0f83785e2470,2021-09-27_15h07.54.259,forced_choiceRT_color,2021.2.3,Win32,29.97601918,,,,,,,,3,Slow,long,f,1,2.217,2,1,9,1,1,,,,,
,0.78,,,,,,,,,d,orange,6102d892986a0f83785e2470,2021-09-27_15h07.54.259,forced_choiceRT_color,2021.2.3,Win32,29.97601918,,,,,,,,3,Ontime,long,d,1,2.032,2,2,10,0,1,,,,,
,1.63,,,,,,,,,j,red,6102d892986a0f83785e2470,2021-09-27_15h07.54.259,forced_choiceRT_color,2021.2.3,Win32,29.97601918,,,,,,,,3,Ontime,long,f,0,1.967,2,3,11,2,1,,,,,
,0.89,,,,,,,,,d,orange,6102d892986a0f83785e2470,2021-09-27_15h07.54.259,forced_choiceRT_color,2021.2.3,Win32,29.97601918,,,,,,,,3,Ontime,long,d,1,2.025,3,0,12,0,1,,,,,
,1.89,,,,,,,,,k,purple,6102d892986a0f83785e2470,2021-09-27_15h07.54.259,forced_choiceRT_color,2021.2.3,Win32,29.97601918,,,,,,,,3,Ontime,long,f,0,1.999,3,1,13,3,1,,,,,
,1.39,,,,,,,,,j,red,6102d892986a0f83785e2470,2021-09-27_15h07.54.259,forced_choiceRT_color,2021.2.3,Win32,29.97601918,,,,,,,,3,Ontime,long,f,0,2.054,3,2,14,2,1,,,,,
,0.98,,,,,,,,,k,purple,6102d892986a0f83785e2470,2021-09-27_15h07.54.259,forced_choiceRT_color,2021.2.3,Win32,29.97601918,,,,,,,,3,Ontime,long,k,1,2.079,3,3,15,3,1,,,,,
,1.63,,,,,,,,,k,purple,6102d892986a0f83785e2470,2021-09-27_15h07.54.259,forced_choiceRT_color,2021.2.3,Win32,29.97601918,,,,,,,,3,Ontime,long,f,0,2.065,4,0,16,3,1,,,,,
,0.91,,,,,,,,,d,orange,6102d892986a0f83785e2470,2021-09-27_15h07.54.259,forced_choiceRT_color,2021.2.3,Win32,29.97601918,,,,,,,,3,Slow,long,d,1,2.145,4,1,17,0,1,,,,,
,1.16,,,,,,,,,j,red,6102d892986a0f83785e2470,2021-09-27_15h07.54.259,forced_choiceRT_color,2021.2.3,Win32,29.97601918,,,,,,,,3,Ontime,long,j,1,1.949,4,2,18,2,1,,,,,
,0.36,,,,,,,,,j,red,6102d892986a0f83785e2470,2021-09-27_15h07.54.259,forced_choiceRT_color,2021.2.3,Win32,29.97601918,,,,,,,,3,Ontime,long,j,1,2.026,4,3,19,2,1,,,,,
,1.65,,,,,,,,,k,purple,6102d892986a0f83785e2470,2021-09-27_15h07.54.259,forced_choiceRT_color,2021.2.3,Win32,29.97601918,,,,,,,,3,Slow,long,f,0,2.298,5,0,20,3,1,,,,,
,1.16,,,,,,,,,d,orange,6102d892986a0f83785e2470,2021-09-27_15h07.54.259,forced_choiceRT_color,2021.2.3,Win32,29.97601918,,,,,,,,3,Slow,long,d,1,2.103,5,1,21,0,1,,,,,
,1.78,,,,,,,,,k,purple,6102d892986a0f83785e2470,2021-09-27_15h07.54.259,forced_choiceRT_color,2021.2.3,Win32,29.97601918,,,,,,,,3,Ontime,long,d,0,1.971,5,2,22,3,1,,,,,
,0.32,,,,,,,,,d,orange,6102d892986a0f83785e2470,2021-09-27_15h07.54.259,forced_choiceRT_color,2021.2.3,Win32,29.97601918,,,,,,,,3,Ontime,long,d,1,2.067,5,3,23,0,1,,,,,
,1.13,,,,,,,,,k,purple,6102d892986a0f83785e2470,2021-09-27_15h07.54.259,forced_choiceRT_color,2021.2.3,Win32,29.97601918,,,,,,,,3,Ontime,long,k,1,2.064,6,0,24,3,1,,,,,
,1.24,,,,,,,,,f,blue,6102d892986a0f83785e2470,2021-09-27_15h07.54.259,forced_choiceRT_color,2021.2.3,Win32,29.97601918,,,,,,,,3,Ontime,long,f,1,2.038,6,1,25,1,1,,,,,
,1.79,,,,,,,,,d,orange,6102d892986a0f83785e2470,2021-09-27_15h07.54.259,forced_choiceRT_color,2021.2.3,Win32,29.97601918,,,,,,,,3,Ontime,long,f,0,2.091,6,2,26,0,1,,,,,
,0.27,,,,,,,,,k,purple,6102d892986a0f83785e2470,2021-09-27_15h07.54.259,forced_choiceRT_color,2021.2.3,Win32,29.97601918,,,,,,,,3,Ontime,long,k,1,1.965,6,3,27,3,1,,,,,
,1.39,,,,,,,,,f,blue,6102d892986a0f83785e2470,2021-09-27_15h07.54.259,forced_choiceRT_color,2021.2.3,Win32,29.97601918,,,,,,,,3,Ontime,long,f,1,2.06,7,0,28,1,1,,,,,
,0.85,,,,,,,,,j,red,6102d892986a0f83785e2470,2021-09-27_15h07.54.259,forced_choiceRT_color,2021.2.3,Win32,29.97601918,,,,,,,,3,Ontime,long,j,1,2.066,7,1,29,2,1,,,,,
,0.59,,,,,,,,,j,red,6102d892986a0f83785e2470,2021-09-27_15h07.54.259,forced_choiceRT_color,2021.2.3,Win32,29.97601918,,,,,,,,3,Ontime,long,j,1,2.057,7,2,30,2,1,,,,,
,1.02,,,,,,,,,j,red,6102d892986a0f83785e2470,2021-09-27_15h07.54.259,forced_choiceRT_color,2021.2.3,Win32,29.97601918,,,,,,,,3,Ontime,long,j,1,2.076,7,3,31,2,1,,,,,
,0.38,,,,,,,,,f,blue,6102d892986a0f83785e2470,2021-09-27_15h07.54.259,forced_choiceRT_color,2021.2.3,Win32,29.97601918,,,,,,,,3,Fast,long,f,1,1.858,8,0,32,1,1,,,,,
,1.57,,,,,,,,,f,blue,6102d892986a0f83785e2470,2021-09-27_15h07.54.259,forced_choiceRT_color,2021.2.3,Win32,29.97601918,,,,,,,,3,Slow,long,f,1,2.192,8,1,33,1,1,,,,,
,0.76,,,,,,,,,f,blue,6102d892986a0f83785e2470,2021-09-27_15h07.54.259,forced_choiceRT_color,2021.2.3,Win32,29.97601918,,,,,,,,3,Ontime,long,f,1,2.07,8,2,34,1,1,,,,,
,1.45,,,,,,,,,j,red,6102d892986a0f83785e2470,2021-09-27_15h07.54.259,forced_choiceRT_color,2021.2.3,Win32,29.97601918,,,,,,,,3,Slow,long,j,1,2.167,8,3,35,2,1,,,,,
,0.5,,,,,,,,,f,blue,6102d892986a0f83785e2470,2021-09-27_15h07.54.259,forced_choiceRT_color,2021.2.3,Win32,29.97601918,,,,,,,,3,Fast,long,f,1,1.872,9,0,36,1,1,,,,,
,1.43,,,,,,,,,d,orange,6102d892986a0f83785e2470,2021-09-27_15h07.54.259,forced_choiceRT_color,2021.2.3,Win32,29.97601918,,,,,,,,3,Slow,long,d,1,2.121,9,1,37,0,1,,,,,
,1.38,,,,,,,,,d,orange,6102d892986a0f83785e2470,2021-09-27_15h07.54.259,forced_choiceRT_color,2021.2.3,Win32,29.97601918,,,,,,,,3,Slow,long,d,1,2.134,9,2,38,0,1,,,,,
,1.54,,,,,,,,,f,blue,6102d892986a0f83785e2470,2021-09-27_15h07.54.259,forced_choiceRT_color,2021.2.3,Win32,29.97601918,,,,,,,,3,Slow,long,j,0,2.189,9,3,39,1,1,,,,,
,,,,,,,,,,,,6102d892986a0f83785e2470,2021-09-27_15h07.54.259,forced_choiceRT_color,2021.2.3,Win32,29.97601918,,,,,,,,,,,,,,,,,,,2,0,2,0,1
,0.26,,,,,,,,,j,red,6102d892986a0f83785e2470,2021-09-27_15h07.54.259,forced_choiceRT_color,2021.2.3,Win32,29.97601918,,,,,,,,4,Fast,long,f,0,1.39,0,0,0,2,1,,,,,
,1.08,,,,,,,,,d,orange,6102d892986a0f83785e2470,2021-09-27_15h07.54.259,forced_choiceRT_color,2021.2.3,Win32,29.97601918,,,,,,,,4,Ontime,long,d,1,1.988,0,1,1,0,1,,,,,
,1.09,,,,,,,,,f,blue,6102d892986a0f83785e2470,2021-09-27_15h07.54.259,forced_choiceRT_color,2021.2.3,Win32,29.97601918,,,,,,,,4,Ontime,long,f,1,1.918,0,2,2,1,1,,,,,
,1.65,,,,,,,,,f,blue,6102d892986a0f83785e2470,2021-09-27_15h07.54.259,forced_choiceRT_color,2021.2.3,Win32,29.97601918,,,,,,,,4,Slow,long,f,1,2.266,0,3,3,1,1,,,,,
,1.97,,,,,,,,,d,orange,6102d892986a0f83785e2470,2021-09-27_15h07.54.259,forced_choiceRT_color,2021.2.3,Win32,29.97601918,,,,,,,,4,Slow,long,d,1,2.714,1,0,4,0,1,,,,,
,1.6,,,,,,,,,f,blue,6102d892986a0f83785e2470,2021-09-27_15h07.54.259,forced_choiceRT_color,2021.2.3,Win32,29.97601918,,,,,,,,4,Slow,long,f,1,2.161,1,1,5,1,1,,,,,
,1.86,,,,,,,,,j,red,6102d892986a0f83785e2470,2021-09-27_15h07.54.259,forced_choiceRT_color,2021.2.3,Win32,29.97601918,,,,,,,,4,Slow,long,f,0,2.122,1,2,6,2,1,,,,,
,0.9,,,,,,,,,f,blue,6102d892986a0f83785e2470,2021-09-27_15h07.54.259,forced_choiceRT_color,2021.2.3,Win32,29.97601918,,,,,,,,4,Ontime,long,f,1,2.023,1,3,7,1,1,,,,,
,1.7,,,,,,,,,d,orange,6102d892986a0f83785e2470,2021-09-27_15h07.54.259,forced_choiceRT_color,2021.2.3,Win32,29.97601918,,,,,,,,4,Ontime,long,f,0,2.072,2,0,8,0,1,,,,,
,0.32,,,,,,,,,d,orange,6102d892986a0f83785e2470,2021-09-27_15h07.54.259,forced_choiceRT_color,2021.2.3,Win32,29.97601918,,,,,,,,4,Slow,long,d,1,2.151,2,1,9,0,1,,,,,
,0.97,,,,,,,,,f,blue,6102d892986a0f83785e2470,2021-09-27_15h07.54.259,forced_choiceRT_color,2021.2.3,Win32,29.97601918,,,,,,,,4,Slow,long,f,1,2.137,2,2,10,1,1,,,,,
,1.35,,,,,,,,,f,blue,6102d892986a0f83785e2470,2021-09-27_15h07.54.259,forced_choiceRT_color,2021.2.3,Win32,29.97601918,,,,,,,,4,Ontime,long,f,1,2.051,2,3,11,1,1,,,,,
,0.66,,,,,,,,,f,blue,6102d892986a0f83785e2470,2021-09-27_15h07.54.259,forced_choiceRT_color,2021.2.3,Win32,29.97601918,,,,,,,,4,Slow,long,f,1,2.102,3,0,12,1,1,,,,,
,1.87,,,,,,,,,j,red,6102d892986a0f83785e2470,2021-09-27_15h07.54.259,forced_choiceRT_color,2021.2.3,Win32,29.97601918,,,,,,,,4,Slow,long,j,1,2.105,3,1,13,2,1,,,,,
,0.27,,,,,,,,,j,red,6102d892986a0f83785e2470,2021-09-27_15h07.54.259,forced_choiceRT_color,2021.2.3,Win32,29.97601918,,,,,,,,4,Fast,long,j,1,1.712,3,2,14,2,1,,,,,
,1.43,,,,,,,,,k,purple,6102d892986a0f83785e2470,2021-09-27_15h07.54.259,forced_choiceRT_color,2021.2.3,Win32,29.97601918,,,,,,,,4,Ontime,long,k,1,2.054,3,3,15,3,1,,,,,
,1.55,,,,,,,,,f,blue,6102d892986a0f83785e2470,2021-09-27_15h07.54.259,forced_choiceRT_color,2021.2.3,Win32,29.97601918,,,,,,,,4,Slow,long,j,0,2.123,4,0,16,1,1,,,,,
,1.58,,,,,,,,,k,purple,6102d892986a0f83785e2470,2021-09-27_15h07.54.259,forced_choiceRT_color,2021.2.3,Win32,29.97601918,,,,,,,,4,Slow,long,k,1,2.231,4,1,17,3,1,,,,,
,1.18,,,,,,,,,k,purple,6102d892986a0f83785e2470,2021-09-27_15h07.54.259,forced_choiceRT_color,2021.2.3,Win32,29.97601918,,,,,,,,4,Slow,long,k,1,2.11,4,2,18,3,1,,,,,
,0.42,,,,,,,,,d,orange,6102d892986a0f83785e2470,2021-09-27_15h07.54.259,forced_choiceRT_color,2021.2.3,Win32,29.97601918,,,,,,,,4,Ontime,long,d,1,2.067,4,3,19,0,1,,,,,
,1.42,,,,,,,,,j,red,6102d892986a0f83785e2470,2021-09-27_15h07.54.259,forced_choiceRT_color,2021.2.3,Win32,29.97601918,,,,,,,,4,Ontime,long,k,0,2.07,5,0,20,2,1,,,,,
,0.93,,,,,,,,,j,red,6102d892986a0f83785e2470,2021-09-27_15h07.54.259,forced_choiceRT_color,2021.2.3,Win32,29.97601918,,,,,,,,4,Slow,long,j,1,2.113,5,1,21,2,1,,,,,
,1.01,,,,,,,,,j,red,6102d892986a0f83785e2470,2021-09-27_15h07.54.259,forced_choiceRT_color,2021.2.3,Win32,29.97601918,,,,,,,,4,Ontime,long,j,1,2.001,5,2,22,2,1,,,,,
,0.3,,,,,,,,,k,purple,6102d892986a0f83785e2470,2021-09-27_15h07.54.259,forced_choiceRT_color,2021.2.3,Win32,29.97601918,,,,,,,,4,Slow,long,k,1,2.112,5,3,23,3,1,,,,,
,0.56,,,,,,,,,j,red,6102d892986a0f83785e2470,2021-09-27_15h07.54.259,forced_choiceRT_color,2021.2.3,Win32,29.97601918,,,,,,,,4,Ontime,long,j,1,1.987,6,0,24,2,1,,,,,
,0.59,,,,,,,,,k,purple,6102d892986a0f83785e2470,2021-09-27_15h07.54.259,forced_choiceRT_color,2021.2.3,Win32,29.97601918,,,,,,,,4,Ontime,long,k,1,1.972,6,1,25,3,1,,,,,
,1.99,,,,,,,,,k,purple,6102d892986a0f83785e2470,2021-09-27_15h07.54.259,forced_choiceRT_color,2021.2.3,Win32,29.97601918,,,,,,,,4,Ontime,long,k,1,2.038,6,2,26,3,1,,,,,
,1.8,,,,,,,,,f,blue,6102d892986a0f83785e2470,2021-09-27_15h07.54.259,forced_choiceRT_color,2021.2.3,Win32,29.97601918,,,,,,,,4,Ontime,long,k,0,2.022,6,3,27,1,1,,,,,
,0.86,,,,,,,,,d,orange,6102d892986a0f83785e2470,2021-09-27_15h07.54.259,forced_choiceRT_color,2021.2.3,Win32,29.97601918,,,,,,,,4,Ontime,long,d,1,1.937,7,0,28,0,1,,,,,
,0.98,,,,,,,,,k,purple,6102d892986a0f83785e2470,2021-09-27_15h07.54.259,forced_choiceRT_color,2021.2.3,Win32,29.97601918,,,,,,,,4,Fast,long,k,1,1.888,7,1,29,3,1,,,,,
,1.9,,,,,,,,,f,blue,6102d892986a0f83785e2470,2021-09-27_15h07.54.259,forced_choiceRT_color,2021.2.3,Win32,29.97601918,,,,,,,,4,Slow,long,k,0,2.148,7,2,30,1,1,,,,,
,1.49,,,,,,,,,j,red,6102d892986a0f83785e2470,2021-09-27_15h07.54.259,forced_choiceRT_color,2021.2.3,Win32,29.97601918,,,,,,,,4,Slow,long,j,1,2.207,7,3,31,2,1,,,,,
,0.4,,,,,,,,,j,red,6102d892986a0f83785e2470,2021-09-27_15h07.54.259,forced_choiceRT_color,2021.2.3,Win32,29.97601918,,,,,,,,4,Ontime,long,j,1,2.044,8,0,32,2,1,,,,,
,1.27,,,,,,,,,d,orange,6102d892986a0f83785e2470,2021-09-27_15h07.54.259,forced_choiceRT_color,2021.2.3,Win32,29.97601918,,,,,,,,4,Fast,long,j,0,1.832,8,1,33,0,1,,,,,
,0.61,,,,,,,,,d,orange,6102d892986a0f83785e2470,2021-09-27_15h07.54.259,forced_choiceRT_color,2021.2.3,Win32,29.97601918,,,,,,,,4,Ontime,long,d,1,2.092,8,2,34,0,1,,,,,
,1.45,,,,,,,,,k,purple,6102d892986a0f83785e2470,2021-09-27_15h07.54.259,forced_choiceRT_color,2021.2.3,Win32,29.97601918,,,,,,,,4,Slow,long,k,1,2.163,8,3,35,3,1,,,,,
,1.51,,,,,,,,,k,purple,6102d892986a0f83785e2470,2021-09-27_15h07.54.259,forced_choiceRT_color,2021.2.3,Win32,29.97601918,,,,,,,,4,Ontime,long,k,1,2.02,9,0,36,3,1,,,,,
,0.52,,,,,,,,,k,purple,6102d892986a0f83785e2470,2021-09-27_15h07.54.259,forced_choiceRT_color,2021.2.3,Win32,29.97601918,,,,,,,,4,Ontime,long,k,1,1.958,9,1,37,3,1,,,,,
,1.2,,,,,,,,,d,orange,6102d892986a0f83785e2470,2021-09-27_15h07.54.259,forced_choiceRT_color,2021.2.3,Win32,29.97601918,,,,,,,,4,Ontime,long,d,1,2.032,9,2,38,0,1,,,,,
,0.38,,,,,,,,,d,orange,6102d892986a0f83785e2470,2021-09-27_15h07.54.259,forced_choiceRT_color,2021.2.3,Win32,29.97601918,,,,,,,,4,Ontime,long,d,1,2.005,9,3,39,0,1,,,,,
,,,,,,,,,,,,6102d892986a0f83785e2470,2021-09-27_15h07.54.259,forced_choiceRT_color,2021.2.3,Win32,29.97601918,,,,,,,,,,,,,,,,,,,3,0,3,0,1
,0.04,,,,,,,,,f,blue,6102d892986a0f83785e2470,2021-09-27_15h07.54.259,forced_choiceRT_color,2021.2.3,Win32,29.97601918,,,,,,,,5,Fast,long,f,1,1.735,0,0,0,1,1,,,,,
,0.08,,,,,,,,,j,red,6102d892986a0f83785e2470,2021-09-27_15h07.54.259,forced_choiceRT_color,2021.2.3,Win32,29.97601918,,,,,,,,5,Fast,long,j,1,1.841,0,1,1,2,1,,,,,
,0.19,,,,,,,,,k,purple,6102d892986a0f83785e2470,2021-09-27_15h07.54.259,forced_choiceRT_color,2021.2.3,Win32,29.97601918,,,,,,,,5,Ontime,long,k,1,2.039,0,2,2,3,1,,,,,
,0.42,,,,,,,,,f,blue,6102d892986a0f83785e2470,2021-09-27_15h07.54.259,forced_choiceRT_color,2021.2.3,Win32,29.97601918,,,,,,,,5,Ontime,long,f,1,2.095,0,3,3,1,1,,,,,
,1.59,,,,,,,,,f,blue,6102d892986a0f83785e2470,2021-09-27_15h07.54.259,forced_choiceRT_color,2021.2.3,Win32,29.97601918,,,,,,,,5,Slow,long,f,1,2.175,1,0,4,1,1,,,,,
,1.96,,,,,,,,,k,purple,6102d892986a0f83785e2470,2021-09-27_15h07.54.259,forced_choiceRT_color,2021.2.3,Win32,29.97601918,,,,,,,,5,Ontime,long,f,0,2.005,1,1,5,3,1,,,,,
,1.15,,,,,,,,,k,purple,6102d892986a0f83785e2470,2021-09-27_15h07.54.259,forced_choiceRT_color,2021.2.3,Win32,29.97601918,,,,,,,,5,Ontime,long,k,1,2.068,1,2,6,3,1,,,,,
,0.57,,,,,,,,,f,blue,6102d892986a0f83785e2470,2021-09-27_15h07.54.259,forced_choiceRT_color,2021.2.3,Win32,29.97601918,,,,,,,,5,Ontime,long,f,1,2.032,1,3,7,1,1,,,,,
,0.57,,,,,,,,,d,orange,6102d892986a0f83785e2470,2021-09-27_15h07.54.259,forced_choiceRT_color,2021.2.3,Win32,29.97601918,,,,,,,,5,Ontime,long,d,1,2.007,2,0,8,0,1,,,,,
,0.65,,,,,,,,,j,red,6102d892986a0f83785e2470,2021-09-27_15h07.54.259,forced_choiceRT_color,2021.2.3,Win32,29.97601918,,,,,,,,5,Ontime,long,j,1,2.082,2,1,9,2,1,,,,,
,1.83,,,,,,,,,k,purple,6102d892986a0f83785e2470,2021-09-27_15h07.54.259,forced_choiceRT_color,2021.2.3,Win32,29.97601918,,,,,,,,5,Ontime,long,j,0,1.949,2,2,10,3,1,,,,,
,1.27,,,,,,,,,d,orange,6102d892986a0f83785e2470,2021-09-27_15h07.54.259,forced_choiceRT_color,2021.2.3,Win32,29.97601918,,,,,,,,5,Ontime,long,d,1,2.059,2,3,11,0,1,,,,,
,1.24,,,,,,,,,j,red,6102d892986a0f83785e2470,2021-09-27_15h07.54.259,forced_choiceRT_color,2021.2.3,Win32,29.97601918,,,,,,,,5,Ontime,long,j,1,1.925,3,0,12,2,1,,,,,
,1.69,,,,,,,,,j,red,6102d892986a0f83785e2470,2021-09-27_15h07.54.259,forced_choiceRT_color,2021.2.3,Win32,29.97601918,,,,,,,,5,Ontime,long,j,1,1.942,3,1,13,2,1,,,,,
,1.18,,,,,,,,,j,red,6102d892986a0f83785e2470,2021-09-27_15h07.54.259,forced_choiceRT_color,2021.2.3,Win32,29.97601918,,,,,,,,5,Ontime,long,j,1,2.008,3,2,14,2,1,,,,,
,1.45,,,,,,,,,d,orange,6102d892986a0f83785e2470,2021-09-27_15h07.54.259,forced_choiceRT_color,2021.2.3,Win32,29.97601918,,,,,,,,5,Ontime,long,d,1,2.079,3,3,15,0,1,,,,,
,0.24,,,,,,,,,k,purple,6102d892986a0f83785e2470,2021-09-27_15h07.54.259,forced_choiceRT_color,2021.2.3,Win32,29.97601918,,,,,,,,5,Slow,long,k,1,2.116,4,0,16,3,1,,,,,
,1.85,,,,,,,,,k,purple,6102d892986a0f83785e2470,2021-09-27_15h07.54.259,forced_choiceRT_color,2021.2.3,Win32,29.97601918,,,,,,,,5,Ontime,long,j,0,2.096,4,1,17,3,1,,,,,
,1.84,,,,,,,,,d,orange,6102d892986a0f83785e2470,2021-09-27_15h07.54.259,forced_choiceRT_color,2021.2.3,Win32,29.97601918,,,,,,,,5,Ontime,long,k,0,2.069,4,2,18,0,1,,,,,
,0.52,,,,,,,,,k,purple,6102d892986a0f83785e2470,2021-09-27_15h07.54.259,forced_choiceRT_color,2021.2.3,Win32,29.97601918,,,,,,,,5,Fast,long,k,1,1.82,4,3,19,3,1,,,,,
,0.82,,,,,,,,,f,blue,6102d892986a0f83785e2470,2021-09-27_15h07.54.259,forced_choiceRT_color,2021.2.3,Win32,29.97601918,,,,,,,,5,Ontime,long,f,1,1.942,5,0,20,1,1,,,,,
,1.96,,,,,,,,,d,orange,6102d892986a0f83785e2470,2021-09-27_15h07.54.259,forced_choiceRT_color,2021.2.3,Win32,29.97601918,,,,,,,,5,Slow,long,k,0,2.374,5,1,21,0,1,,,,,
,1.08,,,,,,,,,f,blue,6102d892986a0f83785e2470,2021-09-27_15h07.54.259,forced_choiceRT_color,2021.2.3,Win32,29.97601918,,,,,,,,5,Ontime,long,f,1,2.039,5,2,22,1,1,,,,,
,1.04,,,,,,,,,k,purple,6102d892986a0f83785e2470,2021-09-27_15h07.54.259,forced_choiceRT_color,2021.2.3,Win32,29.97601918,,,,,,,,5,Fast,long,k,1,1.897,5,3,23,3,1,,,,,
,1.19,,,,,,,,,d,orange,6102d892986a0f83785e2470,2021-09-27_15h07.54.259,forced_choiceRT_color,2021.2.3,Win32,29.97601918,,,,,,,,5,Ontime,long,d,1,2.002,6,0,24,0,1,,,,,
,0.46,,,,,,,,,d,orange,6102d892986a0f83785e2470,2021-09-27_15h07.54.259,forced_choiceRT_color,2021.2.3,Win32,29.97601918,,,,,,,,5,Ontime,long,d,1,1.949,6,1,25,0,1,,,,,
,0.19,,,,,,,,,j,red,6102d892986a0f83785e2470,2021-09-27_15h07.54.259,forced_choiceRT_color,2021.2.3,Win32,29.97601918,,,,,,,,5,Ontime,long,j,1,2.027,6,2,26,2,1,,,,,
,1.62,,,,,,,,,j,red,6102d892986a0f83785e2470,2021-09-27_15h07.54.259,forced_choiceRT_color,2021.2.3,Win32,29.97601918,,,,,,,,5,Ontime,long,j,1,2.002,6,3,27,2,1,,,,,
,0.78,,,,,,,,,k,purple,6102d892986a0f83785e2470,2021-09-27_15h07.54.259,forced_choiceRT_color,2021.2.3,Win32,29.97601918,,,,,,,,5,Slow,long,k,1,2.138,7,0,28,3,1,,,,,
,1.95,,,,,,,,,f,blue,6102d892986a0f83785e2470,2021-09-27_15h07.54.259,forced_choiceRT_color,2021.2.3,Win32,29.97601918,,,,,,,,5,Slow,long,k,0,2.23,7,1,29,1,1,,,,,
,0.11,,,,,,,,,d,orange,6102d892986a0f83785e2470,2021-09-27_15h07.54.259,forced_choiceRT_color,2021.2.3,Win32,29.97601918,,,,,,,,5,Ontime,long,d,1,1.972,7,2,30,0,1,,,,,
,0.63,,,,,,,,,k,purple,6102d892986a0f83785e2470,2021-09-27_15h07.54.259,forced_choiceRT_color,2021.2.3,Win32,29.97601918,,,,,,,,5,Ontime,long,k,1,1.983,7,3,31,3,1,,,,,
,1,,,,,,,,,f,blue,6102d892986a0f83785e2470,2021-09-27_15h07.54.259,forced_choiceRT_color,2021.2.3,Win32,29.97601918,,,,,,,,5,Ontime,long,f,1,2.032,8,0,32,1,1,,,,,
,0.4,,,,,,,,,j,red,6102d892986a0f83785e2470,2021-09-27_15h07.54.259,forced_choiceRT_color,2021.2.3,Win32,29.97601918,,,,,,,,5,Ontime,long,j,1,1.974,8,1,33,2,1,,,,,
,0.27,,,,,,,,,f,blue,6102d892986a0f83785e2470,2021-09-27_15h07.54.259,forced_choiceRT_color,2021.2.3,Win32,29.97601918,,,,,,,,5,Ontime,long,f,1,2.061,8,2,34,1,1,,,,,
,1.54,,,,,,,,,d,orange,6102d892986a0f83785e2470,2021-09-27_15h07.54.259,forced_choiceRT_color,2021.2.3,Win32,29.97601918,,,,,,,,5,Slow,long,f,0,2.177,8,3,35,0,1,,,,,
,0.64,,,,,,,,,j,red,6102d892986a0f83785e2470,2021-09-27_15h07.54.259,forced_choiceRT_color,2021.2.3,Win32,29.97601918,,,,,,,,5,Ontime,long,j,1,2.021,9,0,36,2,1,,,,,
,0.5,,,,,,,,,f,blue,6102d892986a0f83785e2470,2021-09-27_15h07.54.259,forced_choiceRT_color,2021.2.3,Win32,29.97601918,,,,,,,,5,Ontime,long,f,1,1.981,9,1,37,1,1,,,,,
,0.56,,,,,,,,,d,orange,6102d892986a0f83785e2470,2021-09-27_15h07.54.259,forced_choiceRT_color,2021.2.3,Win32,29.97601918,,,,,,,,5,Fast,long,d,1,1.896,9,2,38,0,1,,,,,
,1.81,,,,,,,,,j,red,6102d892986a0f83785e2470,2021-09-27_15h07.54.259,forced_choiceRT_color,2021.2.3,Win32,29.97601918,,,,,,,,5,Ontime,long,j,1,2.014,9,3,39,2,1,,,,,
,,,,,,,,,,,,6102d892986a0f83785e2470,2021-09-27_15h07.54.259,forced_choiceRT_color,2021.2.3,Win32,29.97601918,,,,,,,,,,,,,,,,,,,4,0,4,0,1
,0.67,,,,,,,,,d,orange,6102d892986a0f83785e2470,2021-09-27_15h07.54.259,forced_choiceRT_color,2021.2.3,Win32,29.97601918,,,,,,,,6,Ontime,long,d,1,1.95,0,0,0,0,1,,,,,
,1.99,,,,,,,,,f,blue,6102d892986a0f83785e2470,2021-09-27_15h07.54.259,forced_choiceRT_color,2021.2.3,Win32,29.97601918,,,,,,,,6,Ontime,long,d,0,2.005,0,1,1,1,1,,,,,
,1.01,,,,,,,,,d,orange,6102d892986a0f83785e2470,2021-09-27_15h07.54.259,forced_choiceRT_color,2021.2.3,Win32,29.97601918,,,,,,,,6,Ontime,long,d,1,2.063,0,2,2,0,1,,,,,
,0.22,,,,,,,,,k,purple,6102d892986a0f83785e2470,2021-09-27_15h07.54.259,forced_choiceRT_color,2021.2.3,Win32,29.97601918,,,,,,,,6,Ontime,long,k,1,1.934,0,3,3,3,1,,,,,
,1.54,,,,,,,,,d,orange,6102d892986a0f83785e2470,2021-09-27_15h07.54.259,forced_choiceRT_color,2021.2.3,Win32,29.97601918,,,,,,,,6,Ontime,long,k,0,1.97,1,0,4,0,1,,,,,
,0.3,,,,,,,,,k,purple,6102d892986a0f83785e2470,2021-09-27_15h07.54.259,forced_choiceRT_color,2021.2.3,Win32,29.97601918,,,,,,,,6,Ontime,long,k,1,1.936,1,1,5,3,1,,,,,
,1.12,,,,,,,,,j,red,6102d892986a0f83785e2470,2021-09-27_15h07.54.259,forced_choiceRT_color,2021.2.3,Win32,29.97601918,,,,,,,,6,Fast,long,j,1,1.82,1,2,6,2,1,,,,,
,1.53,,,,,,,,,k,purple,6102d892986a0f83785e2470,2021-09-27_15h07.54.259,forced_choiceRT_color,2021.2.3,Win32,29.97601918,,,,,,,,6,Slow,long,k,1,2.103,1,3,7,3,1,,,,,
,1.86,,,,,,,,,f,blue,6102d892986a0f83785e2470,2021-09-27_15h07.54.259,forced_choiceRT_color,2021.2.3,Win32,29.97601918,,,,,,,,6,Ontime,long,k,0,2.072,2,0,8,1,1,,,,,
,0.86,,,,,,,,,k,purple,6102d892986a0f83785e2470,2021-09-27_15h07.54.259,forced_choiceRT_color,2021.2.3,Win32,29.97601918,,,,,,,,6,Fast,long,k,1,1.842,2,1,9,3,1,,,,,
,1.91,,,,,,,,,j,red,6102d892986a0f83785e2470,2021-09-27_15h07.54.259,forced_choiceRT_color,2021.2.3,Win32,29.97601918,,,,,,,,6,Slow,long,k,0,2.123,2,2,10,2,1,,,,,
,0.53,,,,,,,,,f,blue,6102d892986a0f83785e2470,2021-09-27_15h07.54.259,forced_choiceRT_color,2021.2.3,Win32,29.97601918,,,,,,,,6,Slow,long,f,1,2.126,2,3,11,1,1,,,,,
,1.46,,,,,,,,,k,purple,6102d892986a0f83785e2470,2021-09-27_15h07.54.259,forced_choiceRT_color,2021.2.3,Win32,29.97601918,,,,,,,,6,Ontime,long,k,1,2.036,3,0,12,3,1,,,,,
,0.65,,,,,,,,,j,red,6102d892986a0f83785e2470,2021-09-27_15h07.54.259,forced_choiceRT_color,2021.2.3,Win32,29.97601918,,,,,,,,6,Ontime,long,j,1,1.989,3,1,13,2,1,,,,,
,1.19,,,,,,,,,j,red,6102d892986a0f83785e2470,2021-09-27_15h07.54.259,forced_choiceRT_color,2021.2.3,Win32,29.97601918,,,,,,,,6,Fast,long,j,1,1.88,3,2,14,2,1,,,,,
,1.29,,,,,,,,,d,orange,6102d892986a0f83785e2470,2021-09-27_15h07.54.259,forced_choiceRT_color,2021.2.3,Win32,29.97601918,,,,,,,,6,Slow,long,d,1,2.127,3,3,15,0,1,,,,,
,0.98,,,,,,,,,k,purple,6102d892986a0f83785e2470,2021-09-27_15h07.54.259,forced_choiceRT_color,2021.2.3,Win32,29.97601918,,,,,,,,6,Fast,long,k,1,1.837,4,0,16,3,1,,,,,
,1.01,,,,,,,,,f,blue,6102d892986a0f83785e2470,2021-09-27_15h07.54.259,forced_choiceRT_color,2021.2.3,Win32,29.97601918,,,,,,,,6,Ontime,long,f,1,1.97,4,1,17,1,1,,,,,
,1.34,,,,,,,,,k,purple,6102d892986a0f83785e2470,2021-09-27_15h07.54.259,forced_choiceRT_color,2021.2.3,Win32,29.97601918,,,,,,,,6,Ontime,long,k,1,2.077,4,2,18,3,1,,,,,
,1.34,,,,,,,,,j,red,6102d892986a0f83785e2470,2021-09-27_15h07.54.259,forced_choiceRT_color,2021.2.3,Win32,29.97601918,,,,,,,,6,Ontime,long,j,1,2.034,4,3,19,2,1,,,,,
,0.06,,,,,,,,,j,red,6102d892986a0f83785e2470,2021-09-27_15h07.54.259,forced_choiceRT_color,2021.2.3,Win32,29.97601918,,,,,,,,6,Ontime,long,j,1,2.044,5,0,20,2,1,,,,,
,1.94,,,,,,,,,d,orange,6102d892986a0f83785e2470,2021-09-27_15h07.54.259,forced_choiceRT_color,2021.2.3,Win32,29.97601918,,,,,,,,6,Slow,long,j,0,2.336,5,1,21,0,1,,,,,
,1.48,,,,,,,,,j,red,6102d892986a0f83785e2470,2021-09-27_15h07.54.259,forced_choiceRT_color,2021.2.3,Win32,29.97601918,,,,,,,,6,Slow,long,j,1,2.126,5,2,22,2,1,,,,,
,1.23,,,,,,,,,d,orange,6102d892986a0f83785e2470,2021-09-27_15h07.54.259,forced_choiceRT_color,2021.2.3,Win32,29.97601918,,,,,,,,6,Ontime,long,d,1,2.001,5,3,23,0,1,,,,,
,0.91,,,,,,,,,f,blue,6102d892986a0f83785e2470,2021-09-27_15h07.54.259,forced_choiceRT_color,2021.2.3,Win32,29.97601918,,,,,,,,6,Ontime,long,f,1,2.07,6,0,24,1,1,,,,,
,0.14,,,,,,,,,j,red,6102d892986a0f83785e2470,2021-09-27_15h07.54.259,forced_choiceRT_color,2021.2.3,Win32,29.97601918,,,,,,,,6,Ontime,long,j,1,2.006,6,1,25,2,1,,,,,
,0.21,,,,,,,,,j,red,6102d892986a0f83785e2470,2021-09-27_15h07.54.259,forced_choiceRT_color,2021.2.3,Win32,29.97601918,,,,,,,,6,Ontime,long,j,1,2.039,6,2,26,2,1,,,,,
,0.02,,,,,,,,,f,blue,6102d892986a0f83785e2470,2021-09-27_15h07.54.259,forced_choiceRT_color,2021.2.3,Win32,29.97601918,,,,,,,,6,Ontime,long,f,1,1.957,6,3,27,1,1,,,,,
,1.24,,,,,,,,,d,orange,6102d892986a0f83785e2470,2021-09-27_15h07.54.259,forced_choiceRT_color,2021.2.3,Win32,29.97601918,,,,,,,,6,Slow,long,d,1,2.211,7,0,28,0,1,,,,,
,1.13,,,,,,,,,d,orange,6102d892986a0f83785e2470,2021-09-27_15h07.54.259,forced_choiceRT_color,2021.2.3,Win32,29.97601918,,,,,,,,6,Ontime,long,d,1,1.938,7,1,29,0,1,,,,,
,1.34,,,,,,,,,k,purple,6102d892986a0f83785e2470,2021-09-27_15h07.54.259,forced_choiceRT_color,2021.2.3,Win32,29.97601918,,,,,,,,6,Ontime,long,k,1,2.071,7,2,30,3,1,,,,,
,1.22,,,,,,,,,k,purple,6102d892986a0f83785e2470,2021-09-27_15h07.54.259,forced_choiceRT_color,2021.2.3,Win32,29.97601918,,,,,,,,6,Fast,long,k,1,1.872,7,3,31,3,1,,,,,
,0.5,,,,,,,,,f,blue,6102d892986a0f83785e2470,2021-09-27_15h07.54.259,forced_choiceRT_color,2021.2.3,Win32,29.97601918,,,,,,,,6,Slow,long,f,1,2.179,8,0,32,1,1,,,,,
,0.98,,,,,,,,,f,blue,6102d892986a0f83785e2470,2021-09-27_15h07.54.259,forced_choiceRT_color,2021.2.3,Win32,29.97601918,,,,,,,,6,Fast,long,f,1,1.756,8,1,33,1,1,,,,,
,1.65,,,,,,,,,d,orange,6102d892986a0f83785e2470,2021-09-27_15h07.54.259,forced_choiceRT_color,2021.2.3,Win32,29.97601918,,,,,,,,6,Slow,long,d,1,2.26,8,2,34,0,1,,,,,
,1.96,,,,,,,,,f,blue,6102d892986a0f83785e2470,2021-09-27_15h07.54.259,forced_choiceRT_color,2021.2.3,Win32,29.97601918,,,,,,,,6,Slow,long,d,0,2.386,8,3,35,1,1,,,,,
,1.91,,,,,,,,,j,red,6102d892986a0f83785e2470,2021-09-27_15h07.54.259,forced_choiceRT_color,2021.2.3,Win32,29.97601918,,,,,,,,6,Ontime,long,j,1,1.962,9,0,36,2,1,,,,,
,0.89,,,,,,,,,f,blue,6102d892986a0f83785e2470,2021-09-27_15h07.54.259,forced_choiceRT_color,2021.2.3,Win32,29.97601918,,,,,,,,6,Ontime,long,f,1,1.972,9,1,37,1,1,,,,,
,1.16,,,,,,,,,k,purple,6102d892986a0f83785e2470,2021-09-27_15h07.54.259,forced_choiceRT_color,2021.2.3,Win32,29.97601918,,,,,,,,6,Fast,long,k,1,1.84,9,2,38,3,1,,,,,
,0.65,,,,,,,,,d,orange,6102d892986a0f83785e2470,2021-09-27_15h07.54.259,forced_choiceRT_color,2021.2.3,Win32,29.97601918,,,,,,,,6,Fast,long,d,1,1.703,9,3,39,0,1,,,,,
,,,,,,,,,,,,6102d892986a0f83785e2470,2021-09-27_15h07.54.259,forced_choiceRT_color,2021.2.3,Win32,29.97601918,,,,,,,,,,,,,,,,,,,5,0,5,0,1
,1.04,,,,,,,,,j,red,6102d892986a0f83785e2470,2021-09-27_15h07.54.259,forced_choiceRT_color,2021.2.3,Win32,29.97601918,,,,,,,,7,Slow,long,j,1,2.175,0,0,0,2,1,,,,,
,0.49,,,,,,,,,k,purple,6102d892986a0f83785e2470,2021-09-27_15h07.54.259,forced_choiceRT_color,2021.2.3,Win32,29.97601918,,,,,,,,7,Ontime,long,k,1,2.066,0,1,1,3,1,,,,,
,0.72,,,,,,,,,f,blue,6102d892986a0f83785e2470,2021-09-27_15h07.54.259,forced_choiceRT_color,2021.2.3,Win32,29.97601918,,,,,,,,7,Ontime,long,f,1,2.048,0,2,2,1,1,,,,,
,1.44,,,,,,,,,j,red,6102d892986a0f83785e2470,2021-09-27_15h07.54.259,forced_choiceRT_color,2021.2.3,Win32,29.97601918,,,,,,,,7,Slow,long,j,1,2.179,0,3,3,2,1,,,,,
,0.04,,,,,,,,,j,red,6102d892986a0f83785e2470,2021-09-27_15h07.54.259,forced_choiceRT_color,2021.2.3,Win32,29.97601918,,,,,,,,7,Ontime,long,j,1,2.023,1,0,4,2,1,,,,,
,1.57,,,,,,,,,k,purple,6102d892986a0f83785e2470,2021-09-27_15h07.54.259,forced_choiceRT_color,2021.2.3,Win32,29.97601918,,,,,,,,7,Slow,long,k,1,2.213,1,1,5,3,1,,,,,
,0.99,,,,,,,,,j,red,6102d892986a0f83785e2470,2021-09-27_15h07.54.259,forced_choiceRT_color,2021.2.3,Win32,29.97601918,,,,,,,,7,Ontime,long,j,1,1.988,1,2,6,2,1,,,,,
,0.58,,,,,,,,,k,purple,6102d892986a0f83785e2470,2021-09-27_15h07.54.259,forced_choiceRT_color,2021.2.3,Win32,29.97601918,,,,,,,,7,Ontime,long,k,1,2.068,1,3,7,3,1,,,,,
,1.69,,,,,,,,,d,orange,6102d892986a0f83785e2470,2021-09-27_15h07.54.259,forced_choiceRT_color,2021.2.3,Win32,29.97601918,,,,,,,,7,Slow,long,k,0,2.341,2,0,8,0,1,,,,,
,0.76,,,,,,,,,d,orange,6102d892986a0f83785e2470,2021-09-27_15h07.54.259,forced_choiceRT_color,2021.2.3,Win32,29.97601918,,,,,,,,7,Ontime,long,d,1,2.05,2,1,9,0,1,,,,,
,0.34,,,,,,,,,j,red,6102d892986a0f83785e2470,2021-09-27_15h07.54.259,forced_choiceRT_color,2021.2.3,Win32,29.97601918,,,,,,,,7,Ontime,long,j,1,1.904,2,2,10,2,1,,,,,
,0.43,,,,,,,,,k,purple,6102d892986a0f83785e2470,2021-09-27_15h07.54.259,forced_choiceRT_color,2021.2.3,Win32,29.97601918,,,,,,,,7,Ontime,long,k,1,2.057,2,3,11,3,1,,,,,
,1.89,,,,,,,,,k,purple,6102d892986a0f83785e2470,2021-09-27_15h07.54.259,forced_choiceRT_color,2021.2.3,Win32,29.97601918,,,,,,,,7,Ontime,long,k,1,2.063,3,0,12,3,1,,,,,
,1.69,,,,,,,,,j,red,6102d892986a0f83785e2470,2021-09-27_15h07.54.259,forced_choiceRT_color,2021.2.3,Win32,29.97601918,,,,,,,,7,Ontime,long,k,0,2.005,3,1,13,2,1,,,,,
,0.4,,,,,,,,,d,orange,6102d892986a0f83785e2470,2021-09-27_15h07.54.259,forced_choiceRT_color,2021.2.3,Win32,29.97601918,,,,,,,,7,Ontime,long,d,1,2.03,3,2,14,0,1,,,,,
,1.65,,,,,,,,,k,purple,6102d892986a0f83785e2470,2021-09-27_15h07.54.259,forced_choiceRT_color,2021.2.3,Win32,29.97601918,,,,,,,,7,Fast,long,f,0,1.71,3,3,15,3,1,,,,,
,0.2,,,,,,,,,f,blue,6102d892986a0f83785e2470,2021-09-27_15h07.54.259,forced_choiceRT_color,2021.2.3,Win32,29.97601918,,,,,,,,7,Fast,long,f,1,1.841,4,0,16,1,1,,,,,
,1.43,,,,,,,,,j,red,6102d892986a0f83785e2470,2021-09-27_15h07.54.259,forced_choiceRT_color,2021.2.3,Win32,29.97601918,,,,,,,,7,Slow,long,f,0,2.134,4,1,17,2,1,,,,,
,0.34,,,,,,,,,j,red,6102d892986a0f83785e2470,2021-09-27_15h07.54.259,forced_choiceRT_color,2021.2.3,Win32,29.97601918,,,,,,,,7,Ontime,long,j,1,1.979,4,2,18,2,1,,,,,
,0.42,,,,,,,,,k,purple,6102d892986a0f83785e2470,2021-09-27_15h07.54.259,forced_choiceRT_color,2021.2.3,Win32,29.97601918,,,,,,,,7,Ontime,long,k,1,1.918,4,3,19,3,1,,,,,
,1.32,,,,,,,,,j,red,6102d892986a0f83785e2470,2021-09-27_15h07.54.259,forced_choiceRT_color,2021.2.3,Win32,29.97601918,,,,,,,,7,Ontime,long,j,1,2.07,5,0,20,2,1,,,,,
,0.67,,,,,,,,,d,orange,6102d892986a0f83785e2470,2021-09-27_15h07.54.259,forced_choiceRT_color,2021.2.3,Win32,29.97601918,,,,,,,,7,Slow,long,j,0,2.108,5,1,21,0,1,,,,,
,0.12,,,,,,,,,d,orange,6102d892986a0f83785e2470,2021-09-27_15h07.54.259,forced_choiceRT_color,2021.2.3,Win32,29.97601918,,,,,,,,7,Fast,long,d,1,1.821,5,2,22,0,1,,,,,
,1.71,,,,,,,,,d,orange,6102d892986a0f83785e2470,2021-09-27_15h07.54.259,forced_choiceRT_color,2021.2.3,Win32,29.97601918,,,,,,,,7,Slow,long,d,1,2.117,5,3,23,0,1,,,,,
,1.2,,,,,,,,,k,purple,6102d892986a0f83785e2470,2021-09-27_15h07.54.259,forced_choiceRT_color,2021.2.3,Win32,29.97601918,,,,,,,,7,Slow,long,k,1,2.102,6,0,24,3,1,,,,,
,1.47,,,,,,,,,d,orange,6102d892986a0f83785e2470,2021-09-27_15h07.54.259,forced_choiceRT_color,2021.2.3,Win32,29.97601918,,,,,,,,7,Ontime,long,j,0,1.992,6,1,25,0,1,,,,,
,0.44,,,,,,,,,f,blue,6102d892986a0f83785e2470,2021-09-27_15h07.54.259,forced_choiceRT_color,2021.2.3,Win32,29.97601918,,,,,,,,7,Slow,long,f,1,2.118,6,2,26,1,1,,,,,
,0.97,,,,,,,,,d,orange,6102d892986a0f83785e2470,2021-09-27_15h07.54.259,forced_choiceRT_color,2021.2.3,Win32,29.97601918,,,,,,,,7,Ontime,long,d,1,1.927,6,3,27,0,1,,,,,
,0.86,,,,,,,,,f,blue,6102d892986a0f83785e2470,2021-09-27_15h07.54.259,forced_choiceRT_color,2021.2.3,Win32,29.97601918,,,,,,,,7,Fast,long,f,1,1.852,7,0,28,1,1,,,,,
,1.73,,,,,,,,,f,blue,6102d892986a0f83785e2470,2021-09-27_15h07.54.259,forced_choiceRT_color,2021.2.3,Win32,29.97601918,,,,,,,,7,Fast,long,f,1,1.79,7,1,29,1,1,,,,,
,1.57,,,,,,,,,f,blue,6102d892986a0f83785e2470,2021-09-27_15h07.54.259,forced_choiceRT_color,2021.2.3,Win32,29.97601918,,,,,,,,7,Ontime,long,f,1,2.02,7,2,30,1,1,,,,,
,1.53,,,,,,,,,f,blue,6102d892986a0f83785e2470,2021-09-27_15h07.54.259,forced_choiceRT_color,2021.2.3,Win32,29.97601918,,,,,,,,7,Ontime,long,f,1,2.029,7,3,31,1,1,,,,,
,0.42,,,,,,,,,k,purple,6102d892986a0f83785e2470,2021-09-27_15h07.54.259,forced_choiceRT_color,2021.2.3,Win32,29.97601918,,,,,,,,7,Ontime,long,k,1,1.96,8,0,32,3,1,,,,,
,0.32,,,,,,,,,f,blue,6102d892986a0f83785e2470,2021-09-27_15h07.54.259,forced_choiceRT_color,2021.2.3,Win32,29.97601918,,,,,,,,7,Ontime,long,f,1,1.906,8,1,33,1,1,,,,,
,1.35,,,,,,,,,f,blue,6102d892986a0f83785e2470,2021-09-27_15h07.54.259,forced_choiceRT_color,2021.2.3,Win32,29.97601918,,,,,,,,7,Ontime,long,f,1,2.045,8,2,34,1,1,,,,,
,1.9,,,,,,,,,j,red,6102d892986a0f83785e2470,2021-09-27_15h07.54.259,forced_choiceRT_color,2021.2.3,Win32,29.97601918,,,,,,,,7,Slow,long,j,1,2.228,8,3,35,2,1,,,,,
,1.08,,,,,,,,,d,orange,6102d892986a0f83785e2470,2021-09-27_15h07.54.259,forced_choiceRT_color,2021.2.3,Win32,29.97601918,,,,,,,,7,Fast,long,d,1,1.886,9,0,36,0,1,,,,,
,1.71,,,,,,,,,f,blue,6102d892986a0f83785e2470,2021-09-27_15h07.54.259,forced_choiceRT_color,2021.2.3,Win32,29.97601918,,,,,,,,7,Slow,long,f,1,2.131,9,1,37,1,1,,,,,
,1.91,,,,,,,,,k,purple,6102d892986a0f83785e2470,2021-09-27_15h07.54.259,forced_choiceRT_color,2021.2.3,Win32,29.97601918,,,,,,,,7,Ontime,long,f,0,2.02,9,2,38,3,1,,,,,
,1.5,,,,,,,,,d,orange,6102d892986a0f83785e2470,2021-09-27_15h07.54.259,forced_choiceRT_color,2021.2.3,Win32,29.97601918,,,,,,,,7,Ontime,long,f,0,2.073,9,3,39,0,1,,,,,
,,,,,,,,,,,,6102d892986a0f83785e2470,2021-09-27_15h07.54.259,forced_choiceRT_color,2021.2.3,Win32,29.97601918,,,,,,,,,,,,,,,,,,,6,0,6,0,1
,1.57,,,,,,,,,j,red,6102d892986a0f83785e2470,2021-09-27_15h07.54.259,forced_choiceRT_color,2021.2.3,Win32,29.97601918,,,,,,,,8,Ontime,long,f,0,2.001,0,0,0,2,1,,,,,
,1.51,,,,,,,,,j,red,6102d892986a0f83785e2470,2021-09-27_15h07.54.259,forced_choiceRT_color,2021.2.3,Win32,29.97601918,,,,,,,,8,Ontime,long,j,1,1.908,0,1,1,2,1,,,,,
,0.29,,,,,,,,,d,orange,6102d892986a0f83785e2470,2021-09-27_15h07.54.259,forced_choiceRT_color,2021.2.3,Win32,29.97601918,,,,,,,,8,Ontime,long,d,1,1.902,0,2,2,0,1,,,,,
,1.64,,,,,,,,,j,red,6102d892986a0f83785e2470,2021-09-27_15h07.54.259,forced_choiceRT_color,2021.2.3,Win32,29.97601918,,,,,,,,8,Ontime,long,f,0,2.016,0,3,3,2,1,,,,,
,0.11,,,,,,,,,d,orange,6102d892986a0f83785e2470,2021-09-27_15h07.54.259,forced_choiceRT_color,2021.2.3,Win32,29.97601918,,,,,,,,8,Ontime,long,d,1,1.96,1,0,4,0,1,,,,,
,1.54,,,,,,,,,f,blue,6102d892986a0f83785e2470,2021-09-27_15h07.54.259,forced_choiceRT_color,2021.2.3,Win32,29.97601918,,,,,,,,8,Slow,long,j,0,2.122,1,1,5,1,1,,,,,
,0.27,,,,,,,,,k,purple,6102d892986a0f83785e2470,2021-09-27_15h07.54.259,forced_choiceRT_color,2021.2.3,Win32,29.97601918,,,,,,,,8,Ontime,long,k,1,2.04,1,2,6,3,1,,,,,
,0.77,,,,,,,,,k,purple,6102d892986a0f83785e2470,2021-09-27_15h07.54.259,forced_choiceRT_color,2021.2.3,Win32,29.97601918,,,,,,,,8,Slow,long,k,1,2.106,1,3,7,3,1,,,,,
,1.25,,,,,,,,,f,blue,6102d892986a0f83785e2470,2021-09-27_15h07.54.259,forced_choiceRT_color,2021.2.3,Win32,29.97601918,,,,,,,,8,Ontime,long,f,1,2.016,2,0,8,1,1,,,,,
,1.77,,,,,,,,,d,orange,6102d892986a0f83785e2470,2021-09-27_15h07.54.259,forced_choiceRT_color,2021.2.3,Win32,29.97601918,,,,,,,,8,Fast,long,f,0,1.858,2,1,9,0,1,,,,,
,1.69,,,,,,,,,d,orange,6102d892986a0f83785e2470,2021-09-27_15h07.54.259,forced_choiceRT_color,2021.2.3,Win32,29.97601918,,,,,,,,8,Ontime,long,d,1,2.038,2,2,10,0,1,,,,,
,1.32,,,,,,,,,j,red,6102d892986a0f83785e2470,2021-09-27_15h07.54.259,forced_choiceRT_color,2021.2.3,Win32,29.97601918,,,,,,,,8,Ontime,long,j,1,2.03,2,3,11,2,1,,,,,
,0.38,,,,,,,,,f,blue,6102d892986a0f83785e2470,2021-09-27_15h07.54.259,forced_choiceRT_color,2021.2.3,Win32,29.97601918,,,,,,,,8,Ontime,long,f,1,1.912,3,0,12,1,1,,,,,
,1.95,,,,,,,,,k,purple,6102d892986a0f83785e2470,2021-09-27_15h07.54.259,forced_choiceRT_color,2021.2.3,Win32,29.97601918,,,,,,,,8,Ontime,long,f,0,1.987,3,1,13,3,1,,,,,
,1.2,,,,,,,,,j,red,6102d892986a0f83785e2470,2021-09-27_15h07.54.259,forced_choiceRT_color,2021.2.3,Win32,29.97601918,,,,,,,,8,Fast,long,j,1,1.874,3,2,14,2,1,,,,,
,1.12,,,,,,,,,k,purple,6102d892986a0f83785e2470,2021-09-27_15h07.54.259,forced_choiceRT_color,2021.2.3,Win32,29.97601918,,,,,,,,8,Fast,long,k,1,1.851,3,3,15,3,1,,,,,
,0.83,,,,,,,,,d,orange,6102d892986a0f83785e2470,2021-09-27_15h07.54.259,forced_choiceRT_color,2021.2.3,Win32,29.97601918,,,,,,,,8,Ontime,long,d,1,2.062,4,0,16,0,1,,,,,
,1.93,,,,,,,,,f,blue,6102d892986a0f83785e2470,2021-09-27_15h07.54.259,forced_choiceRT_color,2021.2.3,Win32,29.97601918,,,,,,,,8,Slow,long,f,1,2.147,4,1,17,1,1,,,,,
,0.56,,,,,,,,,j,red,6102d892986a0f83785e2470,2021-09-27_15h07.54.259,forced_choiceRT_color,2021.2.3,Win32,29.97601918,,,,,,,,8,Ontime,long,j,1,2.003,4,2,18,2,1,,,,,
,0.02,,,,,,,,,d,orange,6102d892986a0f83785e2470,2021-09-27_15h07.54.259,forced_choiceRT_color,2021.2.3,Win32,29.97601918,,,,,,,,8,Ontime,long,d,1,2.037,4,3,19,0,1,,,,,
,0.28,,,,,,,,,j,red,6102d892986a0f83785e2470,2021-09-27_15h07.54.259,forced_choiceRT_color,2021.2.3,Win32,29.97601918,,,,,,,,8,Ontime,long,j,1,2.005,5,0,20,2,1,,,,,
,0.34,,,,,,,,,k,purple,6102d892986a0f83785e2470,2021-09-27_15h07.54.259,forced_choiceRT_color,2021.2.3,Win32,29.97601918,,,,,,,,8,Ontime,long,k,1,1.956,5,1,21,3,1,,,,,
,0.65,,,,,,,,,f,blue,6102d892986a0f83785e2470,2021-09-27_15h07.54.259,forced_choiceRT_color,2021.2.3,Win32,29.97601918,,,,,,,,8,Ontime,long,f,1,1.942,5,2,22,1,1,,,,,
,0.74,,,,,,,,,f,blue,6102d892986a0f83785e2470,2021-09-27_15h07.54.259,forced_choiceRT_color,2021.2.3,Win32,29.97601918,,,,,,,,8,Ontime,long,f,1,1.979,5,3,23,1,1,,,,,
,1.46,,,,,,,,,d,orange,6102d892986a0f83785e2470,2021-09-27_15h07.54.259,forced_choiceRT_color,2021.2.3,Win32,29.97601918,,,,,,,,8,Ontime,long,f,0,2.086,6,0,24,0,1,,,,,
,1.24,,,,,,,,,f,blue,6102d892986a0f83785e2470,2021-09-27_15h07.54.259,forced_choiceRT_color,2021.2.3,Win32,29.97601918,,,,,,,,8,Ontime,long,f,1,1.943,6,1,25,1,1,,,,,
,1.82,,,,,,,,,f,blue,6102d892986a0f83785e2470,2021-09-27_15h07.54.259,forced_choiceRT_color,2021.2.3,Win32,29.97601918,,,,,,,,8,Fast,long,f,1,1.804,6,2,26,1,1,,,,,
,1.5,,,,,,,,,j,red,6102d892986a0f83785e2470,2021-09-27_15h07.54.259,forced_choiceRT_color,2021.2.3,Win32,29.97601918,,,,,,,,8,Ontime,long,f,0,2,6,3,27,2,1,,,,,
,0.73,,,,,,,,,k,purple,6102d892986a0f83785e2470,2021-09-27_15h07.54.259,forced_choiceRT_color,2021.2.3,Win32,29.97601918,,,,,,,,8,Ontime,long,k,1,1.959,7,0,28,3,1,,,,,
,1.1,,,,,,,,,k,purple,6102d892986a0f83785e2470,2021-09-27_15h07.54.259,forced_choiceRT_color,2021.2.3,Win32,29.97601918,,,,,,,,8,Slow,long,k,1,2.475,7,1,29,3,1,,,,,
,0.63,,,,,,,,,k,purple,6102d892986a0f83785e2470,2021-09-27_15h07.54.259,forced_choiceRT_color,2021.2.3,Win32,29.97601918,,,,,,,,8,Ontime,long,k,1,1.984,7,2,30,3,1,,,,,
,1.96,,,,,,,,,k,purple,6102d892986a0f83785e2470,2021-09-27_15h07.54.259,forced_choiceRT_color,2021.2.3,Win32,29.97601918,,,,,,,,8,Ontime,long,k,1,1.973,7,3,31,3,1,,,,,
,0.1,,,,,,,,,k,purple,6102d892986a0f83785e2470,2021-09-27_15h07.54.259,forced_choiceRT_color,2021.2.3,Win32,29.97601918,,,,,,,,8,Ontime,long,k,1,1.939,8,0,32,3,1,,,,,
,1.07,,,,,,,,,j,red,6102d892986a0f83785e2470,2021-09-27_15h07.54.259,forced_choiceRT_color,2021.2.3,Win32,29.97601918,,,,,,,,8,Ontime,long,j,1,1.943,8,1,33,2,1,,,,,
,1.38,,,,,,,,,f,blue,6102d892986a0f83785e2470,2021-09-27_15h07.54.259,forced_choiceRT_color,2021.2.3,Win32,29.97601918,,,,,,,,8,Ontime,long,j,0,1.993,8,2,34,1,1,,,,,
,1.92,,,,,,,,,j,red,6102d892986a0f83785e2470,2021-09-27_15h07.54.259,forced_choiceRT_color,2021.2.3,Win32,29.97601918,,,,,,,,8,Ontime,long,f,0,1.975,8,3,35,2,1,,,,,
,1.47,,,,,,,,,d,orange,6102d892986a0f83785e2470,2021-09-27_15h07.54.259,forced_choiceRT_color,2021.2.3,Win32,29.97601918,,,,,,,,8,Slow,long,d,1,2.144,9,0,36,0,1,,,,,
,0.53,,,,,,,,,f,blue,6102d892986a0f83785e2470,2021-09-27_15h07.54.259,forced_choiceRT_color,2021.2.3,Win32,29.97601918,,,,,,,,8,Ontime,long,f,1,2,9,1,37,1,1,,,,,
,1.24,,,,,,,,,d,orange,6102d892986a0f83785e2470,2021-09-27_15h07.54.259,forced_choiceRT_color,2021.2.3,Win32,29.97601918,,,,,,,,8,Ontime,long,d,1,2.022,9,2,38,0,1,,,,,
,0.3,,,,,,,,,d,orange,6102d892986a0f83785e2470,2021-09-27_15h07.54.259,forced_choiceRT_color,2021.2.3,Win32,29.97601918,,,,,,,,8,Ontime,long,d,1,1.915,9,3,39,0,1,,,,,
,,,,,,,,,,,,6102d892986a0f83785e2470,2021-09-27_15h07.54.259,forced_choiceRT_color,2021.2.3,Win32,29.97601918,,,,,,,,,,,,,,,,,,,7,0,7,0,1
,1.84,,,,,,,,,j,red,6102d892986a0f83785e2470,2021-09-27_15h07.54.259,forced_choiceRT_color,2021.2.3,Win32,29.97601918,,,,,,,,9,Slow,long,d,0,2.205,0,0,0,2,1,,,,,
,0.81,,,,,,,,,k,purple,6102d892986a0f83785e2470,2021-09-27_15h07.54.259,forced_choiceRT_color,2021.2.3,Win32,29.97601918,,,,,,,,9,Slow,long,k,1,2.108,0,1,1,3,1,,,,,
,1.5,,,,,,,,,f,blue,6102d892986a0f83785e2470,2021-09-27_15h07.54.259,forced_choiceRT_color,2021.2.3,Win32,29.97601918,,,,,,,,9,Slow,long,f,1,2.175,0,2,2,1,1,,,,,
,1.47,,,,,,,,,k,purple,6102d892986a0f83785e2470,2021-09-27_15h07.54.259,forced_choiceRT_color,2021.2.3,Win32,29.97601918,,,,,,,,9,Slow,long,k,1,2.137,0,3,3,3,1,,,,,
,0.13,,,,,,,,,k,purple,6102d892986a0f83785e2470,2021-09-27_15h07.54.259,forced_choiceRT_color,2021.2.3,Win32,29.97601918,,,,,,,,9,Slow,long,k,1,2.101,1,0,4,3,1,,,,,
,1.3,,,,,,,,,f,blue,6102d892986a0f83785e2470,2021-09-27_15h07.54.259,forced_choiceRT_color,2021.2.3,Win32,29.97601918,,,,,,,,9,Ontime,long,f,1,2.076,1,1,5,1,1,,,,,
,0.96,,,,,,,,,f,blue,6102d892986a0f83785e2470,2021-09-27_15h07.54.259,forced_choiceRT_color,2021.2.3,Win32,29.97601918,,,,,,,,9,Ontime,long,f,1,2.028,1,2,6,1,1,,,,,
,1.79,,,,,,,,,f,blue,6102d892986a0f83785e2470,2021-09-27_15h07.54.259,forced_choiceRT_color,2021.2.3,Win32,29.97601918,,,,,,,,9,Ontime,long,k,0,2.08,1,3,7,1,1,,,,,
,1.99,,,,,,,,,j,red,6102d892986a0f83785e2470,2021-09-27_15h07.54.259,forced_choiceRT_color,2021.2.3,Win32,29.97601918,,,,,,,,9,Slow,long,f,0,2.167,2,0,8,2,1,,,,,
,1.05,,,,,,,,,d,orange,6102d892986a0f83785e2470,2021-09-27_15h07.54.259,forced_choiceRT_color,2021.2.3,Win32,29.97601918,,,,,,,,9,Ontime,long,d,1,1.954,2,1,9,0,1,,,,,
,0.49,,,,,,,,,d,orange,6102d892986a0f83785e2470,2021-09-27_15h07.54.259,forced_choiceRT_color,2021.2.3,Win32,29.97601918,,,,,,,,9,Ontime,long,d,1,2.071,2,2,10,0,1,,,,,
,0.62,,,,,,,,,d,orange,6102d892986a0f83785e2470,2021-09-27_15h07.54.259,forced_choiceRT_color,2021.2.3,Win32,29.97601918,,,,,,,,9,Ontime,long,d,1,2.002,2,3,11,0,1,,,,,
,1.16,,,,,,,,,j,red,6102d892986a0f83785e2470,2021-09-27_15h07.54.259,forced_choiceRT_color,2021.2.3,Win32,29.97601918,,,,,,,,9,Ontime,long,j,1,2.001,3,0,12,2,1,,,,,
,0.33,,,,,,,,,j,red,6102d892986a0f83785e2470,2021-09-27_15h07.54.259,forced_choiceRT_color,2021.2.3,Win32,29.97601918,,,,,,,,9,Fast,long,j,1,1.807,3,1,13,2,1,,,,,
,1.51,,,,,,,,,k,purple,6102d892986a0f83785e2470,2021-09-27_15h07.54.259,forced_choiceRT_color,2021.2.3,Win32,29.97601918,,,,,,,,9,Fast,long,f,0,1.882,3,2,14,3,1,,,,,
,1.31,,,,,,,,,k,purple,6102d892986a0f83785e2470,2021-09-27_15h07.54.259,forced_choiceRT_color,2021.2.3,Win32,29.97601918,,,,,,,,9,Ontime,long,k,1,2.072,3,3,15,3,1,,,,,
,1.11,,,,,,,,,j,red,6102d892986a0f83785e2470,2021-09-27_15h07.54.259,forced_choiceRT_color,2021.2.3,Win32,29.97601918,,,,,,,,9,Fast,long,j,1,1.87,4,0,16,2,1,,,,,
,1.43,,,,,,,,,d,orange,6102d892986a0f83785e2470,2021-09-27_15h07.54.259,forced_choiceRT_color,2021.2.3,Win32,29.97601918,,,,,,,,9,Slow,long,d,1,2.18,4,1,17,0,1,,,,,
,0.88,,,,,,,,,j,red,6102d892986a0f83785e2470,2021-09-27_15h07.54.259,forced_choiceRT_color,2021.2.3,Win32,29.97601918,,,,,,,,9,Fast,long,j,1,1.805,4,2,18,2,1,,,,,
,0.84,,,,,,,,,d,orange,6102d892986a0f83785e2470,2021-09-27_15h07.54.259,forced_choiceRT_color,2021.2.3,Win32,29.97601918,,,,,,,,9,Ontime,long,d,1,2.089,4,3,19,0,1,,,,,
,1.32,,,,,,,,,d,orange,6102d892986a0f83785e2470,2021-09-27_15h07.54.259,forced_choiceRT_color,2021.2.3,Win32,29.97601918,,,,,,,,9,Slow,long,d,1,2.146,5,0,20,0,1,,,,,
,1.29,,,,,,,,,k,purple,6102d892986a0f83785e2470,2021-09-27_15h07.54.259,forced_choiceRT_color,2021.2.3,Win32,29.97601918,,,,,,,,9,Ontime,long,j,0,2.04,5,1,21,3,1,,,,,
,1.42,,,,,,,,,d,orange,6102d892986a0f83785e2470,2021-09-27_15h07.54.259,forced_choiceRT_color,2021.2.3,Win32,29.97601918,,,,,,,,9,Slow,long,f,0,2.153,5,2,22,0,1,,,,,
,1.48,,,,,,,,,f,blue,6102d892986a0f83785e2470,2021-09-27_15h07.54.259,forced_choiceRT_color,2021.2.3,Win32,29.97601918,,,,,,,,9,Slow,long,j,0,2.139,5,3,23,1,1,,,,,
,0.02,,,,,,,,,f,blue,6102d892986a0f83785e2470,2021-09-27_15h07.54.259,forced_choiceRT_color,2021.2.3,Win32,29.97601918,,,,,,,,9,Ontime,long,f,1,2.038,6,0,24,1,1,,,,,
,1.09,,,,,,,,,k,purple,6102d892986a0f83785e2470,2021-09-27_15h07.54.259,forced_choiceRT_color,2021.2.3,Win32,29.97601918,,,,,,,,9,Ontime,long,k,1,1.905,6,1,25,3,1,,,,,
,1.99,,,,,,,,,j,red,6102d892986a0f83785e2470,2021-09-27_15h07.54.259,forced_choiceRT_color,2021.2.3,Win32,29.97601918,,,,,,,,9,Ontime,long,k,0,2.086,6,2,26,2,1,,,,,
,1.09,,,,,,,,,k,purple,6102d892986a0f83785e2470,2021-09-27_15h07.54.259,forced_choiceRT_color,2021.2.3,Win32,29.97601918,,,,,,,,9,Slow,long,j,0,2.337,6,3,27,3,1,,,,,
,0.85,,,,,,,,,d,orange,6102d892986a0f83785e2470,2021-09-27_15h07.54.259,forced_choiceRT_color,2021.2.3,Win32,29.97601918,,,,,,,,9,Ontime,long,d,1,2.06,7,0,28,0,1,,,,,
,0.52,,,,,,,,,k,purple,6102d892986a0f83785e2470,2021-09-27_15h07.54.259,forced_choiceRT_color,2021.2.3,Win32,29.97601918,,,,,,,,9,Ontime,long,k,1,1.964,7,1,29,3,1,,,,,
,0.19,,,,,,,,,k,purple,6102d892986a0f83785e2470,2021-09-27_15h07.54.259,forced_choiceRT_color,2021.2.3,Win32,29.97601918,,,,,,,,9,Ontime,long,k,1,1.956,7,2,30,3,1,,,,,
,1.31,,,,,,,,,f,blue,6102d892986a0f83785e2470,2021-09-27_15h07.54.259,forced_choiceRT_color,2021.2.3,Win32,29.97601918,,,,,,,,9,Ontime,long,f,1,2.033,7,3,31,1,1,,,,,
,1.6,,,,,,,,,j,red,6102d892986a0f83785e2470,2021-09-27_15h07.54.259,forced_choiceRT_color,2021.2.3,Win32,29.97601918,,,,,,,,9,Slow,long,j,1,2.195,8,0,32,2,1,,,,,
,0.92,,,,,,,,,d,orange,6102d892986a0f83785e2470,2021-09-27_15h07.54.259,forced_choiceRT_color,2021.2.3,Win32,29.97601918,,,,,,,,9,Ontime,long,d,1,2.064,8,1,33,0,1,,,,,
,1.31,,,,,,,,,f,blue,6102d892986a0f83785e2470,2021-09-27_15h07.54.259,forced_choiceRT_color,2021.2.3,Win32,29.97601918,,,,,,,,9,Ontime,long,f,1,2.014,8,2,34,1,1,,,,,
,1.73,,,,,,,,,j,red,6102d892986a0f83785e2470,2021-09-27_15h07.54.259,forced_choiceRT_color,2021.2.3,Win32,29.97601918,,,,,,,,9,Slow,long,j,1,2.165,8,3,35,2,1,,,,,
,0.36,,,,,,,,,j,red,6102d892986a0f83785e2470,2021-09-27_15h07.54.259,forced_choiceRT_color,2021.2.3,Win32,29.97601918,,,,,,,,9,Ontime,long,j,1,1.93,9,0,36,2,1,,,,,
,0.41,,,,,,,,,d,orange,6102d892986a0f83785e2470,2021-09-27_15h07.54.259,forced_choiceRT_color,2021.2.3,Win32,29.97601918,,,,,,,,9,Ontime,long,d,1,2.013,9,1,37,0,1,,,,,
,0.84,,,,,,,,,f,blue,6102d892986a0f83785e2470,2021-09-27_15h07.54.259,forced_choiceRT_color,2021.2.3,Win32,29.97601918,,,,,,,,9,Fast,long,f,1,1.877,9,2,38,1,1,,,,,
,1.53,,,,,,,,,f,blue,6102d892986a0f83785e2470,2021-09-27_15h07.54.259,forced_choiceRT_color,2021.2.3,Win32,29.97601918,,,,,,,,9,Slow,long,f,1,2.292,9,3,39,1,1,,,,,
,,,,,,,,,,,,6102d892986a0f83785e2470,2021-09-27_15h07.54.259,forced_choiceRT_color,2021.2.3,Win32,29.97601918,,,,,,,,,,,,,,,,,,,8,0,8,0,1
,1.74,,,,,,,,,d,orange,6102d892986a0f83785e2470,2021-09-27_15h07.54.259,forced_choiceRT_color,2021.2.3,Win32,29.97601918,,,,,,,,10,Ontime,long,f,0,1.93,0,0,0,0,1,,,,,
,0.85,,,,,,,,,f,blue,6102d892986a0f83785e2470,2021-09-27_15h07.54.259,forced_choiceRT_color,2021.2.3,Win32,29.97601918,,,,,,,,10,Ontime,long,f,1,1.968,0,1,1,1,1,,,,,
,0.91,,,,,,,,,d,orange,6102d892986a0f83785e2470,2021-09-27_15h07.54.259,forced_choiceRT_color,2021.2.3,Win32,29.97601918,,,,,,,,10,Fast,long,d,1,1.792,0,2,2,0,1,,,,,
,1.13,,,,,,,,,k,purple,6102d892986a0f83785e2470,2021-09-27_15h07.54.259,forced_choiceRT_color,2021.2.3,Win32,29.97601918,,,,,,,,10,Fast,long,k,1,1.837,0,3,3,3,1,,,,,
,0.61,,,,,,,,,f,blue,6102d892986a0f83785e2470,2021-09-27_15h07.54.259,forced_choiceRT_color,2021.2.3,Win32,29.97601918,,,,,,,,10,Ontime,long,f,1,1.943,1,0,4,1,1,,,,,
,0.03,,,,,,,,,j,red,6102d892986a0f83785e2470,2021-09-27_15h07.54.259,forced_choiceRT_color,2021.2.3,Win32,29.97601918,,,,,,,,10,Ontime,long,j,1,1.939,1,1,5,2,1,,,,,
,0.81,,,,,,,,,k,purple,6102d892986a0f83785e2470,2021-09-27_15h07.54.259,forced_choiceRT_color,2021.2.3,Win32,29.97601918,,,,,,,,10,Ontime,long,k,1,1.971,1,2,6,3,1,,,,,
,1.26,,,,,,,,,d,orange,6102d892986a0f83785e2470,2021-09-27_15h07.54.259,forced_choiceRT_color,2021.2.3,Win32,29.97601918,,,,,,,,10,Fast,long,f,0,1.87,1,3,7,0,1,,,,,
,0.87,,,,,,,,,f,blue,6102d892986a0f83785e2470,2021-09-27_15h07.54.259,forced_choiceRT_color,2021.2.3,Win32,29.97601918,,,,,,,,10,Ontime,long,f,1,1.916,2,0,8,1,1,,,,,
,0.19,,,,,,,,,j,red,6102d892986a0f83785e2470,2021-09-27_15h07.54.259,forced_choiceRT_color,2021.2.3,Win32,29.97601918,,,,,,,,10,Ontime,long,j,1,1.972,2,1,9,2,1,,,,,
,0.04,,,,,,,,,d,orange,6102d892986a0f83785e2470,2021-09-27_15h07.54.259,forced_choiceRT_color,2021.2.3,Win32,29.97601918,,,,,,,,10,Ontime,long,d,1,1.913,2,2,10,0,1,,,,,
,1.79,,,,,,,,,d,orange,6102d892986a0f83785e2470,2021-09-27_15h07.54.259,forced_choiceRT_color,2021.2.3,Win32,29.97601918,,,,,,,,10,Slow,long,f,0,2.206,2,3,11,0,1,,,,,
,1.38,,,,,,,,,j,red,6102d892986a0f83785e2470,2021-09-27_15h07.54.259,forced_choiceRT_color,2021.2.3,Win32,29.97601918,,,,,,,,10,Ontime,long,j,1,1.994,3,0,12,2,1,,,,,
,1.4,,,,,,,,,k,purple,6102d892986a0f83785e2470,2021-09-27_15h07.54.259,forced_choiceRT_color,2021.2.3,Win32,29.97601918,,,,,,,,10,Ontime,long,k,1,2.096,3,1,13,3,1,,,,,
,1.97,,,,,,,,,k,purple,6102d892986a0f83785e2470,2021-09-27_15h07.54.259,forced_choiceRT_color,2021.2.3,Win32,29.97601918,,,,,,,,10,Ontime,long,k,1,2.033,3,2,14,3,1,,,,,
,0.1,,,,,,,,,f,blue,6102d892986a0f83785e2470,2021-09-27_15h07.54.259,forced_choiceRT_color,2021.2.3,Win32,29.97601918,,,,,,,,10,Ontime,long,f,1,1.953,3,3,15,1,1,,,,,
,0.34,,,,,,,,,d,orange,6102d892986a0f83785e2470,2021-09-27_15h07.54.259,forced_choiceRT_color,2021.2.3,Win32,29.97601918,,,,,,,,10,Fast,long,d,1,1.899,4,0,16,0,1,,,,,
,0.55,,,,,,,,,j,red,6102d892986a0f83785e2470,2021-09-27_15h07.54.259,forced_choiceRT_color,2021.2.3,Win32,29.97601918,,,,,,,,10,Ontime,long,j,1,2.033,4,1,17,2,1,,,,,
,1.96,,,,,,,,,j,red,6102d892986a0f83785e2470,2021-09-27_15h07.54.259,forced_choiceRT_color,2021.2.3,Win32,29.97601918,,,,,,,,10,Ontime,long,f,0,2.005,4,2,18,2,1,,,,,
,1.44,,,,,,,,,f,blue,6102d892986a0f83785e2470,2021-09-27_15h07.54.259,forced_choiceRT_color,2021.2.3,Win32,29.97601918,,,,,,,,10,Ontime,long,f,1,2.01,4,3,19,1,1,,,,,
,0.25,,,,,,,,,k,purple,6102d892986a0f83785e2470,2021-09-27_15h07.54.259,forced_choiceRT_color,2021.2.3,Win32,29.97601918,,,,,,,,10,Slow,long,k,1,2.104,5,0,20,3,1,,,,,
,1.9,,,,,,,,,k,purple,6102d892986a0f83785e2470,2021-09-27_15h07.54.259,forced_choiceRT_color,2021.2.3,Win32,29.97601918,,,,,,,,10,Ontime,long,j,0,2.039,5,1,21,3,1,,,,,
,0.1,,,,,,,,,f,blue,6102d892986a0f83785e2470,2021-09-27_15h07.54.259,forced_choiceRT_color,2021.2.3,Win32,29.97601918,,,,,,,,10,Ontime,long,f,1,1.938,5,2,22,1,1,,,,,
,1.39,,,,,,,,,f,blue,6102d892986a0f83785e2470,2021-09-27_15h07.54.259,forced_choiceRT_color,2021.2.3,Win32,29.97601918,,,,,,,,10,Ontime,long,f,1,2.076,5,3,23,1,1,,,,,
,1.51,,,,,,,,,d,orange,6102d892986a0f83785e2470,2021-09-27_15h07.54.259,forced_choiceRT_color,2021.2.3,Win32,29.97601918,,,,,,,,10,Slow,long,d,1,2.206,6,0,24,0,1,,,,,
,0.27,,,,,,,,,d,orange,6102d892986a0f83785e2470,2021-09-27_15h07.54.259,forced_choiceRT_color,2021.2.3,Win32,29.97601918,,,,,,,,10,Ontime,long,d,1,2.035,6,1,25,0,1,,,,,
,0.08,,,,,,,,,j,red,6102d892986a0f83785e2470,2021-09-27_15h07.54.259,forced_choiceRT_color,2021.2.3,Win32,29.97601918,,,,,,,,10,Ontime,long,j,1,1.99,6,2,26,2,1,,,,,
,0.73,,,,,,,,,d,orange,6102d892986a0f83785e2470,2021-09-27_15h07.54.259,forced_choiceRT_color,2021.2.3,Win32,29.97601918,,,,,,,,10,Ontime,long,d,1,2.021,6,3,27,0,1,,,,,
,0.52,,,,,,,,,j,red,6102d892986a0f83785e2470,2021-09-27_15h07.54.259,forced_choiceRT_color,2021.2.3,Win32,29.97601918,,,,,,,,10,Ontime,long,j,1,2.051,7,0,28,2,1,,,,,
,1.65,,,,,,,,,k,purple,6102d892986a0f83785e2470,2021-09-27_15h07.54.259,forced_choiceRT_color,2021.2.3,Win32,29.97601918,,,,,,,,10,Slow,long,j,0,2.139,7,1,29,3,1,,,,,
,1.95,,,,,,,,,j,red,6102d892986a0f83785e2470,2021-09-27_15h07.54.259,forced_choiceRT_color,2021.2.3,Win32,29.97601918,,,,,,,,10,Ontime,long,k,0,2.004,7,2,30,2,1,,,,,
,0.05,,,,,,,,,k,purple,6102d892986a0f83785e2470,2021-09-27_15h07.54.259,forced_choiceRT_color,2021.2.3,Win32,29.97601918,,,,,,,,10,Ontime,long,k,1,2.012,7,3,31,3,1,,,,,
,1.31,,,,,,,,,j,red,6102d892986a0f83785e2470,2021-09-27_15h07.54.259,forced_choiceRT_color,2021.2.3,Win32,29.97601918,,,,,,,,10,Ontime,long,j,1,2.009,8,0,32,2,1,,,,,
,1.36,,,,,,,,,f,blue,6102d892986a0f83785e2470,2021-09-27_15h07.54.259,forced_choiceRT_color,2021.2.3,Win32,29.97601918,,,,,,,,10,Ontime,long,j,0,2.033,8,1,33,1,1,,,,,
,0.29,,,,,,,,,k,purple,6102d892986a0f83785e2470,2021-09-27_15h07.54.259,forced_choiceRT_color,2021.2.3,Win32,29.97601918,,,,,,,,10,Ontime,long,k,1,1.972,8,2,34,3,1,,,,,
,1.43,,,,,,,,,f,blue,6102d892986a0f83785e2470,2021-09-27_15h07.54.259,forced_choiceRT_color,2021.2.3,Win32,29.97601918,,,,,,,,10,Ontime,long,f,1,2.091,8,3,35,1,1,,,,,
,0.06,,,,,,,,,f,blue,6102d892986a0f83785e2470,2021-09-27_15h07.54.259,forced_choiceRT_color,2021.2.3,Win32,29.97601918,,,,,,,,10,Ontime,long,f,1,1.918,9,0,36,1,1,,,,,
,1.86,,,,,,,,,d,orange,6102d892986a0f83785e2470,2021-09-27_15h07.54.259,forced_choiceRT_color,2021.2.3,Win32,29.97601918,,,,,,,,10,Ontime,long,f,0,1.937,9,1,37,0,1,,,,,
,0.91,,,,,,,,,j,red,6102d892986a0f83785e2470,2021-09-27_15h07.54.259,forced_choiceRT_color,2021.2.3,Win32,29.97601918,,,,,,,,10,Fast,long,j,1,1.883,9,2,38,2,1,,,,,
,1.85,,,,,,,,,k,purple,6102d892986a0f83785e2470,2021-09-27_15h07.54.259,forced_choiceRT_color,2021.2.3,Win32,29.97601918,,,,,,,,10,Ontime,long,j,0,2.068,9,3,39,3,1,,,,,
,,,,,,,,,,,,6102d892986a0f83785e2470,2021-09-27_15h07.54.259,forced_choiceRT_color,2021.2.3,Win32,29.97601918,,,,,,,,,,,,,,,,,,,9,0,9,0,1
