IP_Addresss,target_onset,trial_resp_sp.keys,trial_resp_sp.corr,trial_resp_sp.rt,trials_train_loop.thisRepN,trials_train_loop.thisTrialN,trials_train_loop.thisN,trials_train_loop.thisIndex,trials_train_loop.ran,correct_key,color,participant,date,expName,psychopyVersion,OS,frameRate,trial_resp_timing.keys,trial_resp_timing.rt,trials_train_timing.thisRepN,trials_train_timing.thisTrialN,trials_train_timing.thisN,trials_train_timing.thisIndex,trials_train_timing.ran,block_id,ontime,feedback_cond,forcedRT_resp.keys,forcedRT_resp.corr,forcedRT_resp.rt,trials.thisRepN,trials.thisTrialN,trials.thisN,trials.thisIndex,trials.ran,blocks.thisRepN,blocks.thisTrialN,blocks.thisN,blocks.thisIndex,blocks.ran
172.100.91.221,0,k,1,1.16,0,0,0,3,1,k,purple,610711919fb0266145523caf,2021-11-03_11h50.58,forced_choiceRT_color,2021.2.3,MacIntel,55.55555556,,,,,,,,,,,,,,,,,,,,,,,
,0,f,1,0.828,0,1,1,1,1,f,blue,610711919fb0266145523caf,2021-11-03_11h50.58,forced_choiceRT_color,2021.2.3,MacIntel,55.55555556,,,,,,,,,,,,,,,,,,,,,,,
,0,k,1,0.538,0,2,2,3,1,k,purple,610711919fb0266145523caf,2021-11-03_11h50.58,forced_choiceRT_color,2021.2.3,MacIntel,55.55555556,,,,,,,,,,,,,,,,,,,,,,,
,0,k,1,0.485,0,3,3,3,1,k,purple,610711919fb0266145523caf,2021-11-03_11h50.58,forced_choiceRT_color,2021.2.3,MacIntel,55.55555556,,,,,,,,,,,,,,,,,,,,,,,
,0,j,1,0.63,1,0,4,2,1,j,red,610711919fb0266145523caf,2021-11-03_11h50.58,forced_choiceRT_color,2021.2.3,MacIntel,55.55555556,,,,,,,,,,,,,,,,,,,,,,,
,0,k,1,0.506,1,1,5,3,1,k,purple,610711919fb0266145523caf,2021-11-03_11h50.58,forced_choiceRT_color,2021.2.3,MacIntel,55.55555556,,,,,,,,,,,,,,,,,,,,,,,
,0,d,1,0.532,1,2,6,0,1,d,orange,610711919fb0266145523caf,2021-11-03_11h50.58,forced_choiceRT_color,2021.2.3,MacIntel,55.55555556,,,,,,,,,,,,,,,,,,,,,,,
,0,j,1,0.621,1,3,7,2,1,j,red,610711919fb0266145523caf,2021-11-03_11h50.58,forced_choiceRT_color,2021.2.3,MacIntel,55.55555556,,,,,,,,,,,,,,,,,,,,,,,
,0,k,1,0.474,2,0,8,3,1,k,purple,610711919fb0266145523caf,2021-11-03_11h50.58,forced_choiceRT_color,2021.2.3,MacIntel,55.55555556,,,,,,,,,,,,,,,,,,,,,,,
,0,f,1,0.598,2,1,9,1,1,f,blue,610711919fb0266145523caf,2021-11-03_11h50.58,forced_choiceRT_color,2021.2.3,MacIntel,55.55555556,,,,,,,,,,,,,,,,,,,,,,,
,0,d,1,0.547,2,2,10,0,1,d,orange,610711919fb0266145523caf,2021-11-03_11h50.58,forced_choiceRT_color,2021.2.3,MacIntel,55.55555556,,,,,,,,,,,,,,,,,,,,,,,
,0,k,1,0.499,2,3,11,3,1,k,purple,610711919fb0266145523caf,2021-11-03_11h50.58,forced_choiceRT_color,2021.2.3,MacIntel,55.55555556,,,,,,,,,,,,,,,,,,,,,,,
,0,j,1,0.646,3,0,12,2,1,j,red,610711919fb0266145523caf,2021-11-03_11h50.58,forced_choiceRT_color,2021.2.3,MacIntel,55.55555556,,,,,,,,,,,,,,,,,,,,,,,
,0,k,1,0.48,3,1,13,3,1,k,purple,610711919fb0266145523caf,2021-11-03_11h50.58,forced_choiceRT_color,2021.2.3,MacIntel,55.55555556,,,,,,,,,,,,,,,,,,,,,,,
,0,d,1,0.489,3,2,14,0,1,d,orange,610711919fb0266145523caf,2021-11-03_11h50.58,forced_choiceRT_color,2021.2.3,MacIntel,55.55555556,,,,,,,,,,,,,,,,,,,,,,,
,0,j,1,0.59,3,3,15,2,1,j,red,610711919fb0266145523caf,2021-11-03_11h50.58,forced_choiceRT_color,2021.2.3,MacIntel,55.55555556,,,,,,,,,,,,,,,,,,,,,,,
,0,k,1,0.484,4,0,16,3,1,k,purple,610711919fb0266145523caf,2021-11-03_11h50.58,forced_choiceRT_color,2021.2.3,MacIntel,55.55555556,,,,,,,,,,,,,,,,,,,,,,,
,0,d,1,0.486,4,1,17,0,1,d,orange,610711919fb0266145523caf,2021-11-03_11h50.58,forced_choiceRT_color,2021.2.3,MacIntel,55.55555556,,,,,,,,,,,,,,,,,,,,,,,
,0,j,1,0.56,4,2,18,2,1,j,red,610711919fb0266145523caf,2021-11-03_11h50.58,forced_choiceRT_color,2021.2.3,MacIntel,55.55555556,,,,,,,,,,,,,,,,,,,,,,,
,0,j,1,0.49,4,3,19,2,1,j,red,610711919fb0266145523caf,2021-11-03_11h50.58,forced_choiceRT_color,2021.2.3,MacIntel,55.55555556,,,,,,,,,,,,,,,,,,,,,,,
,0,d,1,0.538,5,0,20,0,1,d,orange,610711919fb0266145523caf,2021-11-03_11h50.58,forced_choiceRT_color,2021.2.3,MacIntel,55.55555556,,,,,,,,,,,,,,,,,,,,,,,
,0,f,1,0.515,5,1,21,1,1,f,blue,610711919fb0266145523caf,2021-11-03_11h50.58,forced_choiceRT_color,2021.2.3,MacIntel,55.55555556,,,,,,,,,,,,,,,,,,,,,,,
,0,j,1,0.492,5,2,22,2,1,j,red,610711919fb0266145523caf,2021-11-03_11h50.58,forced_choiceRT_color,2021.2.3,MacIntel,55.55555556,,,,,,,,,,,,,,,,,,,,,,,
,0,f,1,0.567,5,3,23,1,1,f,blue,610711919fb0266145523caf,2021-11-03_11h50.58,forced_choiceRT_color,2021.2.3,MacIntel,55.55555556,,,,,,,,,,,,,,,,,,,,,,,
,0,f,1,0.465,6,0,24,1,1,f,blue,610711919fb0266145523caf,2021-11-03_11h50.58,forced_choiceRT_color,2021.2.3,MacIntel,55.55555556,,,,,,,,,,,,,,,,,,,,,,,
,0,j,1,0.465,6,1,25,2,1,j,red,610711919fb0266145523caf,2021-11-03_11h50.58,forced_choiceRT_color,2021.2.3,MacIntel,55.55555556,,,,,,,,,,,,,,,,,,,,,,,
,0,d,1,0.364,6,2,26,0,1,d,orange,610711919fb0266145523caf,2021-11-03_11h50.58,forced_choiceRT_color,2021.2.3,MacIntel,55.55555556,,,,,,,,,,,,,,,,,,,,,,,
,0,f,1,0.555,6,3,27,1,1,f,blue,610711919fb0266145523caf,2021-11-03_11h50.58,forced_choiceRT_color,2021.2.3,MacIntel,55.55555556,,,,,,,,,,,,,,,,,,,,,,,
,0,f,1,0.419,7,0,28,1,1,f,blue,610711919fb0266145523caf,2021-11-03_11h50.58,forced_choiceRT_color,2021.2.3,MacIntel,55.55555556,,,,,,,,,,,,,,,,,,,,,,,
,0,d,1,0.447,7,1,29,0,1,d,orange,610711919fb0266145523caf,2021-11-03_11h50.58,forced_choiceRT_color,2021.2.3,MacIntel,55.55555556,,,,,,,,,,,,,,,,,,,,,,,
,0,d,1,0.435,7,2,30,0,1,d,orange,610711919fb0266145523caf,2021-11-03_11h50.58,forced_choiceRT_color,2021.2.3,MacIntel,55.55555556,,,,,,,,,,,,,,,,,,,,,,,
,0,f,1,0.44,7,3,31,1,1,f,blue,610711919fb0266145523caf,2021-11-03_11h50.58,forced_choiceRT_color,2021.2.3,MacIntel,55.55555556,,,,,,,,,,,,,,,,,,,,,,,
,0,j,1,0.565,8,0,32,2,1,j,red,610711919fb0266145523caf,2021-11-03_11h50.58,forced_choiceRT_color,2021.2.3,MacIntel,55.55555556,,,,,,,,,,,,,,,,,,,,,,,
,0,f,1,0.474,8,1,33,1,1,f,blue,610711919fb0266145523caf,2021-11-03_11h50.58,forced_choiceRT_color,2021.2.3,MacIntel,55.55555556,,,,,,,,,,,,,,,,,,,,,,,
,0,f,1,0.465,8,2,34,1,1,f,blue,610711919fb0266145523caf,2021-11-03_11h50.58,forced_choiceRT_color,2021.2.3,MacIntel,55.55555556,,,,,,,,,,,,,,,,,,,,,,,
,0,d,1,0.465,8,3,35,0,1,d,orange,610711919fb0266145523caf,2021-11-03_11h50.58,forced_choiceRT_color,2021.2.3,MacIntel,55.55555556,,,,,,,,,,,,,,,,,,,,,,,
,0,d,1,0.501,9,0,36,0,1,d,orange,610711919fb0266145523caf,2021-11-03_11h50.58,forced_choiceRT_color,2021.2.3,MacIntel,55.55555556,,,,,,,,,,,,,,,,,,,,,,,
,0,k,1,0.48,9,1,37,3,1,k,purple,610711919fb0266145523caf,2021-11-03_11h50.58,forced_choiceRT_color,2021.2.3,MacIntel,55.55555556,,,,,,,,,,,,,,,,,,,,,,,
,0,f,1,0.423,9,2,38,1,1,f,blue,610711919fb0266145523caf,2021-11-03_11h50.58,forced_choiceRT_color,2021.2.3,MacIntel,55.55555556,,,,,,,,,,,,,,,,,,,,,,,
,0,j,1,0.533,9,3,39,2,1,j,red,610711919fb0266145523caf,2021-11-03_11h50.58,forced_choiceRT_color,2021.2.3,MacIntel,55.55555556,,,,,,,,,,,,,,,,,,,,,,,
,0,d,0,0.438,10,0,40,1,1,f,blue,610711919fb0266145523caf,2021-11-03_11h50.58,forced_choiceRT_color,2021.2.3,MacIntel,55.55555556,,,,,,,,,,,,,,,,,,,,,,,
,0,k,1,0.554,10,1,41,3,1,k,purple,610711919fb0266145523caf,2021-11-03_11h50.58,forced_choiceRT_color,2021.2.3,MacIntel,55.55555556,,,,,,,,,,,,,,,,,,,,,,,
,0,k,1,0.499,10,2,42,3,1,k,purple,610711919fb0266145523caf,2021-11-03_11h50.58,forced_choiceRT_color,2021.2.3,MacIntel,55.55555556,,,,,,,,,,,,,,,,,,,,,,,
,0,d,1,0.49,10,3,43,0,1,d,orange,610711919fb0266145523caf,2021-11-03_11h50.58,forced_choiceRT_color,2021.2.3,MacIntel,55.55555556,,,,,,,,,,,,,,,,,,,,,,,
,0,j,1,0.541,11,0,44,2,1,j,red,610711919fb0266145523caf,2021-11-03_11h50.58,forced_choiceRT_color,2021.2.3,MacIntel,55.55555556,,,,,,,,,,,,,,,,,,,,,,,
,0,j,1,0.432,11,1,45,2,1,j,red,610711919fb0266145523caf,2021-11-03_11h50.58,forced_choiceRT_color,2021.2.3,MacIntel,55.55555556,,,,,,,,,,,,,,,,,,,,,,,
,0,d,1,0.53,11,2,46,0,1,d,orange,610711919fb0266145523caf,2021-11-03_11h50.58,forced_choiceRT_color,2021.2.3,MacIntel,55.55555556,,,,,,,,,,,,,,,,,,,,,,,
,0,k,1,0.45,11,3,47,3,1,k,purple,610711919fb0266145523caf,2021-11-03_11h50.58,forced_choiceRT_color,2021.2.3,MacIntel,55.55555556,,,,,,,,,,,,,,,,,,,,,,,
,0,k,1,0.367,12,0,48,3,1,k,purple,610711919fb0266145523caf,2021-11-03_11h50.58,forced_choiceRT_color,2021.2.3,MacIntel,55.55555556,,,,,,,,,,,,,,,,,,,,,,,
,0,f,0,0.446,12,1,49,0,1,d,orange,610711919fb0266145523caf,2021-11-03_11h50.58,forced_choiceRT_color,2021.2.3,MacIntel,55.55555556,,,,,,,,,,,,,,,,,,,,,,,
,0,j,1,0.559,12,2,50,2,1,j,red,610711919fb0266145523caf,2021-11-03_11h50.58,forced_choiceRT_color,2021.2.3,MacIntel,55.55555556,,,,,,,,,,,,,,,,,,,,,,,
,0,d,1,0.415,12,3,51,0,1,d,orange,610711919fb0266145523caf,2021-11-03_11h50.58,forced_choiceRT_color,2021.2.3,MacIntel,55.55555556,,,,,,,,,,,,,,,,,,,,,,,
,0,j,1,0.492,13,0,52,2,1,j,red,610711919fb0266145523caf,2021-11-03_11h50.58,forced_choiceRT_color,2021.2.3,MacIntel,55.55555556,,,,,,,,,,,,,,,,,,,,,,,
,0,d,1,0.481,13,1,53,0,1,d,orange,610711919fb0266145523caf,2021-11-03_11h50.58,forced_choiceRT_color,2021.2.3,MacIntel,55.55555556,,,,,,,,,,,,,,,,,,,,,,,
,0,k,1,0.449,13,2,54,3,1,k,purple,610711919fb0266145523caf,2021-11-03_11h50.58,forced_choiceRT_color,2021.2.3,MacIntel,55.55555556,,,,,,,,,,,,,,,,,,,,,,,
,0,f,0,0.469,13,3,55,2,1,j,red,610711919fb0266145523caf,2021-11-03_11h50.58,forced_choiceRT_color,2021.2.3,MacIntel,55.55555556,,,,,,,,,,,,,,,,,,,,,,,
,0,f,1,0.656,14,0,56,1,1,f,blue,610711919fb0266145523caf,2021-11-03_11h50.58,forced_choiceRT_color,2021.2.3,MacIntel,55.55555556,,,,,,,,,,,,,,,,,,,,,,,
,0,f,1,0.469,14,1,57,1,1,f,blue,610711919fb0266145523caf,2021-11-03_11h50.58,forced_choiceRT_color,2021.2.3,MacIntel,55.55555556,,,,,,,,,,,,,,,,,,,,,,,
,0,f,1,0.44,14,2,58,1,1,f,blue,610711919fb0266145523caf,2021-11-03_11h50.58,forced_choiceRT_color,2021.2.3,MacIntel,55.55555556,,,,,,,,,,,,,,,,,,,,,,,
,0,k,1,0.499,14,3,59,3,1,k,purple,610711919fb0266145523caf,2021-11-03_11h50.58,forced_choiceRT_color,2021.2.3,MacIntel,55.55555556,,,,,,,,,,,,,,,,,,,,,,,
,,,,,,,,,,,,610711919fb0266145523caf,2021-11-03_11h50.58,forced_choiceRT_color,2021.2.3,MacIntel,55.55555556,j,2.307,0,0,0,0,1,,,,,,,,,,,,,,,,
,,,,,,,,,,,,610711919fb0266145523caf,2021-11-03_11h50.58,forced_choiceRT_color,2021.2.3,MacIntel,55.55555556,j,2.173,1,0,1,0,1,,,,,,,,,,,,,,,,
,,,,,,,,,,,,610711919fb0266145523caf,2021-11-03_11h50.58,forced_choiceRT_color,2021.2.3,MacIntel,55.55555556,j,1.904,2,0,2,0,1,,,,,,,,,,,,,,,,
,,,,,,,,,,,,610711919fb0266145523caf,2021-11-03_11h50.58,forced_choiceRT_color,2021.2.3,MacIntel,55.55555556,j,1.917,3,0,3,0,1,,,,,,,,,,,,,,,,
,,,,,,,,,,,,610711919fb0266145523caf,2021-11-03_11h50.58,forced_choiceRT_color,2021.2.3,MacIntel,55.55555556,j,1.931,4,0,4,0,1,,,,,,,,,,,,,,,,
,,,,,,,,,,,,610711919fb0266145523caf,2021-11-03_11h50.58,forced_choiceRT_color,2021.2.3,MacIntel,55.55555556,f,1.814,5,0,5,0,1,,,,,,,,,,,,,,,,
,,,,,,,,,,,,610711919fb0266145523caf,2021-11-03_11h50.58,forced_choiceRT_color,2021.2.3,MacIntel,55.55555556,f,1.928,6,0,6,0,1,,,,,,,,,,,,,,,,
,,,,,,,,,,,,610711919fb0266145523caf,2021-11-03_11h50.58,forced_choiceRT_color,2021.2.3,MacIntel,55.55555556,f,1.946,7,0,7,0,1,,,,,,,,,,,,,,,,
,,,,,,,,,,,,610711919fb0266145523caf,2021-11-03_11h50.58,forced_choiceRT_color,2021.2.3,MacIntel,55.55555556,j,1.613,8,0,8,0,1,,,,,,,,,,,,,,,,
,,,,,,,,,,,,610711919fb0266145523caf,2021-11-03_11h50.58,forced_choiceRT_color,2021.2.3,MacIntel,55.55555556,j,1.996,9,0,9,0,1,,,,,,,,,,,,,,,,
,,,,,,,,,,,,610711919fb0266145523caf,2021-11-03_11h50.58,forced_choiceRT_color,2021.2.3,MacIntel,55.55555556,f,1.957,10,0,10,0,1,,,,,,,,,,,,,,,,
,,,,,,,,,,,,610711919fb0266145523caf,2021-11-03_11h50.58,forced_choiceRT_color,2021.2.3,MacIntel,55.55555556,k,1.88,11,0,11,0,1,,,,,,,,,,,,,,,,
,,,,,,,,,,,,610711919fb0266145523caf,2021-11-03_11h50.58,forced_choiceRT_color,2021.2.3,MacIntel,55.55555556,d,1.814,12,0,12,0,1,,,,,,,,,,,,,,,,
,,,,,,,,,,,,610711919fb0266145523caf,2021-11-03_11h50.58,forced_choiceRT_color,2021.2.3,MacIntel,55.55555556,k,1.935,13,0,13,0,1,,,,,,,,,,,,,,,,
,,,,,,,,,,,,610711919fb0266145523caf,2021-11-03_11h50.58,forced_choiceRT_color,2021.2.3,MacIntel,55.55555556,d,2.274,14,0,14,0,1,,,,,,,,,,,,,,,,
,,,,,,,,,,,,610711919fb0266145523caf,2021-11-03_11h50.58,forced_choiceRT_color,2021.2.3,MacIntel,55.55555556,d,1.953,15,0,15,0,1,,,,,,,,,,,,,,,,
,,,,,,,,,,,,610711919fb0266145523caf,2021-11-03_11h50.58,forced_choiceRT_color,2021.2.3,MacIntel,55.55555556,j,1.917,16,0,16,0,1,,,,,,,,,,,,,,,,
,,,,,,,,,,,,610711919fb0266145523caf,2021-11-03_11h50.58,forced_choiceRT_color,2021.2.3,MacIntel,55.55555556,f,1.912,17,0,17,0,1,,,,,,,,,,,,,,,,
,,,,,,,,,,,,610711919fb0266145523caf,2021-11-03_11h50.58,forced_choiceRT_color,2021.2.3,MacIntel,55.55555556,k,1.965,18,0,18,0,1,,,,,,,,,,,,,,,,
,,,,,,,,,,,,610711919fb0266145523caf,2021-11-03_11h50.58,forced_choiceRT_color,2021.2.3,MacIntel,55.55555556,d,1.991,19,0,19,0,1,,,,,,,,,,,,,,,,
,1.02,,,,,,,,,k,purple,610711919fb0266145523caf,2021-11-03_11h50.58,forced_choiceRT_color,2021.2.3,MacIntel,55.55555556,,,,,,,,1,Ontime,long,j,0,2.048,0,0,0,3,1,,,,,
,1.24,,,,,,,,,f,blue,610711919fb0266145523caf,2021-11-03_11h50.58,forced_choiceRT_color,2021.2.3,MacIntel,55.55555556,,,,,,,,1,Slow,long,f,1,2.204,0,1,1,1,1,,,,,
,1.24,,,,,,,,,j,red,610711919fb0266145523caf,2021-11-03_11h50.58,forced_choiceRT_color,2021.2.3,MacIntel,55.55555556,,,,,,,,1,Slow,long,f,0,2.144,0,2,2,2,1,,,,,
,1.17,,,,,,,,,k,purple,610711919fb0266145523caf,2021-11-03_11h50.58,forced_choiceRT_color,2021.2.3,MacIntel,55.55555556,,,,,,,,1,Slow,long,k,1,2.255,0,3,3,3,1,,,,,
,1.36,,,,,,,,,d,orange,610711919fb0266145523caf,2021-11-03_11h50.58,forced_choiceRT_color,2021.2.3,MacIntel,55.55555556,,,,,,,,1,Slow,long,d,1,2.162,1,0,4,0,1,,,,,
,1.56,,,,,,,,,j,red,610711919fb0266145523caf,2021-11-03_11h50.58,forced_choiceRT_color,2021.2.3,MacIntel,55.55555556,,,,,,,,1,Ontime,long,k,0,2.057,1,1,5,2,1,,,,,
,1.23,,,,,,,,,j,red,610711919fb0266145523caf,2021-11-03_11h50.58,forced_choiceRT_color,2021.2.3,MacIntel,55.55555556,,,,,,,,1,Ontime,long,j,1,2.058,1,2,6,2,1,,,,,
,1.13,,,,,,,,,j,red,610711919fb0266145523caf,2021-11-03_11h50.58,forced_choiceRT_color,2021.2.3,MacIntel,55.55555556,,,,,,,,1,Fast,long,j,1,1.8,1,3,7,2,1,,,,,
,0.5,,,,,,,,,k,purple,610711919fb0266145523caf,2021-11-03_11h50.58,forced_choiceRT_color,2021.2.3,MacIntel,55.55555556,,,,,,,,1,Ontime,long,k,1,2.037,2,0,8,3,1,,,,,
,0.43,,,,,,,,,d,orange,610711919fb0266145523caf,2021-11-03_11h50.58,forced_choiceRT_color,2021.2.3,MacIntel,55.55555556,,,,,,,,1,Ontime,long,d,1,1.981,2,1,9,0,1,,,,,
,1.75,,,,,,,,,f,blue,610711919fb0266145523caf,2021-11-03_11h50.58,forced_choiceRT_color,2021.2.3,MacIntel,55.55555556,,,,,,,,1,Slow,long,j,0,2.183,2,2,10,1,1,,,,,
,0.07,,,,,,,,,f,blue,610711919fb0266145523caf,2021-11-03_11h50.58,forced_choiceRT_color,2021.2.3,MacIntel,55.55555556,,,,,,,,1,Fast,long,f,1,1.741,2,3,11,1,1,,,,,
,1.91,,,,,,,,,d,orange,610711919fb0266145523caf,2021-11-03_11h50.58,forced_choiceRT_color,2021.2.3,MacIntel,55.55555556,,,,,,,,1,Slow,long,j,0,2.205,3,0,12,0,1,,,,,
,1.85,,,,,,,,,j,red,610711919fb0266145523caf,2021-11-03_11h50.58,forced_choiceRT_color,2021.2.3,MacIntel,55.55555556,,,,,,,,1,Slow,long,d,0,2.22,3,1,13,2,1,,,,,
,0.08,,,,,,,,,j,red,610711919fb0266145523caf,2021-11-03_11h50.58,forced_choiceRT_color,2021.2.3,MacIntel,55.55555556,,,,,,,,1,Ontime,long,j,1,2.003,3,2,14,2,1,,,,,
,1.53,,,,,,,,,d,orange,610711919fb0266145523caf,2021-11-03_11h50.58,forced_choiceRT_color,2021.2.3,MacIntel,55.55555556,,,,,,,,1,Fast,long,d,1,1.819,3,3,15,0,1,,,,,
,1.17,,,,,,,,,f,blue,610711919fb0266145523caf,2021-11-03_11h50.58,forced_choiceRT_color,2021.2.3,MacIntel,55.55555556,,,,,,,,1,Fast,long,f,1,1.872,4,0,16,1,1,,,,,
,1.13,,,,,,,,,f,blue,610711919fb0266145523caf,2021-11-03_11h50.58,forced_choiceRT_color,2021.2.3,MacIntel,55.55555556,,,,,,,,1,Ontime,long,f,1,2.028,4,1,17,1,1,,,,,
,0.87,,,,,,,,,d,orange,610711919fb0266145523caf,2021-11-03_11h50.58,forced_choiceRT_color,2021.2.3,MacIntel,55.55555556,,,,,,,,1,Ontime,long,d,1,1.938,4,2,18,0,1,,,,,
,0.29,,,,,,,,,f,blue,610711919fb0266145523caf,2021-11-03_11h50.58,forced_choiceRT_color,2021.2.3,MacIntel,55.55555556,,,,,,,,1,Fast,long,f,1,1.886,4,3,19,1,1,,,,,
,1.29,,,,,,,,,j,red,610711919fb0266145523caf,2021-11-03_11h50.58,forced_choiceRT_color,2021.2.3,MacIntel,55.55555556,,,,,,,,1,Ontime,long,j,1,2.039,5,0,20,2,1,,,,,
,0.82,,,,,,,,,k,purple,610711919fb0266145523caf,2021-11-03_11h50.58,forced_choiceRT_color,2021.2.3,MacIntel,55.55555556,,,,,,,,1,Ontime,long,k,1,1.991,5,1,21,3,1,,,,,
,0.19,,,,,,,,,k,purple,610711919fb0266145523caf,2021-11-03_11h50.58,forced_choiceRT_color,2021.2.3,MacIntel,55.55555556,,,,,,,,1,Ontime,long,k,1,1.97,5,2,22,3,1,,,,,
,1.42,,,,,,,,,d,orange,610711919fb0266145523caf,2021-11-03_11h50.58,forced_choiceRT_color,2021.2.3,MacIntel,55.55555556,,,,,,,,1,Slow,long,d,1,2.13,5,3,23,0,1,,,,,
,1.91,,,,,,,,,f,blue,610711919fb0266145523caf,2021-11-03_11h50.58,forced_choiceRT_color,2021.2.3,MacIntel,55.55555556,,,,,,,,1,Slow,long,f,1,2.227,6,0,24,1,1,,,,,
,1.43,,,,,,,,,k,purple,610711919fb0266145523caf,2021-11-03_11h50.58,forced_choiceRT_color,2021.2.3,MacIntel,55.55555556,,,,,,,,1,Ontime,long,j,0,2.033,6,1,25,3,1,,,,,
,1.26,,,,,,,,,k,purple,610711919fb0266145523caf,2021-11-03_11h50.58,forced_choiceRT_color,2021.2.3,MacIntel,55.55555556,,,,,,,,1,Fast,long,j,0,1.762,6,2,26,3,1,,,,,
,0.08,,,,,,,,,d,orange,610711919fb0266145523caf,2021-11-03_11h50.58,forced_choiceRT_color,2021.2.3,MacIntel,55.55555556,,,,,,,,1,Ontime,long,d,1,1.92,6,3,27,0,1,,,,,
,0.37,,,,,,,,,k,purple,610711919fb0266145523caf,2021-11-03_11h50.58,forced_choiceRT_color,2021.2.3,MacIntel,55.55555556,,,,,,,,1,Slow,long,k,1,2.171,7,0,28,3,1,,,,,
,1.3,,,,,,,,,f,blue,610711919fb0266145523caf,2021-11-03_11h50.58,forced_choiceRT_color,2021.2.3,MacIntel,55.55555556,,,,,,,,1,Ontime,long,f,1,2.098,7,1,29,1,1,,,,,
,0.38,,,,,,,,,f,blue,610711919fb0266145523caf,2021-11-03_11h50.58,forced_choiceRT_color,2021.2.3,MacIntel,55.55555556,,,,,,,,1,Ontime,long,f,1,2.008,7,2,30,1,1,,,,,
,1.37,,,,,,,,,d,orange,610711919fb0266145523caf,2021-11-03_11h50.58,forced_choiceRT_color,2021.2.3,MacIntel,55.55555556,,,,,,,,1,Ontime,long,d,1,1.936,7,3,31,0,1,,,,,
,1.96,,,,,,,,,j,red,610711919fb0266145523caf,2021-11-03_11h50.58,forced_choiceRT_color,2021.2.3,MacIntel,55.55555556,,,,,,,,1,Slow,long,k,0,2.478,8,0,32,2,1,,,,,
,1.65,,,,,,,,,d,orange,610711919fb0266145523caf,2021-11-03_11h50.58,forced_choiceRT_color,2021.2.3,MacIntel,55.55555556,,,,,,,,1,Slow,long,d,1,2.207,8,1,33,0,1,,,,,
,0.26,,,,,,,,,k,purple,610711919fb0266145523caf,2021-11-03_11h50.58,forced_choiceRT_color,2021.2.3,MacIntel,55.55555556,,,,,,,,1,Ontime,long,k,1,1.941,8,2,34,3,1,,,,,
,1.75,,,,,,,,,k,purple,610711919fb0266145523caf,2021-11-03_11h50.58,forced_choiceRT_color,2021.2.3,MacIntel,55.55555556,,,,,,,,1,Slow,long,k,1,2.169,8,3,35,3,1,,,,,
,1.63,,,,,,,,,f,blue,610711919fb0266145523caf,2021-11-03_11h50.58,forced_choiceRT_color,2021.2.3,MacIntel,55.55555556,,,,,,,,1,Ontime,long,f,1,2.073,9,0,36,1,1,,,,,
,1.62,,,,,,,,,j,red,610711919fb0266145523caf,2021-11-03_11h50.58,forced_choiceRT_color,2021.2.3,MacIntel,55.55555556,,,,,,,,1,Slow,long,j,1,2.28,9,1,37,2,1,,,,,
,0.34,,,,,,,,,d,orange,610711919fb0266145523caf,2021-11-03_11h50.58,forced_choiceRT_color,2021.2.3,MacIntel,55.55555556,,,,,,,,1,Fast,long,d,1,1.82,9,2,38,0,1,,,,,
,0.13,,,,,,,,,j,red,610711919fb0266145523caf,2021-11-03_11h50.58,forced_choiceRT_color,2021.2.3,MacIntel,55.55555556,,,,,,,,1,Ontime,long,j,1,2.047,9,3,39,2,1,,,,,
,,,,,,,,,,,,610711919fb0266145523caf,2021-11-03_11h50.58,forced_choiceRT_color,2021.2.3,MacIntel,55.55555556,,,,,,,,,,,,,,,,,,,0,0,0,0,1
,1.41,,,,,,,,,f,blue,610711919fb0266145523caf,2021-11-03_11h50.58,forced_choiceRT_color,2021.2.3,MacIntel,55.55555556,,,,,,,,2,Ontime,long,j,0,1.948,0,0,0,1,1,,,,,
,1.52,,,,,,,,,f,blue,610711919fb0266145523caf,2021-11-03_11h50.58,forced_choiceRT_color,2021.2.3,MacIntel,55.55555556,,,,,,,,2,Ontime,long,j,0,2.081,0,1,1,1,1,,,,,
,1.05,,,,,,,,,k,purple,610711919fb0266145523caf,2021-11-03_11h50.58,forced_choiceRT_color,2021.2.3,MacIntel,55.55555556,,,,,,,,2,Ontime,long,k,1,1.902,0,2,2,3,1,,,,,
,1.95,,,,,,,,,d,orange,610711919fb0266145523caf,2021-11-03_11h50.58,forced_choiceRT_color,2021.2.3,MacIntel,55.55555556,,,,,,,,2,Slow,long,f,0,2.227,0,3,3,0,1,,,,,
,0.61,,,,,,,,,j,red,610711919fb0266145523caf,2021-11-03_11h50.58,forced_choiceRT_color,2021.2.3,MacIntel,55.55555556,,,,,,,,2,Fast,long,k,0,1.896,1,0,4,2,1,,,,,
,0.33,,,,,,,,,k,purple,610711919fb0266145523caf,2021-11-03_11h50.58,forced_choiceRT_color,2021.2.3,MacIntel,55.55555556,,,,,,,,2,Ontime,long,k,1,2.027,1,1,5,3,1,,,,,
,0.92,,,,,,,,,j,red,610711919fb0266145523caf,2021-11-03_11h50.58,forced_choiceRT_color,2021.2.3,MacIntel,55.55555556,,,,,,,,2,Slow,long,j,1,2.113,1,2,6,2,1,,,,,
,0.72,,,,,,,,,d,orange,610711919fb0266145523caf,2021-11-03_11h50.58,forced_choiceRT_color,2021.2.3,MacIntel,55.55555556,,,,,,,,2,Ontime,long,d,1,2.029,1,3,7,0,1,,,,,
,1.52,,,,,,,,,f,blue,610711919fb0266145523caf,2021-11-03_11h50.58,forced_choiceRT_color,2021.2.3,MacIntel,55.55555556,,,,,,,,2,Ontime,long,f,1,2.003,2,0,8,1,1,,,,,
,0.96,,,,,,,,,j,red,610711919fb0266145523caf,2021-11-03_11h50.58,forced_choiceRT_color,2021.2.3,MacIntel,55.55555556,,,,,,,,2,Slow,long,j,1,2.138,2,1,9,2,1,,,,,
,0.37,,,,,,,,,j,red,610711919fb0266145523caf,2021-11-03_11h50.58,forced_choiceRT_color,2021.2.3,MacIntel,55.55555556,,,,,,,,2,Fast,long,j,1,1.828,2,2,10,2,1,,,,,
,0.11,,,,,,,,,f,blue,610711919fb0266145523caf,2021-11-03_11h50.58,forced_choiceRT_color,2021.2.3,MacIntel,55.55555556,,,,,,,,2,Fast,long,f,1,1.73,2,3,11,1,1,,,,,
,1.57,,,,,,,,,j,red,610711919fb0266145523caf,2021-11-03_11h50.58,forced_choiceRT_color,2021.2.3,MacIntel,55.55555556,,,,,,,,2,Slow,long,f,0,2.186,3,0,12,2,1,,,,,
,0.9,,,,,,,,,k,purple,610711919fb0266145523caf,2021-11-03_11h50.58,forced_choiceRT_color,2021.2.3,MacIntel,55.55555556,,,,,,,,2,Slow,long,k,1,2.153,3,1,13,3,1,,,,,
,1.12,,,,,,,,,k,purple,610711919fb0266145523caf,2021-11-03_11h50.58,forced_choiceRT_color,2021.2.3,MacIntel,55.55555556,,,,,,,,2,Ontime,long,k,1,2.087,3,2,14,3,1,,,,,
,0.92,,,,,,,,,f,blue,610711919fb0266145523caf,2021-11-03_11h50.58,forced_choiceRT_color,2021.2.3,MacIntel,55.55555556,,,,,,,,2,Slow,long,f,1,2.123,3,3,15,1,1,,,,,
,1.07,,,,,,,,,k,purple,610711919fb0266145523caf,2021-11-03_11h50.58,forced_choiceRT_color,2021.2.3,MacIntel,55.55555556,,,,,,,,2,Ontime,long,k,1,2.096,4,0,16,3,1,,,,,
,0.95,,,,,,,,,k,purple,610711919fb0266145523caf,2021-11-03_11h50.58,forced_choiceRT_color,2021.2.3,MacIntel,55.55555556,,,,,,,,2,Ontime,long,k,1,1.994,4,1,17,3,1,,,,,
,0.17,,,,,,,,,f,blue,610711919fb0266145523caf,2021-11-03_11h50.58,forced_choiceRT_color,2021.2.3,MacIntel,55.55555556,,,,,,,,2,Ontime,long,f,1,1.912,4,2,18,1,1,,,,,
,0.48,,,,,,,,,k,purple,610711919fb0266145523caf,2021-11-03_11h50.58,forced_choiceRT_color,2021.2.3,MacIntel,55.55555556,,,,,,,,2,Slow,long,k,1,2.131,4,3,19,3,1,,,,,
,0.81,,,,,,,,,d,orange,610711919fb0266145523caf,2021-11-03_11h50.58,forced_choiceRT_color,2021.2.3,MacIntel,55.55555556,,,,,,,,2,Fast,long,d,1,1.887,5,0,20,0,1,,,,,
,1.74,,,,,,,,,f,blue,610711919fb0266145523caf,2021-11-03_11h50.58,forced_choiceRT_color,2021.2.3,MacIntel,55.55555556,,,,,,,,2,Slow,long,k,0,2.121,5,1,21,1,1,,,,,
,0.4,,,,,,,,,d,orange,610711919fb0266145523caf,2021-11-03_11h50.58,forced_choiceRT_color,2021.2.3,MacIntel,55.55555556,,,,,,,,2,Ontime,long,d,1,1.997,5,2,22,0,1,,,,,
,1.35,,,,,,,,,d,orange,610711919fb0266145523caf,2021-11-03_11h50.58,forced_choiceRT_color,2021.2.3,MacIntel,55.55555556,,,,,,,,2,Ontime,long,d,1,2.098,5,3,23,0,1,,,,,
,0.62,,,,,,,,,j,red,610711919fb0266145523caf,2021-11-03_11h50.58,forced_choiceRT_color,2021.2.3,MacIntel,55.55555556,,,,,,,,2,Ontime,long,j,1,2.095,6,0,24,2,1,,,,,
,1.98,,,,,,,,,d,orange,610711919fb0266145523caf,2021-11-03_11h50.58,forced_choiceRT_color,2021.2.3,MacIntel,55.55555556,,,,,,,,2,Slow,long,d,1,2.227,6,1,25,0,1,,,,,
,1.53,,,,,,,,,j,red,610711919fb0266145523caf,2021-11-03_11h50.58,forced_choiceRT_color,2021.2.3,MacIntel,55.55555556,,,,,,,,2,Slow,long,f,0,2.139,6,2,26,2,1,,,,,
,1.21,,,,,,,,,f,blue,610711919fb0266145523caf,2021-11-03_11h50.58,forced_choiceRT_color,2021.2.3,MacIntel,55.55555556,,,,,,,,2,Slow,long,f,1,2.146,6,3,27,1,1,,,,,
,0.19,,,,,,,,,k,purple,610711919fb0266145523caf,2021-11-03_11h50.58,forced_choiceRT_color,2021.2.3,MacIntel,55.55555556,,,,,,,,2,Ontime,long,k,1,2.028,7,0,28,3,1,,,,,
,0.87,,,,,,,,,d,orange,610711919fb0266145523caf,2021-11-03_11h50.58,forced_choiceRT_color,2021.2.3,MacIntel,55.55555556,,,,,,,,2,Ontime,long,d,1,2.045,7,1,29,0,1,,,,,
,0.75,,,,,,,,,k,purple,610711919fb0266145523caf,2021-11-03_11h50.58,forced_choiceRT_color,2021.2.3,MacIntel,55.55555556,,,,,,,,2,Ontime,long,k,1,2.065,7,2,30,3,1,,,,,
,0.96,,,,,,,,,d,orange,610711919fb0266145523caf,2021-11-03_11h50.58,forced_choiceRT_color,2021.2.3,MacIntel,55.55555556,,,,,,,,2,Fast,long,d,1,1.826,7,3,31,0,1,,,,,
,1.22,,,,,,,,,d,orange,610711919fb0266145523caf,2021-11-03_11h50.58,forced_choiceRT_color,2021.2.3,MacIntel,55.55555556,,,,,,,,2,Ontime,long,d,1,2.007,8,0,32,0,1,,,,,
,1.48,,,,,,,,,d,orange,610711919fb0266145523caf,2021-11-03_11h50.58,forced_choiceRT_color,2021.2.3,MacIntel,55.55555556,,,,,,,,2,Slow,long,d,1,2.125,8,1,33,0,1,,,,,
,0.3,,,,,,,,,j,red,610711919fb0266145523caf,2021-11-03_11h50.58,forced_choiceRT_color,2021.2.3,MacIntel,55.55555556,,,,,,,,2,Ontime,long,j,1,2.09,8,2,34,2,1,,,,,
,1.9,,,,,,,,,j,red,610711919fb0266145523caf,2021-11-03_11h50.58,forced_choiceRT_color,2021.2.3,MacIntel,55.55555556,,,,,,,,2,Slow,long,d,0,2.337,8,3,35,2,1,,,,,
,0.35,,,,,,,,,j,red,610711919fb0266145523caf,2021-11-03_11h50.58,forced_choiceRT_color,2021.2.3,MacIntel,55.55555556,,,,,,,,2,Ontime,long,j,1,1.995,9,0,36,2,1,,,,,
,0.58,,,,,,,,,f,blue,610711919fb0266145523caf,2021-11-03_11h50.58,forced_choiceRT_color,2021.2.3,MacIntel,55.55555556,,,,,,,,2,Ontime,long,f,1,2.035,9,1,37,1,1,,,,,
,0.37,,,,,,,,,k,purple,610711919fb0266145523caf,2021-11-03_11h50.58,forced_choiceRT_color,2021.2.3,MacIntel,55.55555556,,,,,,,,2,Ontime,long,k,1,2.003,9,2,38,3,1,,,,,
,1.18,,,,,,,,,f,blue,610711919fb0266145523caf,2021-11-03_11h50.58,forced_choiceRT_color,2021.2.3,MacIntel,55.55555556,,,,,,,,2,Slow,long,f,1,2.172,9,3,39,1,1,,,,,
,,,,,,,,,,,,610711919fb0266145523caf,2021-11-03_11h50.58,forced_choiceRT_color,2021.2.3,MacIntel,55.55555556,,,,,,,,,,,,,,,,,,,1,0,1,0,1
,1.39,,,,,,,,,k,purple,610711919fb0266145523caf,2021-11-03_11h50.58,forced_choiceRT_color,2021.2.3,MacIntel,55.55555556,,,,,,,,3,Fast,long,d,0,1.67,0,0,0,3,1,,,,,
,1.06,,,,,,,,,j,red,610711919fb0266145523caf,2021-11-03_11h50.58,forced_choiceRT_color,2021.2.3,MacIntel,55.55555556,,,,,,,,3,Ontime,long,j,1,2.095,0,1,1,2,1,,,,,
,1.82,,,,,,,,,j,red,610711919fb0266145523caf,2021-11-03_11h50.58,forced_choiceRT_color,2021.2.3,MacIntel,55.55555556,,,,,,,,3,Ontime,long,d,0,1.956,0,2,2,2,1,,,,,
,0.49,,,,,,,,,f,blue,610711919fb0266145523caf,2021-11-03_11h50.58,forced_choiceRT_color,2021.2.3,MacIntel,55.55555556,,,,,,,,3,Ontime,long,f,1,1.922,0,3,3,1,1,,,,,
,1.34,,,,,,,,,j,red,610711919fb0266145523caf,2021-11-03_11h50.58,forced_choiceRT_color,2021.2.3,MacIntel,55.55555556,,,,,,,,3,Ontime,long,d,0,1.961,1,0,4,2,1,,,,,
,1.39,,,,,,,,,k,purple,610711919fb0266145523caf,2021-11-03_11h50.58,forced_choiceRT_color,2021.2.3,MacIntel,55.55555556,,,,,,,,3,Ontime,long,k,1,2.089,1,1,5,3,1,,,,,
,1.33,,,,,,,,,k,purple,610711919fb0266145523caf,2021-11-03_11h50.58,forced_choiceRT_color,2021.2.3,MacIntel,55.55555556,,,,,,,,3,Ontime,long,k,1,1.967,1,2,6,3,1,,,,,
,1.61,,,,,,,,,j,red,610711919fb0266145523caf,2021-11-03_11h50.58,forced_choiceRT_color,2021.2.3,MacIntel,55.55555556,,,,,,,,3,Ontime,long,f,0,2.013,1,3,7,2,1,,,,,
,1.74,,,,,,,,,d,orange,610711919fb0266145523caf,2021-11-03_11h50.58,forced_choiceRT_color,2021.2.3,MacIntel,55.55555556,,,,,,,,3,Slow,long,d,1,2.119,2,0,8,0,1,,,,,
,1.64,,,,,,,,,d,orange,610711919fb0266145523caf,2021-11-03_11h50.58,forced_choiceRT_color,2021.2.3,MacIntel,55.55555556,,,,,,,,3,Ontime,long,d,1,2.086,2,1,9,0,1,,,,,
,0.18,,,,,,,,,d,orange,610711919fb0266145523caf,2021-11-03_11h50.58,forced_choiceRT_color,2021.2.3,MacIntel,55.55555556,,,,,,,,3,Ontime,long,d,1,1.968,2,2,10,0,1,,,,,
,1.3,,,,,,,,,d,orange,610711919fb0266145523caf,2021-11-03_11h50.58,forced_choiceRT_color,2021.2.3,MacIntel,55.55555556,,,,,,,,3,Ontime,long,d,1,1.996,2,3,11,0,1,,,,,
,1.03,,,,,,,,,k,purple,610711919fb0266145523caf,2021-11-03_11h50.58,forced_choiceRT_color,2021.2.3,MacIntel,55.55555556,,,,,,,,3,Ontime,long,k,1,2.053,3,0,12,3,1,,,,,
,1.52,,,,,,,,,k,purple,610711919fb0266145523caf,2021-11-03_11h50.58,forced_choiceRT_color,2021.2.3,MacIntel,55.55555556,,,,,,,,3,Slow,long,k,1,2.196,3,1,13,3,1,,,,,
,0.44,,,,,,,,,j,red,610711919fb0266145523caf,2021-11-03_11h50.58,forced_choiceRT_color,2021.2.3,MacIntel,55.55555556,,,,,,,,3,Ontime,long,j,1,2.064,3,2,14,2,1,,,,,
,1.09,,,,,,,,,j,red,610711919fb0266145523caf,2021-11-03_11h50.58,forced_choiceRT_color,2021.2.3,MacIntel,55.55555556,,,,,,,,3,Slow,long,j,1,2.144,3,3,15,2,1,,,,,
,1.87,,,,,,,,,f,blue,610711919fb0266145523caf,2021-11-03_11h50.58,forced_choiceRT_color,2021.2.3,MacIntel,55.55555556,,,,,,,,3,Slow,long,f,1,2.831,4,0,16,1,1,,,,,
,1,,,,,,,,,j,red,610711919fb0266145523caf,2021-11-03_11h50.58,forced_choiceRT_color,2021.2.3,MacIntel,55.55555556,,,,,,,,3,Slow,long,j,1,2.111,4,1,17,2,1,,,,,
,1.38,,,,,,,,,f,blue,610711919fb0266145523caf,2021-11-03_11h50.58,forced_choiceRT_color,2021.2.3,MacIntel,55.55555556,,,,,,,,3,Ontime,long,k,0,2.074,4,2,18,1,1,,,,,
,0.24,,,,,,,,,k,purple,610711919fb0266145523caf,2021-11-03_11h50.58,forced_choiceRT_color,2021.2.3,MacIntel,55.55555556,,,,,,,,3,Ontime,long,k,1,1.962,4,3,19,3,1,,,,,
,0.58,,,,,,,,,f,blue,610711919fb0266145523caf,2021-11-03_11h50.58,forced_choiceRT_color,2021.2.3,MacIntel,55.55555556,,,,,,,,3,Ontime,long,f,1,1.945,5,0,20,1,1,,,,,
,0.63,,,,,,,,,f,blue,610711919fb0266145523caf,2021-11-03_11h50.58,forced_choiceRT_color,2021.2.3,MacIntel,55.55555556,,,,,,,,3,Ontime,long,f,1,1.904,5,1,21,1,1,,,,,
,0.19,,,,,,,,,f,blue,610711919fb0266145523caf,2021-11-03_11h50.58,forced_choiceRT_color,2021.2.3,MacIntel,55.55555556,,,,,,,,3,Fast,long,f,1,1.787,5,2,22,1,1,,,,,
,0.07,,,,,,,,,d,orange,610711919fb0266145523caf,2021-11-03_11h50.58,forced_choiceRT_color,2021.2.3,MacIntel,55.55555556,,,,,,,,3,Fast,long,d,1,1.812,5,3,23,0,1,,,,,
,0.25,,,,,,,,,j,red,610711919fb0266145523caf,2021-11-03_11h50.58,forced_choiceRT_color,2021.2.3,MacIntel,55.55555556,,,,,,,,3,Fast,long,j,1,1.854,6,0,24,2,1,,,,,
,1.54,,,,,,,,,d,orange,610711919fb0266145523caf,2021-11-03_11h50.58,forced_choiceRT_color,2021.2.3,MacIntel,55.55555556,,,,,,,,3,Ontime,long,d,1,2.079,6,1,25,0,1,,,,,
,0.09,,,,,,,,,f,blue,610711919fb0266145523caf,2021-11-03_11h50.58,forced_choiceRT_color,2021.2.3,MacIntel,55.55555556,,,,,,,,3,Fast,long,f,1,1.814,6,2,26,1,1,,,,,
,0.37,,,,,,,,,d,orange,610711919fb0266145523caf,2021-11-03_11h50.58,forced_choiceRT_color,2021.2.3,MacIntel,55.55555556,,,,,,,,3,Ontime,long,d,1,1.995,6,3,27,0,1,,,,,
,1.85,,,,,,,,,k,purple,610711919fb0266145523caf,2021-11-03_11h50.58,forced_choiceRT_color,2021.2.3,MacIntel,55.55555556,,,,,,,,3,Slow,long,j,0,2.17,7,0,28,3,1,,,,,
,0.33,,,,,,,,,f,blue,610711919fb0266145523caf,2021-11-03_11h50.58,forced_choiceRT_color,2021.2.3,MacIntel,55.55555556,,,,,,,,3,Ontime,long,f,1,2.005,7,1,29,1,1,,,,,
,0.87,,,,,,,,,k,purple,610711919fb0266145523caf,2021-11-03_11h50.58,forced_choiceRT_color,2021.2.3,MacIntel,55.55555556,,,,,,,,3,Ontime,long,k,1,2.053,7,2,30,3,1,,,,,
,1.41,,,,,,,,,f,blue,610711919fb0266145523caf,2021-11-03_11h50.58,forced_choiceRT_color,2021.2.3,MacIntel,55.55555556,,,,,,,,3,Ontime,long,f,1,1.955,7,3,31,1,1,,,,,
,0.27,,,,,,,,,k,purple,610711919fb0266145523caf,2021-11-03_11h50.58,forced_choiceRT_color,2021.2.3,MacIntel,55.55555556,,,,,,,,3,Slow,long,k,1,2.103,8,0,32,3,1,,,,,
,1.71,,,,,,,,,j,red,610711919fb0266145523caf,2021-11-03_11h50.58,forced_choiceRT_color,2021.2.3,MacIntel,55.55555556,,,,,,,,3,Slow,long,f,0,2.187,8,1,33,2,1,,,,,
,1.53,,,,,,,,,d,orange,610711919fb0266145523caf,2021-11-03_11h50.58,forced_choiceRT_color,2021.2.3,MacIntel,55.55555556,,,,,,,,3,Fast,long,d,1,1.043,8,2,34,0,1,,,,,
,1.78,,,,,,,,,j,red,610711919fb0266145523caf,2021-11-03_11h50.58,forced_choiceRT_color,2021.2.3,MacIntel,55.55555556,,,,,,,,3,Slow,long,f,0,2.239,8,3,35,2,1,,,,,
,0.35,,,,,,,,,d,orange,610711919fb0266145523caf,2021-11-03_11h50.58,forced_choiceRT_color,2021.2.3,MacIntel,55.55555556,,,,,,,,3,Ontime,long,d,1,1.998,9,0,36,0,1,,,,,
,0.83,,,,,,,,,d,orange,610711919fb0266145523caf,2021-11-03_11h50.58,forced_choiceRT_color,2021.2.3,MacIntel,55.55555556,,,,,,,,3,Ontime,long,d,1,2.008,9,1,37,0,1,,,,,
,1.67,,,,,,,,,k,purple,610711919fb0266145523caf,2021-11-03_11h50.58,forced_choiceRT_color,2021.2.3,MacIntel,55.55555556,,,,,,,,3,Ontime,long,f,0,1.986,9,2,38,3,1,,,,,
,1.69,,,,,,,,,f,blue,610711919fb0266145523caf,2021-11-03_11h50.58,forced_choiceRT_color,2021.2.3,MacIntel,55.55555556,,,,,,,,3,Ontime,long,d,0,1.947,9,3,39,1,1,,,,,
,,,,,,,,,,,,610711919fb0266145523caf,2021-11-03_11h50.58,forced_choiceRT_color,2021.2.3,MacIntel,55.55555556,,,,,,,,,,,,,,,,,,,2,0,2,0,1
,1.55,,,,,,,,,f,blue,610711919fb0266145523caf,2021-11-03_11h50.58,forced_choiceRT_color,2021.2.3,MacIntel,55.55555556,,,,,,,,4,Fast,long,d,0,1.839,0,0,0,1,1,,,,,
,0.73,,,,,,,,,k,purple,610711919fb0266145523caf,2021-11-03_11h50.58,forced_choiceRT_color,2021.2.3,MacIntel,55.55555556,,,,,,,,4,Ontime,long,k,1,2.048,0,1,1,3,1,,,,,
,1.38,,,,,,,,,k,purple,610711919fb0266145523caf,2021-11-03_11h50.58,forced_choiceRT_color,2021.2.3,MacIntel,55.55555556,,,,,,,,4,Ontime,long,k,1,2.04,0,2,2,3,1,,,,,
,1.97,,,,,,,,,d,orange,610711919fb0266145523caf,2021-11-03_11h50.58,forced_choiceRT_color,2021.2.3,MacIntel,55.55555556,,,,,,,,4,Slow,long,d,1,2.33,0,3,3,0,1,,,,,
,0.36,,,,,,,,,j,red,610711919fb0266145523caf,2021-11-03_11h50.58,forced_choiceRT_color,2021.2.3,MacIntel,55.55555556,,,,,,,,4,Ontime,long,j,1,2.033,1,0,4,2,1,,,,,
,1.85,,,,,,,,,f,blue,610711919fb0266145523caf,2021-11-03_11h50.58,forced_choiceRT_color,2021.2.3,MacIntel,55.55555556,,,,,,,,4,Slow,long,f,1,2.177,1,1,5,1,1,,,,,
,1.74,,,,,,,,,d,orange,610711919fb0266145523caf,2021-11-03_11h50.58,forced_choiceRT_color,2021.2.3,MacIntel,55.55555556,,,,,,,,4,Slow,long,f,0,2.119,1,2,6,0,1,,,,,
,0.31,,,,,,,,,d,orange,610711919fb0266145523caf,2021-11-03_11h50.58,forced_choiceRT_color,2021.2.3,MacIntel,55.55555556,,,,,,,,4,Ontime,long,d,1,1.921,1,3,7,0,1,,,,,
,0.79,,,,,,,,,f,blue,610711919fb0266145523caf,2021-11-03_11h50.58,forced_choiceRT_color,2021.2.3,MacIntel,55.55555556,,,,,,,,4,Ontime,long,f,1,2.013,2,0,8,1,1,,,,,
,1.69,,,,,,,,,f,blue,610711919fb0266145523caf,2021-11-03_11h50.58,forced_choiceRT_color,2021.2.3,MacIntel,55.55555556,,,,,,,,4,Slow,long,f,1,2.252,2,1,9,1,1,,,,,
,0.34,,,,,,,,,j,red,610711919fb0266145523caf,2021-11-03_11h50.58,forced_choiceRT_color,2021.2.3,MacIntel,55.55555556,,,,,,,,4,Ontime,long,j,1,2.044,2,2,10,2,1,,,,,
,0.58,,,,,,,,,f,blue,610711919fb0266145523caf,2021-11-03_11h50.58,forced_choiceRT_color,2021.2.3,MacIntel,55.55555556,,,,,,,,4,Ontime,long,f,1,2.071,2,3,11,1,1,,,,,
,0.44,,,,,,,,,d,orange,610711919fb0266145523caf,2021-11-03_11h50.58,forced_choiceRT_color,2021.2.3,MacIntel,55.55555556,,,,,,,,4,Ontime,long,d,1,2.071,3,0,12,0,1,,,,,
,0.45,,,,,,,,,d,orange,610711919fb0266145523caf,2021-11-03_11h50.58,forced_choiceRT_color,2021.2.3,MacIntel,55.55555556,,,,,,,,4,Ontime,long,d,1,2.078,3,1,13,0,1,,,,,
,1.26,,,,,,,,,j,red,610711919fb0266145523caf,2021-11-03_11h50.58,forced_choiceRT_color,2021.2.3,MacIntel,55.55555556,,,,,,,,4,Slow,long,j,1,2.1,3,2,14,2,1,,,,,
,0.63,,,,,,,,,j,red,610711919fb0266145523caf,2021-11-03_11h50.58,forced_choiceRT_color,2021.2.3,MacIntel,55.55555556,,,,,,,,4,Ontime,long,j,1,1.989,3,3,15,2,1,,,,,
,1.55,,,,,,,,,j,red,610711919fb0266145523caf,2021-11-03_11h50.58,forced_choiceRT_color,2021.2.3,MacIntel,55.55555556,,,,,,,,4,Ontime,long,j,1,1.967,4,0,16,2,1,,,,,
,1.49,,,,,,,,,j,red,610711919fb0266145523caf,2021-11-03_11h50.58,forced_choiceRT_color,2021.2.3,MacIntel,55.55555556,,,,,,,,4,Ontime,long,j,1,1.941,4,1,17,2,1,,,,,
,0.2,,,,,,,,,d,orange,610711919fb0266145523caf,2021-11-03_11h50.58,forced_choiceRT_color,2021.2.3,MacIntel,55.55555556,,,,,,,,4,Ontime,long,d,1,1.998,4,2,18,0,1,,,,,
,0.12,,,,,,,,,d,orange,610711919fb0266145523caf,2021-11-03_11h50.58,forced_choiceRT_color,2021.2.3,MacIntel,55.55555556,,,,,,,,4,Ontime,long,d,1,1.97,4,3,19,0,1,,,,,
,0.18,,,,,,,,,f,blue,610711919fb0266145523caf,2021-11-03_11h50.58,forced_choiceRT_color,2021.2.3,MacIntel,55.55555556,,,,,,,,4,Ontime,long,f,1,2.004,5,0,20,1,1,,,,,
,0.25,,,,,,,,,f,blue,610711919fb0266145523caf,2021-11-03_11h50.58,forced_choiceRT_color,2021.2.3,MacIntel,55.55555556,,,,,,,,4,Ontime,long,f,1,2.012,5,1,21,1,1,,,,,
,1.09,,,,,,,,,j,red,610711919fb0266145523caf,2021-11-03_11h50.58,forced_choiceRT_color,2021.2.3,MacIntel,55.55555556,,,,,,,,4,Ontime,long,j,1,2.012,5,2,22,2,1,,,,,
,1.21,,,,,,,,,k,purple,610711919fb0266145523caf,2021-11-03_11h50.58,forced_choiceRT_color,2021.2.3,MacIntel,55.55555556,,,,,,,,4,Ontime,long,k,1,2.04,5,3,23,3,1,,,,,
,0.44,,,,,,,,,d,orange,610711919fb0266145523caf,2021-11-03_11h50.58,forced_choiceRT_color,2021.2.3,MacIntel,55.55555556,,,,,,,,4,Ontime,long,d,1,1.978,6,0,24,0,1,,,,,
,0.47,,,,,,,,,f,blue,610711919fb0266145523caf,2021-11-03_11h50.58,forced_choiceRT_color,2021.2.3,MacIntel,55.55555556,,,,,,,,4,Fast,long,f,1,1.538,6,1,25,1,1,,,,,
,1.59,,,,,,,,,k,purple,610711919fb0266145523caf,2021-11-03_11h50.58,forced_choiceRT_color,2021.2.3,MacIntel,55.55555556,,,,,,,,4,Ontime,long,k,1,2.098,6,2,26,3,1,,,,,
,1.69,,,,,,,,,k,purple,610711919fb0266145523caf,2021-11-03_11h50.58,forced_choiceRT_color,2021.2.3,MacIntel,55.55555556,,,,,,,,4,Ontime,long,k,1,1.978,6,3,27,3,1,,,,,
,1.68,,,,,,,,,j,red,610711919fb0266145523caf,2021-11-03_11h50.58,forced_choiceRT_color,2021.2.3,MacIntel,55.55555556,,,,,,,,4,Ontime,long,f,0,2.086,7,0,28,2,1,,,,,
,0.42,,,,,,,,,f,blue,610711919fb0266145523caf,2021-11-03_11h50.58,forced_choiceRT_color,2021.2.3,MacIntel,55.55555556,,,,,,,,4,Ontime,long,f,1,1.988,7,1,29,1,1,,,,,
,1.49,,,,,,,,,f,blue,610711919fb0266145523caf,2021-11-03_11h50.58,forced_choiceRT_color,2021.2.3,MacIntel,55.55555556,,,,,,,,4,Ontime,long,f,1,1.979,7,2,30,1,1,,,,,
,0,,,,,,,,,k,purple,610711919fb0266145523caf,2021-11-03_11h50.58,forced_choiceRT_color,2021.2.3,MacIntel,55.55555556,,,,,,,,4,Ontime,long,k,1,1.98,7,3,31,3,1,,,,,
,1.01,,,,,,,,,j,red,610711919fb0266145523caf,2021-11-03_11h50.58,forced_choiceRT_color,2021.2.3,MacIntel,55.55555556,,,,,,,,4,Fast,long,j,1,1.882,8,0,32,2,1,,,,,
,0.62,,,,,,,,,j,red,610711919fb0266145523caf,2021-11-03_11h50.58,forced_choiceRT_color,2021.2.3,MacIntel,55.55555556,,,,,,,,4,Ontime,long,j,1,2.061,8,1,33,2,1,,,,,
,1.4,,,,,,,,,k,purple,610711919fb0266145523caf,2021-11-03_11h50.58,forced_choiceRT_color,2021.2.3,MacIntel,55.55555556,,,,,,,,4,Ontime,long,k,1,2.029,8,2,34,3,1,,,,,
,1.9,,,,,,,,,k,purple,610711919fb0266145523caf,2021-11-03_11h50.58,forced_choiceRT_color,2021.2.3,MacIntel,55.55555556,,,,,,,,4,Slow,long,j,0,2.113,8,3,35,3,1,,,,,
,1.5,,,,,,,,,k,purple,610711919fb0266145523caf,2021-11-03_11h50.58,forced_choiceRT_color,2021.2.3,MacIntel,55.55555556,,,,,,,,4,Ontime,long,k,1,1.971,9,0,36,3,1,,,,,
,1.41,,,,,,,,,d,orange,610711919fb0266145523caf,2021-11-03_11h50.58,forced_choiceRT_color,2021.2.3,MacIntel,55.55555556,,,,,,,,4,Ontime,long,f,0,1.964,9,1,37,0,1,,,,,
,0.25,,,,,,,,,k,purple,610711919fb0266145523caf,2021-11-03_11h50.58,forced_choiceRT_color,2021.2.3,MacIntel,55.55555556,,,,,,,,4,Ontime,long,k,1,2.091,9,2,38,3,1,,,,,
,0.21,,,,,,,,,d,orange,610711919fb0266145523caf,2021-11-03_11h50.58,forced_choiceRT_color,2021.2.3,MacIntel,55.55555556,,,,,,,,4,Ontime,long,d,1,1.971,9,3,39,0,1,,,,,
,,,,,,,,,,,,610711919fb0266145523caf,2021-11-03_11h50.58,forced_choiceRT_color,2021.2.3,MacIntel,55.55555556,,,,,,,,,,,,,,,,,,,3,0,3,0,1
,1.33,,,,,,,,,f,blue,610711919fb0266145523caf,2021-11-03_11h50.58,forced_choiceRT_color,2021.2.3,MacIntel,55.55555556,,,,,,,,5,Ontime,long,j,0,1.963,0,0,0,1,1,,,,,
,0.86,,,,,,,,,k,purple,610711919fb0266145523caf,2021-11-03_11h50.58,forced_choiceRT_color,2021.2.3,MacIntel,55.55555556,,,,,,,,5,Ontime,long,k,1,2.046,0,1,1,3,1,,,,,
,0.08,,,,,,,,,d,orange,610711919fb0266145523caf,2021-11-03_11h50.58,forced_choiceRT_color,2021.2.3,MacIntel,55.55555556,,,,,,,,5,Ontime,long,d,1,2.037,0,2,2,0,1,,,,,
,1.01,,,,,,,,,d,orange,610711919fb0266145523caf,2021-11-03_11h50.58,forced_choiceRT_color,2021.2.3,MacIntel,55.55555556,,,,,,,,5,Ontime,long,d,1,2.02,0,3,3,0,1,,,,,
,0.85,,,,,,,,,k,purple,610711919fb0266145523caf,2021-11-03_11h50.58,forced_choiceRT_color,2021.2.3,MacIntel,55.55555556,,,,,,,,5,Ontime,long,k,1,2.014,1,0,4,3,1,,,,,
,1.43,,,,,,,,,f,blue,610711919fb0266145523caf,2021-11-03_11h50.58,forced_choiceRT_color,2021.2.3,MacIntel,55.55555556,,,,,,,,5,Ontime,long,f,1,2.094,1,1,5,1,1,,,,,
,0.13,,,,,,,,,f,blue,610711919fb0266145523caf,2021-11-03_11h50.58,forced_choiceRT_color,2021.2.3,MacIntel,55.55555556,,,,,,,,5,Ontime,long,f,1,2.011,1,2,6,1,1,,,,,
,1.93,,,,,,,,,j,red,610711919fb0266145523caf,2021-11-03_11h50.58,forced_choiceRT_color,2021.2.3,MacIntel,55.55555556,,,,,,,,5,Slow,long,j,1,2.11,1,3,7,2,1,,,,,
,0.49,,,,,,,,,d,orange,610711919fb0266145523caf,2021-11-03_11h50.58,forced_choiceRT_color,2021.2.3,MacIntel,55.55555556,,,,,,,,5,Ontime,long,d,1,2.065,2,0,8,0,1,,,,,
,1.91,,,,,,,,,j,red,610711919fb0266145523caf,2021-11-03_11h50.58,forced_choiceRT_color,2021.2.3,MacIntel,55.55555556,,,,,,,,5,Slow,long,f,0,2.216,2,1,9,2,1,,,,,
,0.14,,,,,,,,,d,orange,610711919fb0266145523caf,2021-11-03_11h50.58,forced_choiceRT_color,2021.2.3,MacIntel,55.55555556,,,,,,,,5,Ontime,long,d,1,2.014,2,2,10,0,1,,,,,
,1.65,,,,,,,,,f,blue,610711919fb0266145523caf,2021-11-03_11h50.58,forced_choiceRT_color,2021.2.3,MacIntel,55.55555556,,,,,,,,5,Fast,long,j,0,1.807,2,3,11,1,1,,,,,
,0.32,,,,,,,,,d,orange,610711919fb0266145523caf,2021-11-03_11h50.58,forced_choiceRT_color,2021.2.3,MacIntel,55.55555556,,,,,,,,5,Ontime,long,d,1,2.079,3,0,12,0,1,,,,,
,1.69,,,,,,,,,k,purple,610711919fb0266145523caf,2021-11-03_11h50.58,forced_choiceRT_color,2021.2.3,MacIntel,55.55555556,,,,,,,,5,Ontime,long,f,0,2.039,3,1,13,3,1,,,,,
,1.63,,,,,,,,,f,blue,610711919fb0266145523caf,2021-11-03_11h50.58,forced_choiceRT_color,2021.2.3,MacIntel,55.55555556,,,,,,,,5,Ontime,long,d,0,2.095,3,2,14,1,1,,,,,
,0.31,,,,,,,,,j,red,610711919fb0266145523caf,2021-11-03_11h50.58,forced_choiceRT_color,2021.2.3,MacIntel,55.55555556,,,,,,,,5,Ontime,long,j,1,1.979,3,3,15,2,1,,,,,
,0.43,,,,,,,,,k,purple,610711919fb0266145523caf,2021-11-03_11h50.58,forced_choiceRT_color,2021.2.3,MacIntel,55.55555556,,,,,,,,5,Ontime,long,k,1,2.012,4,0,16,3,1,,,,,
,0.01,,,,,,,,,j,red,610711919fb0266145523caf,2021-11-03_11h50.58,forced_choiceRT_color,2021.2.3,MacIntel,55.55555556,,,,,,,,5,Ontime,long,j,1,2.062,4,1,17,2,1,,,,,
,0.01,,,,,,,,,j,red,610711919fb0266145523caf,2021-11-03_11h50.58,forced_choiceRT_color,2021.2.3,MacIntel,55.55555556,,,,,,,,5,Ontime,long,j,1,2.021,4,2,18,2,1,,,,,
,0.64,,,,,,,,,f,blue,610711919fb0266145523caf,2021-11-03_11h50.58,forced_choiceRT_color,2021.2.3,MacIntel,55.55555556,,,,,,,,5,Fast,long,f,1,1.863,4,3,19,1,1,,,,,
,0.82,,,,,,,,,k,purple,610711919fb0266145523caf,2021-11-03_11h50.58,forced_choiceRT_color,2021.2.3,MacIntel,55.55555556,,,,,,,,5,Ontime,long,k,1,2.062,5,0,20,3,1,,,,,
,1.39,,,,,,,,,k,purple,610711919fb0266145523caf,2021-11-03_11h50.58,forced_choiceRT_color,2021.2.3,MacIntel,55.55555556,,,,,,,,5,Slow,long,k,1,2.399,5,1,21,3,1,,,,,
,1.42,,,,,,,,,j,red,610711919fb0266145523caf,2021-11-03_11h50.58,forced_choiceRT_color,2021.2.3,MacIntel,55.55555556,,,,,,,,5,Ontime,long,f,0,2.046,5,2,22,2,1,,,,,
,1.12,,,,,,,,,j,red,610711919fb0266145523caf,2021-11-03_11h50.58,forced_choiceRT_color,2021.2.3,MacIntel,55.55555556,,,,,,,,5,Ontime,long,j,1,2.081,5,3,23,2,1,,,,,
,0.23,,,,,,,,,j,red,610711919fb0266145523caf,2021-11-03_11h50.58,forced_choiceRT_color,2021.2.3,MacIntel,55.55555556,,,,,,,,5,Ontime,long,j,1,2.073,6,0,24,2,1,,,,,
,0.48,,,,,,,,,f,blue,610711919fb0266145523caf,2021-11-03_11h50.58,forced_choiceRT_color,2021.2.3,MacIntel,55.55555556,,,,,,,,5,Ontime,long,f,1,2.089,6,1,25,1,1,,,,,
,1.85,,,,,,,,,d,orange,610711919fb0266145523caf,2021-11-03_11h50.58,forced_choiceRT_color,2021.2.3,MacIntel,55.55555556,,,,,,,,5,Slow,long,j,0,2.102,6,2,26,0,1,,,,,
,0.94,,,,,,,,,d,orange,610711919fb0266145523caf,2021-11-03_11h50.58,forced_choiceRT_color,2021.2.3,MacIntel,55.55555556,,,,,,,,5,Slow,long,d,1,2.295,6,3,27,0,1,,,,,
,0.47,,,,,,,,,f,blue,610711919fb0266145523caf,2021-11-03_11h50.58,forced_choiceRT_color,2021.2.3,MacIntel,55.55555556,,,,,,,,5,Ontime,long,f,1,2.032,7,0,28,1,1,,,,,
,1.59,,,,,,,,,d,orange,610711919fb0266145523caf,2021-11-03_11h50.58,forced_choiceRT_color,2021.2.3,MacIntel,55.55555556,,,,,,,,5,Ontime,long,f,0,2.053,7,1,29,0,1,,,,,
,1.64,,,,,,,,,f,blue,610711919fb0266145523caf,2021-11-03_11h50.58,forced_choiceRT_color,2021.2.3,MacIntel,55.55555556,,,,,,,,5,Ontime,long,d,0,2.082,7,2,30,1,1,,,,,
,1.55,,,,,,,,,f,blue,610711919fb0266145523caf,2021-11-03_11h50.58,forced_choiceRT_color,2021.2.3,MacIntel,55.55555556,,,,,,,,5,Ontime,long,f,1,2.062,7,3,31,1,1,,,,,
,1.21,,,,,,,,,d,orange,610711919fb0266145523caf,2021-11-03_11h50.58,forced_choiceRT_color,2021.2.3,MacIntel,55.55555556,,,,,,,,5,Fast,long,d,1,1.89,8,0,32,0,1,,,,,
,0.92,,,,,,,,,k,purple,610711919fb0266145523caf,2021-11-03_11h50.58,forced_choiceRT_color,2021.2.3,MacIntel,55.55555556,,,,,,,,5,Ontime,long,k,1,2.028,8,1,33,3,1,,,,,
,1.55,,,,,,,,,k,purple,610711919fb0266145523caf,2021-11-03_11h50.58,forced_choiceRT_color,2021.2.3,MacIntel,55.55555556,,,,,,,,5,Slow,long,k,1,2.137,8,2,34,3,1,,,,,
,1.53,,,,,,,,,j,red,610711919fb0266145523caf,2021-11-03_11h50.58,forced_choiceRT_color,2021.2.3,MacIntel,55.55555556,,,,,,,,5,Slow,long,f,0,2.131,8,3,35,2,1,,,,,
,1.16,,,,,,,,,d,orange,610711919fb0266145523caf,2021-11-03_11h50.58,forced_choiceRT_color,2021.2.3,MacIntel,55.55555556,,,,,,,,5,Ontime,long,d,1,2.073,9,0,36,0,1,,,,,
,1.9,,,,,,,,,k,purple,610711919fb0266145523caf,2021-11-03_11h50.58,forced_choiceRT_color,2021.2.3,MacIntel,55.55555556,,,,,,,,5,Slow,long,f,0,2.228,9,1,37,3,1,,,,,
,0.32,,,,,,,,,j,red,610711919fb0266145523caf,2021-11-03_11h50.58,forced_choiceRT_color,2021.2.3,MacIntel,55.55555556,,,,,,,,5,Ontime,long,f,0,2.078,9,2,38,2,1,,,,,
,1.04,,,,,,,,,k,purple,610711919fb0266145523caf,2021-11-03_11h50.58,forced_choiceRT_color,2021.2.3,MacIntel,55.55555556,,,,,,,,5,Ontime,long,k,1,2.057,9,3,39,3,1,,,,,
,,,,,,,,,,,,610711919fb0266145523caf,2021-11-03_11h50.58,forced_choiceRT_color,2021.2.3,MacIntel,55.55555556,,,,,,,,,,,,,,,,,,,4,0,4,0,1
,0.81,,,,,,,,,j,red,610711919fb0266145523caf,2021-11-03_11h50.58,forced_choiceRT_color,2021.2.3,MacIntel,55.55555556,,,,,,,,6,Slow,long,j,1,2.314,0,0,0,2,1,,,,,
,1.39,,,,,,,,,k,purple,610711919fb0266145523caf,2021-11-03_11h50.58,forced_choiceRT_color,2021.2.3,MacIntel,55.55555556,,,,,,,,6,Ontime,long,k,1,1.971,0,1,1,3,1,,,,,
,1.14,,,,,,,,,j,red,610711919fb0266145523caf,2021-11-03_11h50.58,forced_choiceRT_color,2021.2.3,MacIntel,55.55555556,,,,,,,,6,Ontime,long,k,0,1.948,0,2,2,2,1,,,,,
,0.3,,,,,,,,,k,purple,610711919fb0266145523caf,2021-11-03_11h50.58,forced_choiceRT_color,2021.2.3,MacIntel,55.55555556,,,,,,,,6,Ontime,long,k,1,1.912,0,3,3,3,1,,,,,
,1.94,,,,,,,,,j,red,610711919fb0266145523caf,2021-11-03_11h50.58,forced_choiceRT_color,2021.2.3,MacIntel,55.55555556,,,,,,,,6,Slow,long,j,1,2.12,1,0,4,2,1,,,,,
,1.3,,,,,,,,,f,blue,610711919fb0266145523caf,2021-11-03_11h50.58,forced_choiceRT_color,2021.2.3,MacIntel,55.55555556,,,,,,,,6,Fast,long,f,1,1.839,1,1,5,1,1,,,,,
,0.61,,,,,,,,,f,blue,610711919fb0266145523caf,2021-11-03_11h50.58,forced_choiceRT_color,2021.2.3,MacIntel,55.55555556,,,,,,,,6,Ontime,long,f,1,1.973,1,2,6,1,1,,,,,
,1,,,,,,,,,d,orange,610711919fb0266145523caf,2021-11-03_11h50.58,forced_choiceRT_color,2021.2.3,MacIntel,55.55555556,,,,,,,,6,Fast,long,d,1,1.769,1,3,7,0,1,,,,,
,0.56,,,,,,,,,d,orange,610711919fb0266145523caf,2021-11-03_11h50.58,forced_choiceRT_color,2021.2.3,MacIntel,55.55555556,,,,,,,,6,Ontime,long,d,1,2.002,2,0,8,0,1,,,,,
,0.81,,,,,,,,,k,purple,610711919fb0266145523caf,2021-11-03_11h50.58,forced_choiceRT_color,2021.2.3,MacIntel,55.55555556,,,,,,,,6,Ontime,long,j,0,2.013,2,1,9,3,1,,,,,
,0.55,,,,,,,,,f,blue,610711919fb0266145523caf,2021-11-03_11h50.58,forced_choiceRT_color,2021.2.3,MacIntel,55.55555556,,,,,,,,6,Ontime,long,f,1,1.981,2,2,10,1,1,,,,,
,1.81,,,,,,,,,k,purple,610711919fb0266145523caf,2021-11-03_11h50.58,forced_choiceRT_color,2021.2.3,MacIntel,55.55555556,,,,,,,,6,Slow,long,j,0,2.101,2,3,11,3,1,,,,,
,1.35,,,,,,,,,f,blue,610711919fb0266145523caf,2021-11-03_11h50.58,forced_choiceRT_color,2021.2.3,MacIntel,55.55555556,,,,,,,,6,Ontime,long,f,1,1.969,3,0,12,1,1,,,,,
,0.72,,,,,,,,,k,purple,610711919fb0266145523caf,2021-11-03_11h50.58,forced_choiceRT_color,2021.2.3,MacIntel,55.55555556,,,,,,,,6,Ontime,long,k,1,1.987,3,1,13,3,1,,,,,
,0.57,,,,,,,,,f,blue,610711919fb0266145523caf,2021-11-03_11h50.58,forced_choiceRT_color,2021.2.3,MacIntel,55.55555556,,,,,,,,6,Ontime,long,f,1,2.053,3,2,14,1,1,,,,,
,0.52,,,,,,,,,d,orange,610711919fb0266145523caf,2021-11-03_11h50.58,forced_choiceRT_color,2021.2.3,MacIntel,55.55555556,,,,,,,,6,Ontime,long,d,1,1.979,3,3,15,0,1,,,,,
,0.06,,,,,,,,,k,purple,610711919fb0266145523caf,2021-11-03_11h50.58,forced_choiceRT_color,2021.2.3,MacIntel,55.55555556,,,,,,,,6,Ontime,long,k,1,2.037,4,0,16,3,1,,,,,
,1.68,,,,,,,,,k,purple,610711919fb0266145523caf,2021-11-03_11h50.58,forced_choiceRT_color,2021.2.3,MacIntel,55.55555556,,,,,,,,6,Slow,long,k,1,2.195,4,1,17,3,1,,,,,
,0.6,,,,,,,,,d,orange,610711919fb0266145523caf,2021-11-03_11h50.58,forced_choiceRT_color,2021.2.3,MacIntel,55.55555556,,,,,,,,6,Ontime,long,d,1,2.007,4,2,18,0,1,,,,,
,1.66,,,,,,,,,d,orange,610711919fb0266145523caf,2021-11-03_11h50.58,forced_choiceRT_color,2021.2.3,MacIntel,55.55555556,,,,,,,,6,Ontime,long,f,0,2.049,4,3,19,0,1,,,,,
,0.43,,,,,,,,,j,red,610711919fb0266145523caf,2021-11-03_11h50.58,forced_choiceRT_color,2021.2.3,MacIntel,55.55555556,,,,,,,,6,Ontime,long,j,1,2.014,5,0,20,2,1,,,,,
,1.81,,,,,,,,,k,purple,610711919fb0266145523caf,2021-11-03_11h50.58,forced_choiceRT_color,2021.2.3,MacIntel,55.55555556,,,,,,,,6,Ontime,long,d,0,2.015,5,1,21,3,1,,,,,
,0.29,,,,,,,,,j,red,610711919fb0266145523caf,2021-11-03_11h50.58,forced_choiceRT_color,2021.2.3,MacIntel,55.55555556,,,,,,,,6,Ontime,long,f,0,2.057,5,2,22,2,1,,,,,
,0.75,,,,,,,,,f,blue,610711919fb0266145523caf,2021-11-03_11h50.58,forced_choiceRT_color,2021.2.3,MacIntel,55.55555556,,,,,,,,6,Ontime,long,f,1,1.995,5,3,23,1,1,,,,,
,0.59,,,,,,,,,j,red,610711919fb0266145523caf,2021-11-03_11h50.58,forced_choiceRT_color,2021.2.3,MacIntel,55.55555556,,,,,,,,6,Ontime,long,j,1,2.09,6,0,24,2,1,,,,,
,1.45,,,,,,,,,j,red,610711919fb0266145523caf,2021-11-03_11h50.58,forced_choiceRT_color,2021.2.3,MacIntel,55.55555556,,,,,,,,6,Ontime,long,j,1,2.088,6,1,25,2,1,,,,,
,0.18,,,,,,,,,f,blue,610711919fb0266145523caf,2021-11-03_11h50.58,forced_choiceRT_color,2021.2.3,MacIntel,55.55555556,,,,,,,,6,Ontime,long,f,1,1.945,6,2,26,1,1,,,,,
,0.52,,,,,,,,,d,orange,610711919fb0266145523caf,2021-11-03_11h50.58,forced_choiceRT_color,2021.2.3,MacIntel,55.55555556,,,,,,,,6,Ontime,long,d,1,2.012,6,3,27,0,1,,,,,
,1.58,,,,,,,,,f,blue,610711919fb0266145523caf,2021-11-03_11h50.58,forced_choiceRT_color,2021.2.3,MacIntel,55.55555556,,,,,,,,6,Ontime,long,d,0,2.016,7,0,28,1,1,,,,,
,1.4,,,,,,,,,k,purple,610711919fb0266145523caf,2021-11-03_11h50.58,forced_choiceRT_color,2021.2.3,MacIntel,55.55555556,,,,,,,,6,Ontime,long,k,1,2.061,7,1,29,3,1,,,,,
,0.91,,,,,,,,,k,purple,610711919fb0266145523caf,2021-11-03_11h50.58,forced_choiceRT_color,2021.2.3,MacIntel,55.55555556,,,,,,,,6,Ontime,long,k,1,2.019,7,2,30,3,1,,,,,
,0.01,,,,,,,,,j,red,610711919fb0266145523caf,2021-11-03_11h50.58,forced_choiceRT_color,2021.2.3,MacIntel,55.55555556,,,,,,,,6,Ontime,long,j,1,2.099,7,3,31,2,1,,,,,
,1.73,,,,,,,,,f,blue,610711919fb0266145523caf,2021-11-03_11h50.58,forced_choiceRT_color,2021.2.3,MacIntel,55.55555556,,,,,,,,6,Slow,long,f,1,2.302,8,0,32,1,1,,,,,
,0.21,,,,,,,,,d,orange,610711919fb0266145523caf,2021-11-03_11h50.58,forced_choiceRT_color,2021.2.3,MacIntel,55.55555556,,,,,,,,6,Ontime,long,d,1,1.92,8,1,33,0,1,,,,,
,0.18,,,,,,,,,j,red,610711919fb0266145523caf,2021-11-03_11h50.58,forced_choiceRT_color,2021.2.3,MacIntel,55.55555556,,,,,,,,6,Ontime,long,j,1,1.996,8,2,34,2,1,,,,,
,1.57,,,,,,,,,f,blue,610711919fb0266145523caf,2021-11-03_11h50.58,forced_choiceRT_color,2021.2.3,MacIntel,55.55555556,,,,,,,,6,Ontime,long,f,1,2.045,8,3,35,1,1,,,,,
,1.21,,,,,,,,,d,orange,610711919fb0266145523caf,2021-11-03_11h50.58,forced_choiceRT_color,2021.2.3,MacIntel,55.55555556,,,,,,,,6,Ontime,long,d,1,2.035,9,0,36,0,1,,,,,
,0.96,,,,,,,,,d,orange,610711919fb0266145523caf,2021-11-03_11h50.58,forced_choiceRT_color,2021.2.3,MacIntel,55.55555556,,,,,,,,6,Ontime,long,d,1,1.939,9,1,37,0,1,,,,,
,1.85,,,,,,,,,j,red,610711919fb0266145523caf,2021-11-03_11h50.58,forced_choiceRT_color,2021.2.3,MacIntel,55.55555556,,,,,,,,6,Ontime,long,f,0,2.086,9,2,38,2,1,,,,,
,0.48,,,,,,,,,d,orange,610711919fb0266145523caf,2021-11-03_11h50.58,forced_choiceRT_color,2021.2.3,MacIntel,55.55555556,,,,,,,,6,Ontime,long,d,1,1.914,9,3,39,0,1,,,,,
,,,,,,,,,,,,610711919fb0266145523caf,2021-11-03_11h50.58,forced_choiceRT_color,2021.2.3,MacIntel,55.55555556,,,,,,,,,,,,,,,,,,,5,0,5,0,1
,1.52,,,,,,,,,d,orange,610711919fb0266145523caf,2021-11-03_11h50.58,forced_choiceRT_color,2021.2.3,MacIntel,55.55555556,,,,,,,,7,Slow,long,d,1,2.104,0,0,0,0,1,,,,,
,1.36,,,,,,,,,f,blue,610711919fb0266145523caf,2021-11-03_11h50.58,forced_choiceRT_color,2021.2.3,MacIntel,55.55555556,,,,,,,,7,Ontime,long,f,1,1.994,0,1,1,1,1,,,,,
,1.79,,,,,,,,,k,purple,610711919fb0266145523caf,2021-11-03_11h50.58,forced_choiceRT_color,2021.2.3,MacIntel,55.55555556,,,,,,,,7,Ontime,long,f,0,1.964,0,2,2,3,1,,,,,
,0.61,,,,,,,,,k,purple,610711919fb0266145523caf,2021-11-03_11h50.58,forced_choiceRT_color,2021.2.3,MacIntel,55.55555556,,,,,,,,7,Ontime,long,k,1,1.99,0,3,3,3,1,,,,,
,0.05,,,,,,,,,f,blue,610711919fb0266145523caf,2021-11-03_11h50.58,forced_choiceRT_color,2021.2.3,MacIntel,55.55555556,,,,,,,,7,Fast,long,f,1,1.697,1,0,4,1,1,,,,,
,1.98,,,,,,,,,j,red,610711919fb0266145523caf,2021-11-03_11h50.58,forced_choiceRT_color,2021.2.3,MacIntel,55.55555556,,,,,,,,7,Ontime,long,j,1,2.096,1,1,5,2,1,,,,,
,0.49,,,,,,,,,j,red,610711919fb0266145523caf,2021-11-03_11h50.58,forced_choiceRT_color,2021.2.3,MacIntel,55.55555556,,,,,,,,7,Ontime,long,j,1,1.94,1,2,6,2,1,,,,,
,0.65,,,,,,,,,k,purple,610711919fb0266145523caf,2021-11-03_11h50.58,forced_choiceRT_color,2021.2.3,MacIntel,55.55555556,,,,,,,,7,Ontime,long,k,1,2.064,1,3,7,3,1,,,,,
,1.43,,,,,,,,,f,blue,610711919fb0266145523caf,2021-11-03_11h50.58,forced_choiceRT_color,2021.2.3,MacIntel,55.55555556,,,,,,,,7,Ontime,long,f,1,2.045,2,0,8,1,1,,,,,
,0.52,,,,,,,,,d,orange,610711919fb0266145523caf,2021-11-03_11h50.58,forced_choiceRT_color,2021.2.3,MacIntel,55.55555556,,,,,,,,7,Slow,long,d,1,2.11,2,1,9,0,1,,,,,
,0.54,,,,,,,,,d,orange,610711919fb0266145523caf,2021-11-03_11h50.58,forced_choiceRT_color,2021.2.3,MacIntel,55.55555556,,,,,,,,7,Ontime,long,d,1,2.014,2,2,10,0,1,,,,,
,0.15,,,,,,,,,k,purple,610711919fb0266145523caf,2021-11-03_11h50.58,forced_choiceRT_color,2021.2.3,MacIntel,55.55555556,,,,,,,,7,Ontime,long,k,1,2.028,2,3,11,3,1,,,,,
,1.53,,,,,,,,,k,purple,610711919fb0266145523caf,2021-11-03_11h50.58,forced_choiceRT_color,2021.2.3,MacIntel,55.55555556,,,,,,,,7,Slow,long,k,1,2.405,3,0,12,3,1,,,,,
,0.22,,,,,,,,,j,red,610711919fb0266145523caf,2021-11-03_11h50.58,forced_choiceRT_color,2021.2.3,MacIntel,55.55555556,,,,,,,,7,Slow,long,f,0,2.15,3,1,13,2,1,,,,,
,0.25,,,,,,,,,d,orange,610711919fb0266145523caf,2021-11-03_11h50.58,forced_choiceRT_color,2021.2.3,MacIntel,55.55555556,,,,,,,,7,Fast,long,d,1,1.888,3,2,14,0,1,,,,,
,0.83,,,,,,,,,f,blue,610711919fb0266145523caf,2021-11-03_11h50.58,forced_choiceRT_color,2021.2.3,MacIntel,55.55555556,,,,,,,,7,Ontime,long,f,1,2.057,3,3,15,1,1,,,,,
,1.63,,,,,,,,,f,blue,610711919fb0266145523caf,2021-11-03_11h50.58,forced_choiceRT_color,2021.2.3,MacIntel,55.55555556,,,,,,,,7,Ontime,long,f,1,2.037,4,0,16,1,1,,,,,
,0.22,,,,,,,,,f,blue,610711919fb0266145523caf,2021-11-03_11h50.58,forced_choiceRT_color,2021.2.3,MacIntel,55.55555556,,,,,,,,7,Ontime,long,f,1,1.956,4,1,17,1,1,,,,,
,1.52,,,,,,,,,d,orange,610711919fb0266145523caf,2021-11-03_11h50.58,forced_choiceRT_color,2021.2.3,MacIntel,55.55555556,,,,,,,,7,Ontime,long,f,0,2.015,4,2,18,0,1,,,,,
,0.54,,,,,,,,,k,purple,610711919fb0266145523caf,2021-11-03_11h50.58,forced_choiceRT_color,2021.2.3,MacIntel,55.55555556,,,,,,,,7,Slow,long,k,1,2.113,4,3,19,3,1,,,,,
,1.42,,,,,,,,,d,orange,610711919fb0266145523caf,2021-11-03_11h50.58,forced_choiceRT_color,2021.2.3,MacIntel,55.55555556,,,,,,,,7,Ontime,long,d,1,2.045,5,0,20,0,1,,,,,
,0.86,,,,,,,,,j,red,610711919fb0266145523caf,2021-11-03_11h50.58,forced_choiceRT_color,2021.2.3,MacIntel,55.55555556,,,,,,,,7,Ontime,long,j,1,2.095,5,1,21,2,1,,,,,
,0.2,,,,,,,,,f,blue,610711919fb0266145523caf,2021-11-03_11h50.58,forced_choiceRT_color,2021.2.3,MacIntel,55.55555556,,,,,,,,7,Ontime,long,f,1,1.974,5,2,22,1,1,,,,,
,0.73,,,,,,,,,j,red,610711919fb0266145523caf,2021-11-03_11h50.58,forced_choiceRT_color,2021.2.3,MacIntel,55.55555556,,,,,,,,7,Fast,long,j,1,1.77,5,3,23,2,1,,,,,
,0.9,,,,,,,,,k,purple,610711919fb0266145523caf,2021-11-03_11h50.58,forced_choiceRT_color,2021.2.3,MacIntel,55.55555556,,,,,,,,7,Ontime,long,k,1,2.014,6,0,24,3,1,,,,,
,0.94,,,,,,,,,f,blue,610711919fb0266145523caf,2021-11-03_11h50.58,forced_choiceRT_color,2021.2.3,MacIntel,55.55555556,,,,,,,,7,Ontime,long,j,0,1.995,6,1,25,1,1,,,,,
,0.7,,,,,,,,,d,orange,610711919fb0266145523caf,2021-11-03_11h50.58,forced_choiceRT_color,2021.2.3,MacIntel,55.55555556,,,,,,,,7,Ontime,long,d,1,2.096,6,2,26,0,1,,,,,
,1.35,,,,,,,,,k,purple,610711919fb0266145523caf,2021-11-03_11h50.58,forced_choiceRT_color,2021.2.3,MacIntel,55.55555556,,,,,,,,7,Slow,long,k,1,2.161,6,3,27,3,1,,,,,
,1.64,,,,,,,,,f,blue,610711919fb0266145523caf,2021-11-03_11h50.58,forced_choiceRT_color,2021.2.3,MacIntel,55.55555556,,,,,,,,7,Slow,long,f,1,2.286,7,0,28,1,1,,,,,
,0.87,,,,,,,,,d,orange,610711919fb0266145523caf,2021-11-03_11h50.58,forced_choiceRT_color,2021.2.3,MacIntel,55.55555556,,,,,,,,7,Ontime,long,d,1,2.07,7,1,29,0,1,,,,,
,1.32,,,,,,,,,j,red,610711919fb0266145523caf,2021-11-03_11h50.58,forced_choiceRT_color,2021.2.3,MacIntel,55.55555556,,,,,,,,7,Ontime,long,f,0,2.086,7,2,30,2,1,,,,,
,0.27,,,,,,,,,j,red,610711919fb0266145523caf,2021-11-03_11h50.58,forced_choiceRT_color,2021.2.3,MacIntel,55.55555556,,,,,,,,7,Slow,long,j,1,2.104,7,3,31,2,1,,,,,
,0.01,,,,,,,,,j,red,610711919fb0266145523caf,2021-11-03_11h50.58,forced_choiceRT_color,2021.2.3,MacIntel,55.55555556,,,,,,,,7,Ontime,long,j,1,2.002,8,0,32,2,1,,,,,
,1.05,,,,,,,,,d,orange,610711919fb0266145523caf,2021-11-03_11h50.58,forced_choiceRT_color,2021.2.3,MacIntel,55.55555556,,,,,,,,7,Ontime,long,f,0,2.064,8,1,33,0,1,,,,,
,0.42,,,,,,,,,j,red,610711919fb0266145523caf,2021-11-03_11h50.58,forced_choiceRT_color,2021.2.3,MacIntel,55.55555556,,,,,,,,7,Ontime,long,j,1,2.036,8,2,34,2,1,,,,,
,0.42,,,,,,,,,k,purple,610711919fb0266145523caf,2021-11-03_11h50.58,forced_choiceRT_color,2021.2.3,MacIntel,55.55555556,,,,,,,,7,Ontime,long,k,1,2.028,8,3,35,3,1,,,,,
,0.68,,,,,,,,,f,blue,610711919fb0266145523caf,2021-11-03_11h50.58,forced_choiceRT_color,2021.2.3,MacIntel,55.55555556,,,,,,,,7,Ontime,long,j,0,2.036,9,0,36,1,1,,,,,
,1.58,,,,,,,,,j,red,610711919fb0266145523caf,2021-11-03_11h50.58,forced_choiceRT_color,2021.2.3,MacIntel,55.55555556,,,,,,,,7,Ontime,long,f,0,2.099,9,1,37,2,1,,,,,
,0.2,,,,,,,,,d,orange,610711919fb0266145523caf,2021-11-03_11h50.58,forced_choiceRT_color,2021.2.3,MacIntel,55.55555556,,,,,,,,7,Fast,long,d,1,1.803,9,2,38,0,1,,,,,
,1.75,,,,,,,,,k,purple,610711919fb0266145523caf,2021-11-03_11h50.58,forced_choiceRT_color,2021.2.3,MacIntel,55.55555556,,,,,,,,7,Slow,long,f,0,2.139,9,3,39,3,1,,,,,
,,,,,,,,,,,,610711919fb0266145523caf,2021-11-03_11h50.58,forced_choiceRT_color,2021.2.3,MacIntel,55.55555556,,,,,,,,,,,,,,,,,,,6,0,6,0,1
,1.04,,,,,,,,,j,red,610711919fb0266145523caf,2021-11-03_11h50.58,forced_choiceRT_color,2021.2.3,MacIntel,55.55555556,,,,,,,,8,Ontime,long,j,1,2.057,0,0,0,2,1,,,,,
,1.04,,,,,,,,,j,red,610711919fb0266145523caf,2021-11-03_11h50.58,forced_choiceRT_color,2021.2.3,MacIntel,55.55555556,,,,,,,,8,Ontime,long,j,1,2.052,0,1,1,2,1,,,,,
,1.31,,,,,,,,,j,red,610711919fb0266145523caf,2021-11-03_11h50.58,forced_choiceRT_color,2021.2.3,MacIntel,55.55555556,,,,,,,,8,Ontime,long,j,1,1.989,0,2,2,2,1,,,,,
,1.77,,,,,,,,,j,red,610711919fb0266145523caf,2021-11-03_11h50.58,forced_choiceRT_color,2021.2.3,MacIntel,55.55555556,,,,,,,,8,Ontime,long,j,1,2.047,0,3,3,2,1,,,,,
,0.4,,,,,,,,,f,blue,610711919fb0266145523caf,2021-11-03_11h50.58,forced_choiceRT_color,2021.2.3,MacIntel,55.55555556,,,,,,,,8,Ontime,long,f,1,1.957,1,0,4,1,1,,,,,
,0.42,,,,,,,,,k,purple,610711919fb0266145523caf,2021-11-03_11h50.58,forced_choiceRT_color,2021.2.3,MacIntel,55.55555556,,,,,,,,8,Ontime,long,k,1,1.986,1,1,5,3,1,,,,,
,1.13,,,,,,,,,j,red,610711919fb0266145523caf,2021-11-03_11h50.58,forced_choiceRT_color,2021.2.3,MacIntel,55.55555556,,,,,,,,8,Fast,long,d,0,1.683,1,2,6,2,1,,,,,
,1.13,,,,,,,,,d,orange,610711919fb0266145523caf,2021-11-03_11h50.58,forced_choiceRT_color,2021.2.3,MacIntel,55.55555556,,,,,,,,8,Ontime,long,d,1,2.028,1,3,7,0,1,,,,,
,1.59,,,,,,,,,d,orange,610711919fb0266145523caf,2021-11-03_11h50.58,forced_choiceRT_color,2021.2.3,MacIntel,55.55555556,,,,,,,,8,Ontime,long,d,1,2.086,2,0,8,0,1,,,,,
,1.83,,,,,,,,,f,blue,610711919fb0266145523caf,2021-11-03_11h50.58,forced_choiceRT_color,2021.2.3,MacIntel,55.55555556,,,,,,,,8,Slow,long,d,0,2.221,2,1,9,1,1,,,,,
,0.48,,,,,,,,,d,orange,610711919fb0266145523caf,2021-11-03_11h50.58,forced_choiceRT_color,2021.2.3,MacIntel,55.55555556,,,,,,,,8,Ontime,long,d,1,1.965,2,2,10,0,1,,,,,
,0.97,,,,,,,,,d,orange,610711919fb0266145523caf,2021-11-03_11h50.58,forced_choiceRT_color,2021.2.3,MacIntel,55.55555556,,,,,,,,8,Ontime,long,d,1,1.944,2,3,11,0,1,,,,,
,1.59,,,,,,,,,j,red,610711919fb0266145523caf,2021-11-03_11h50.58,forced_choiceRT_color,2021.2.3,MacIntel,55.55555556,,,,,,,,8,Fast,long,f,0,1.879,3,0,12,2,1,,,,,
,1.19,,,,,,,,,k,purple,610711919fb0266145523caf,2021-11-03_11h50.58,forced_choiceRT_color,2021.2.3,MacIntel,55.55555556,,,,,,,,8,Ontime,long,k,1,2.046,3,1,13,3,1,,,,,
,1.89,,,,,,,,,d,orange,610711919fb0266145523caf,2021-11-03_11h50.58,forced_choiceRT_color,2021.2.3,MacIntel,55.55555556,,,,,,,,8,Slow,long,j,0,2.168,3,2,14,0,1,,,,,
,1.29,,,,,,,,,d,orange,610711919fb0266145523caf,2021-11-03_11h50.58,forced_choiceRT_color,2021.2.3,MacIntel,55.55555556,,,,,,,,8,Fast,long,f,0,1.883,3,3,15,0,1,,,,,
,0.72,,,,,,,,,k,purple,610711919fb0266145523caf,2021-11-03_11h50.58,forced_choiceRT_color,2021.2.3,MacIntel,55.55555556,,,,,,,,8,Ontime,long,k,1,1.988,4,0,16,3,1,,,,,
,0.92,,,,,,,,,k,purple,610711919fb0266145523caf,2021-11-03_11h50.58,forced_choiceRT_color,2021.2.3,MacIntel,55.55555556,,,,,,,,8,Ontime,long,k,1,2.027,4,1,17,3,1,,,,,
,1.19,,,,,,,,,f,blue,610711919fb0266145523caf,2021-11-03_11h50.58,forced_choiceRT_color,2021.2.3,MacIntel,55.55555556,,,,,,,,8,Ontime,long,f,1,1.905,4,2,18,1,1,,,,,
,1.48,,,,,,,,,d,orange,610711919fb0266145523caf,2021-11-03_11h50.58,forced_choiceRT_color,2021.2.3,MacIntel,55.55555556,,,,,,,,8,Slow,long,d,1,2.239,4,3,19,0,1,,,,,
,1.04,,,,,,,,,d,orange,610711919fb0266145523caf,2021-11-03_11h50.58,forced_choiceRT_color,2021.2.3,MacIntel,55.55555556,,,,,,,,8,Ontime,long,d,1,2.007,5,0,20,0,1,,,,,
,0.15,,,,,,,,,j,red,610711919fb0266145523caf,2021-11-03_11h50.58,forced_choiceRT_color,2021.2.3,MacIntel,55.55555556,,,,,,,,8,Ontime,long,j,1,1.929,5,1,21,2,1,,,,,
,1.52,,,,,,,,,k,purple,610711919fb0266145523caf,2021-11-03_11h50.58,forced_choiceRT_color,2021.2.3,MacIntel,55.55555556,,,,,,,,8,Slow,long,d,0,2.117,5,2,22,3,1,,,,,
,0.85,,,,,,,,,j,red,610711919fb0266145523caf,2021-11-03_11h50.58,forced_choiceRT_color,2021.2.3,MacIntel,55.55555556,,,,,,,,8,Ontime,long,j,1,1.997,5,3,23,2,1,,,,,
,1.99,,,,,,,,,j,red,610711919fb0266145523caf,2021-11-03_11h50.58,forced_choiceRT_color,2021.2.3,MacIntel,55.55555556,,,,,,,,8,Slow,long,k,0,2.319,6,0,24,2,1,,,,,
,1.99,,,,,,,,,j,red,610711919fb0266145523caf,2021-11-03_11h50.58,forced_choiceRT_color,2021.2.3,MacIntel,55.55555556,,,,,,,,8,Slow,long,j,1,2.522,6,1,25,2,1,,,,,
,0.09,,,,,,,,,f,blue,610711919fb0266145523caf,2021-11-03_11h50.58,forced_choiceRT_color,2021.2.3,MacIntel,55.55555556,,,,,,,,8,Ontime,long,f,1,1.996,6,2,26,1,1,,,,,
,1.82,,,,,,,,,f,blue,610711919fb0266145523caf,2021-11-03_11h50.58,forced_choiceRT_color,2021.2.3,MacIntel,55.55555556,,,,,,,,8,Ontime,long,k,0,2.053,6,3,27,1,1,,,,,
,0.78,,,,,,,,,f,blue,610711919fb0266145523caf,2021-11-03_11h50.58,forced_choiceRT_color,2021.2.3,MacIntel,55.55555556,,,,,,,,8,Ontime,long,f,1,2.062,7,0,28,1,1,,,,,
,0.74,,,,,,,,,f,blue,610711919fb0266145523caf,2021-11-03_11h50.58,forced_choiceRT_color,2021.2.3,MacIntel,55.55555556,,,,,,,,8,Ontime,long,f,1,1.97,7,1,29,1,1,,,,,
,0.23,,,,,,,,,k,purple,610711919fb0266145523caf,2021-11-03_11h50.58,forced_choiceRT_color,2021.2.3,MacIntel,55.55555556,,,,,,,,8,Ontime,long,k,1,1.915,7,2,30,3,1,,,,,
,1.54,,,,,,,,,d,orange,610711919fb0266145523caf,2021-11-03_11h50.58,forced_choiceRT_color,2021.2.3,MacIntel,55.55555556,,,,,,,,8,Slow,long,f,0,2.128,7,3,31,0,1,,,,,
,1.22,,,,,,,,,f,blue,610711919fb0266145523caf,2021-11-03_11h50.58,forced_choiceRT_color,2021.2.3,MacIntel,55.55555556,,,,,,,,8,Ontime,long,f,1,1.948,8,0,32,1,1,,,,,
,1.91,,,,,,,,,f,blue,610711919fb0266145523caf,2021-11-03_11h50.58,forced_choiceRT_color,2021.2.3,MacIntel,55.55555556,,,,,,,,8,Ontime,long,j,0,1.995,8,1,33,1,1,,,,,
,0.01,,,,,,,,,k,purple,610711919fb0266145523caf,2021-11-03_11h50.58,forced_choiceRT_color,2021.2.3,MacIntel,55.55555556,,,,,,,,8,Ontime,long,k,1,1.979,8,2,34,3,1,,,,,
,1.33,,,,,,,,,k,purple,610711919fb0266145523caf,2021-11-03_11h50.58,forced_choiceRT_color,2021.2.3,MacIntel,55.55555556,,,,,,,,8,Ontime,long,k,1,2.062,8,3,35,3,1,,,,,
,0.02,,,,,,,,,k,purple,610711919fb0266145523caf,2021-11-03_11h50.58,forced_choiceRT_color,2021.2.3,MacIntel,55.55555556,,,,,,,,8,Ontime,long,k,1,2.056,9,0,36,3,1,,,,,
,1.77,,,,,,,,,f,blue,610711919fb0266145523caf,2021-11-03_11h50.58,forced_choiceRT_color,2021.2.3,MacIntel,55.55555556,,,,,,,,8,Ontime,long,f,1,1.961,9,1,37,1,1,,,,,
,1.71,,,,,,,,,k,purple,610711919fb0266145523caf,2021-11-03_11h50.58,forced_choiceRT_color,2021.2.3,MacIntel,55.55555556,,,,,,,,8,Ontime,long,f,0,1.97,9,2,38,3,1,,,,,
,1.01,,,,,,,,,d,orange,610711919fb0266145523caf,2021-11-03_11h50.58,forced_choiceRT_color,2021.2.3,MacIntel,55.55555556,,,,,,,,8,Ontime,long,d,1,2.09,9,3,39,0,1,,,,,
,,,,,,,,,,,,610711919fb0266145523caf,2021-11-03_11h50.58,forced_choiceRT_color,2021.2.3,MacIntel,55.55555556,,,,,,,,,,,,,,,,,,,7,0,7,0,1
,1.96,,,,,,,,,f,blue,610711919fb0266145523caf,2021-11-03_11h50.58,forced_choiceRT_color,2021.2.3,MacIntel,55.55555556,,,,,,,,9,Ontime,long,d,0,2.012,0,0,0,1,1,,,,,
,1.94,,,,,,,,,k,purple,610711919fb0266145523caf,2021-11-03_11h50.58,forced_choiceRT_color,2021.2.3,MacIntel,55.55555556,,,,,,,,9,Slow,long,d,0,2.211,0,1,1,3,1,,,,,
,1.63,,,,,,,,,k,purple,610711919fb0266145523caf,2021-11-03_11h50.58,forced_choiceRT_color,2021.2.3,MacIntel,55.55555556,,,,,,,,9,Fast,long,k,1,1.874,0,2,2,3,1,,,,,
,0.65,,,,,,,,,f,blue,610711919fb0266145523caf,2021-11-03_11h50.58,forced_choiceRT_color,2021.2.3,MacIntel,55.55555556,,,,,,,,9,Ontime,long,j,0,2.004,0,3,3,1,1,,,,,
,0.54,,,,,,,,,k,purple,610711919fb0266145523caf,2021-11-03_11h50.58,forced_choiceRT_color,2021.2.3,MacIntel,55.55555556,,,,,,,,9,Ontime,long,k,1,1.989,1,0,4,3,1,,,,,
,1.74,,,,,,,,,j,red,610711919fb0266145523caf,2021-11-03_11h50.58,forced_choiceRT_color,2021.2.3,MacIntel,55.55555556,,,,,,,,9,Fast,long,f,0,1.897,1,1,5,2,1,,,,,
,0.99,,,,,,,,,d,orange,610711919fb0266145523caf,2021-11-03_11h50.58,forced_choiceRT_color,2021.2.3,MacIntel,55.55555556,,,,,,,,9,Ontime,long,d,1,2.005,1,2,6,0,1,,,,,
,1.18,,,,,,,,,d,orange,610711919fb0266145523caf,2021-11-03_11h50.58,forced_choiceRT_color,2021.2.3,MacIntel,55.55555556,,,,,,,,9,Fast,long,d,1,1.791,1,3,7,0,1,,,,,
,1.75,,,,,,,,,f,blue,610711919fb0266145523caf,2021-11-03_11h50.58,forced_choiceRT_color,2021.2.3,MacIntel,55.55555556,,,,,,,,9,Ontime,long,f,1,1.99,2,0,8,1,1,,,,,
,1.51,,,,,,,,,f,blue,610711919fb0266145523caf,2021-11-03_11h50.58,forced_choiceRT_color,2021.2.3,MacIntel,55.55555556,,,,,,,,9,Ontime,long,f,1,2.014,2,1,9,1,1,,,,,
,0.38,,,,,,,,,j,red,610711919fb0266145523caf,2021-11-03_11h50.58,forced_choiceRT_color,2021.2.3,MacIntel,55.55555556,,,,,,,,9,Ontime,long,j,1,1.965,2,2,10,2,1,,,,,
,1.74,,,,,,,,,k,purple,610711919fb0266145523caf,2021-11-03_11h50.58,forced_choiceRT_color,2021.2.3,MacIntel,55.55555556,,,,,,,,9,Ontime,long,j,0,1.909,2,3,11,3,1,,,,,
,0.09,,,,,,,,,f,blue,610711919fb0266145523caf,2021-11-03_11h50.58,forced_choiceRT_color,2021.2.3,MacIntel,55.55555556,,,,,,,,9,Ontime,long,j,0,1.97,3,0,12,1,1,,,,,
,0.37,,,,,,,,,j,red,610711919fb0266145523caf,2021-11-03_11h50.58,forced_choiceRT_color,2021.2.3,MacIntel,55.55555556,,,,,,,,9,Ontime,long,j,1,2.02,3,1,13,2,1,,,,,
,1.7,,,,,,,,,d,orange,610711919fb0266145523caf,2021-11-03_11h50.58,forced_choiceRT_color,2021.2.3,MacIntel,55.55555556,,,,,,,,9,Ontime,long,j,0,2.019,3,2,14,0,1,,,,,
,1.74,,,,,,,,,k,purple,610711919fb0266145523caf,2021-11-03_11h50.58,forced_choiceRT_color,2021.2.3,MacIntel,55.55555556,,,,,,,,9,Ontime,long,d,0,1.906,3,3,15,3,1,,,,,
,0.33,,,,,,,,,f,blue,610711919fb0266145523caf,2021-11-03_11h50.58,forced_choiceRT_color,2021.2.3,MacIntel,55.55555556,,,,,,,,9,Ontime,long,f,1,1.948,4,0,16,1,1,,,,,
,1.45,,,,,,,,,f,blue,610711919fb0266145523caf,2021-11-03_11h50.58,forced_choiceRT_color,2021.2.3,MacIntel,55.55555556,,,,,,,,9,Fast,long,f,1,1.862,4,1,17,1,1,,,,,
,0.56,,,,,,,,,d,orange,610711919fb0266145523caf,2021-11-03_11h50.58,forced_choiceRT_color,2021.2.3,MacIntel,55.55555556,,,,,,,,9,Fast,long,d,1,1.896,4,2,18,0,1,,,,,
,0.63,,,,,,,,,f,blue,610711919fb0266145523caf,2021-11-03_11h50.58,forced_choiceRT_color,2021.2.3,MacIntel,55.55555556,,,,,,,,9,Ontime,long,f,1,1.978,4,3,19,1,1,,,,,
,0.52,,,,,,,,,d,orange,610711919fb0266145523caf,2021-11-03_11h50.58,forced_choiceRT_color,2021.2.3,MacIntel,55.55555556,,,,,,,,9,Ontime,long,d,1,1.957,5,0,20,0,1,,,,,
,0.49,,,,,,,,,j,red,610711919fb0266145523caf,2021-11-03_11h50.58,forced_choiceRT_color,2021.2.3,MacIntel,55.55555556,,,,,,,,9,Ontime,long,j,1,1.929,5,1,21,2,1,,,,,
,0.22,,,,,,,,,k,purple,610711919fb0266145523caf,2021-11-03_11h50.58,forced_choiceRT_color,2021.2.3,MacIntel,55.55555556,,,,,,,,9,Ontime,long,k,1,2.012,5,2,22,3,1,,,,,
,1.36,,,,,,,,,j,red,610711919fb0266145523caf,2021-11-03_11h50.58,forced_choiceRT_color,2021.2.3,MacIntel,55.55555556,,,,,,,,9,Fast,long,j,1,1.871,5,3,23,2,1,,,,,
,0.11,,,,,,,,,d,orange,610711919fb0266145523caf,2021-11-03_11h50.58,forced_choiceRT_color,2021.2.3,MacIntel,55.55555556,,,,,,,,9,Ontime,long,d,1,1.977,6,0,24,0,1,,,,,
,1.31,,,,,,,,,d,orange,610711919fb0266145523caf,2021-11-03_11h50.58,forced_choiceRT_color,2021.2.3,MacIntel,55.55555556,,,,,,,,9,Ontime,long,d,1,2.073,6,1,25,0,1,,,,,
,1.56,,,,,,,,,d,orange,610711919fb0266145523caf,2021-11-03_11h50.58,forced_choiceRT_color,2021.2.3,MacIntel,55.55555556,,,,,,,,9,Slow,long,d,1,2.256,6,2,26,0,1,,,,,
,1.42,,,,,,,,,k,purple,610711919fb0266145523caf,2021-11-03_11h50.58,forced_choiceRT_color,2021.2.3,MacIntel,55.55555556,,,,,,,,9,Ontime,long,k,1,1.972,6,3,27,3,1,,,,,
,1.38,,,,,,,,,k,purple,610711919fb0266145523caf,2021-11-03_11h50.58,forced_choiceRT_color,2021.2.3,MacIntel,55.55555556,,,,,,,,9,Ontime,long,k,1,2.038,7,0,28,3,1,,,,,
,1.24,,,,,,,,,f,blue,610711919fb0266145523caf,2021-11-03_11h50.58,forced_choiceRT_color,2021.2.3,MacIntel,55.55555556,,,,,,,,9,Ontime,long,f,1,2.047,7,1,29,1,1,,,,,
,0.38,,,,,,,,,k,purple,610711919fb0266145523caf,2021-11-03_11h50.58,forced_choiceRT_color,2021.2.3,MacIntel,55.55555556,,,,,,,,9,Ontime,long,k,1,1.937,7,2,30,3,1,,,,,
,1.94,,,,,,,,,f,blue,610711919fb0266145523caf,2021-11-03_11h50.58,forced_choiceRT_color,2021.2.3,MacIntel,55.55555556,,,,,,,,9,Slow,long,k,0,2.136,7,3,31,1,1,,,,,
,0.2,,,,,,,,,d,orange,610711919fb0266145523caf,2021-11-03_11h50.58,forced_choiceRT_color,2021.2.3,MacIntel,55.55555556,,,,,,,,9,Ontime,long,d,1,2.054,8,0,32,0,1,,,,,
,1.48,,,,,,,,,d,orange,610711919fb0266145523caf,2021-11-03_11h50.58,forced_choiceRT_color,2021.2.3,MacIntel,55.55555556,,,,,,,,9,Ontime,long,d,1,1.918,8,1,33,0,1,,,,,
,1.03,,,,,,,,,k,purple,610711919fb0266145523caf,2021-11-03_11h50.58,forced_choiceRT_color,2021.2.3,MacIntel,55.55555556,,,,,,,,9,Ontime,long,k,1,1.966,8,2,34,3,1,,,,,
,0.97,,,,,,,,,j,red,610711919fb0266145523caf,2021-11-03_11h50.58,forced_choiceRT_color,2021.2.3,MacIntel,55.55555556,,,,,,,,9,Ontime,long,j,1,1.954,8,3,35,2,1,,,,,
,1.49,,,,,,,,,j,red,610711919fb0266145523caf,2021-11-03_11h50.58,forced_choiceRT_color,2021.2.3,MacIntel,55.55555556,,,,,,,,9,Ontime,long,j,1,2.047,9,0,36,2,1,,,,,
,0.59,,,,,,,,,j,red,610711919fb0266145523caf,2021-11-03_11h50.58,forced_choiceRT_color,2021.2.3,MacIntel,55.55555556,,,,,,,,9,Ontime,long,j,1,2.087,9,1,37,2,1,,,,,
,1.66,,,,,,,,,j,red,610711919fb0266145523caf,2021-11-03_11h50.58,forced_choiceRT_color,2021.2.3,MacIntel,55.55555556,,,,,,,,9,Fast,long,f,0,1.89,9,2,38,2,1,,,,,
,0.84,,,,,,,,,j,red,610711919fb0266145523caf,2021-11-03_11h50.58,forced_choiceRT_color,2021.2.3,MacIntel,55.55555556,,,,,,,,9,Ontime,long,j,1,1.974,9,3,39,2,1,,,,,
,,,,,,,,,,,,610711919fb0266145523caf,2021-11-03_11h50.58,forced_choiceRT_color,2021.2.3,MacIntel,55.55555556,,,,,,,,,,,,,,,,,,,8,0,8,0,1
,1.02,,,,,,,,,j,red,610711919fb0266145523caf,2021-11-03_11h50.58,forced_choiceRT_color,2021.2.3,MacIntel,55.55555556,,,,,,,,10,Fast,long,j,1,1.899,0,0,0,2,1,,,,,
,0.75,,,,,,,,,f,blue,610711919fb0266145523caf,2021-11-03_11h50.58,forced_choiceRT_color,2021.2.3,MacIntel,55.55555556,,,,,,,,10,Ontime,long,f,1,2.028,0,1,1,1,1,,,,,
,0.6,,,,,,,,,k,purple,610711919fb0266145523caf,2021-11-03_11h50.58,forced_choiceRT_color,2021.2.3,MacIntel,55.55555556,,,,,,,,10,Ontime,long,k,1,2.028,0,2,2,3,1,,,,,
,1.67,,,,,,,,,f,blue,610711919fb0266145523caf,2021-11-03_11h50.58,forced_choiceRT_color,2021.2.3,MacIntel,55.55555556,,,,,,,,10,Ontime,long,j,0,2.038,0,3,3,1,1,,,,,
,1.79,,,,,,,,,k,purple,610711919fb0266145523caf,2021-11-03_11h50.58,forced_choiceRT_color,2021.2.3,MacIntel,55.55555556,,,,,,,,10,Ontime,long,k,1,2.029,1,0,4,3,1,,,,,
,1.59,,,,,,,,,d,orange,610711919fb0266145523caf,2021-11-03_11h50.58,forced_choiceRT_color,2021.2.3,MacIntel,55.55555556,,,,,,,,10,Slow,long,d,1,2.118,1,1,5,0,1,,,,,
,1.19,,,,,,,,,j,red,610711919fb0266145523caf,2021-11-03_11h50.58,forced_choiceRT_color,2021.2.3,MacIntel,55.55555556,,,,,,,,10,Ontime,long,j,1,1.987,1,2,6,2,1,,,,,
,1.42,,,,,,,,,d,orange,610711919fb0266145523caf,2021-11-03_11h50.58,forced_choiceRT_color,2021.2.3,MacIntel,55.55555556,,,,,,,,10,Ontime,long,d,1,2.055,1,3,7,0,1,,,,,
,1.34,,,,,,,,,d,orange,610711919fb0266145523caf,2021-11-03_11h50.58,forced_choiceRT_color,2021.2.3,MacIntel,55.55555556,,,,,,,,10,Slow,long,d,1,2.178,2,0,8,0,1,,,,,
,0.44,,,,,,,,,f,blue,610711919fb0266145523caf,2021-11-03_11h50.58,forced_choiceRT_color,2021.2.3,MacIntel,55.55555556,,,,,,,,10,Ontime,long,f,1,2.049,2,1,9,1,1,,,,,
,1.83,,,,,,,,,k,purple,610711919fb0266145523caf,2021-11-03_11h50.58,forced_choiceRT_color,2021.2.3,MacIntel,55.55555556,,,,,,,,10,Ontime,long,j,0,2.02,2,2,10,3,1,,,,,
,0.97,,,,,,,,,k,purple,610711919fb0266145523caf,2021-11-03_11h50.58,forced_choiceRT_color,2021.2.3,MacIntel,55.55555556,,,,,,,,10,Ontime,long,k,1,2.044,2,3,11,3,1,,,,,
,0.85,,,,,,,,,j,red,610711919fb0266145523caf,2021-11-03_11h50.58,forced_choiceRT_color,2021.2.3,MacIntel,55.55555556,,,,,,,,10,Ontime,long,j,1,1.988,3,0,12,2,1,,,,,
,0.44,,,,,,,,,j,red,610711919fb0266145523caf,2021-11-03_11h50.58,forced_choiceRT_color,2021.2.3,MacIntel,55.55555556,,,,,,,,10,Ontime,long,j,1,2.062,3,1,13,2,1,,,,,
,1.54,,,,,,,,,d,orange,610711919fb0266145523caf,2021-11-03_11h50.58,forced_choiceRT_color,2021.2.3,MacIntel,55.55555556,,,,,,,,10,Slow,long,d,1,2.318,3,2,14,0,1,,,,,
,0.29,,,,,,,,,f,blue,610711919fb0266145523caf,2021-11-03_11h50.58,forced_choiceRT_color,2021.2.3,MacIntel,55.55555556,,,,,,,,10,Ontime,long,f,1,1.996,3,3,15,1,1,,,,,
,0.06,,,,,,,,,d,orange,610711919fb0266145523caf,2021-11-03_11h50.58,forced_choiceRT_color,2021.2.3,MacIntel,55.55555556,,,,,,,,10,Ontime,long,d,1,2.008,4,0,16,0,1,,,,,
,0.3,,,,,,,,,k,purple,610711919fb0266145523caf,2021-11-03_11h50.58,forced_choiceRT_color,2021.2.3,MacIntel,55.55555556,,,,,,,,10,Fast,long,k,1,1.889,4,1,17,3,1,,,,,
,1.47,,,,,,,,,k,purple,610711919fb0266145523caf,2021-11-03_11h50.58,forced_choiceRT_color,2021.2.3,MacIntel,55.55555556,,,,,,,,10,Fast,long,k,1,1.86,4,2,18,3,1,,,,,
,1.77,,,,,,,,,j,red,610711919fb0266145523caf,2021-11-03_11h50.58,forced_choiceRT_color,2021.2.3,MacIntel,55.55555556,,,,,,,,10,Slow,long,k,0,2.123,4,3,19,2,1,,,,,
,0.98,,,,,,,,,k,purple,610711919fb0266145523caf,2021-11-03_11h50.58,forced_choiceRT_color,2021.2.3,MacIntel,55.55555556,,,,,,,,10,Ontime,long,k,1,2.014,5,0,20,3,1,,,,,
,0.79,,,,,,,,,k,purple,610711919fb0266145523caf,2021-11-03_11h50.58,forced_choiceRT_color,2021.2.3,MacIntel,55.55555556,,,,,,,,10,Slow,long,k,1,2.345,5,1,21,3,1,,,,,
,1.88,,,,,,,,,f,blue,610711919fb0266145523caf,2021-11-03_11h50.58,forced_choiceRT_color,2021.2.3,MacIntel,55.55555556,,,,,,,,10,Ontime,long,k,0,2.015,5,2,22,1,1,,,,,
,1.94,,,,,,,,,d,orange,610711919fb0266145523caf,2021-11-03_11h50.58,forced_choiceRT_color,2021.2.3,MacIntel,55.55555556,,,,,,,,10,Ontime,long,k,0,2.013,5,3,23,0,1,,,,,
,1.62,,,,,,,,,k,purple,610711919fb0266145523caf,2021-11-03_11h50.58,forced_choiceRT_color,2021.2.3,MacIntel,55.55555556,,,,,,,,10,Ontime,long,k,1,2.028,6,0,24,3,1,,,,,
,1.84,,,,,,,,,f,blue,610711919fb0266145523caf,2021-11-03_11h50.58,forced_choiceRT_color,2021.2.3,MacIntel,55.55555556,,,,,,,,10,Ontime,long,k,0,2.045,6,1,25,1,1,,,,,
,0.32,,,,,,,,,d,orange,610711919fb0266145523caf,2021-11-03_11h50.58,forced_choiceRT_color,2021.2.3,MacIntel,55.55555556,,,,,,,,10,Ontime,long,d,1,2.03,6,2,26,0,1,,,,,
,1.94,,,,,,,,,j,red,610711919fb0266145523caf,2021-11-03_11h50.58,forced_choiceRT_color,2021.2.3,MacIntel,55.55555556,,,,,,,,10,Ontime,long,d,0,2.07,6,3,27,2,1,,,,,
,0.36,,,,,,,,,f,blue,610711919fb0266145523caf,2021-11-03_11h50.58,forced_choiceRT_color,2021.2.3,MacIntel,55.55555556,,,,,,,,10,Ontime,long,f,1,2.062,7,0,28,1,1,,,,,
,1.34,,,,,,,,,d,orange,610711919fb0266145523caf,2021-11-03_11h50.58,forced_choiceRT_color,2021.2.3,MacIntel,55.55555556,,,,,,,,10,Ontime,long,d,1,2.012,7,1,29,0,1,,,,,
,0.56,,,,,,,,,f,blue,610711919fb0266145523caf,2021-11-03_11h50.58,forced_choiceRT_color,2021.2.3,MacIntel,55.55555556,,,,,,,,10,Ontime,long,f,1,2.003,7,2,30,1,1,,,,,
,0.12,,,,,,,,,d,orange,610711919fb0266145523caf,2021-11-03_11h50.58,forced_choiceRT_color,2021.2.3,MacIntel,55.55555556,,,,,,,,10,Ontime,long,d,1,2.023,7,3,31,0,1,,,,,
,1.17,,,,,,,,,k,purple,610711919fb0266145523caf,2021-11-03_11h50.58,forced_choiceRT_color,2021.2.3,MacIntel,55.55555556,,,,,,,,10,Ontime,long,j,0,2.062,8,0,32,3,1,,,,,
,0.47,,,,,,,,,f,blue,610711919fb0266145523caf,2021-11-03_11h50.58,forced_choiceRT_color,2021.2.3,MacIntel,55.55555556,,,,,,,,10,Ontime,long,f,1,2.064,8,1,33,1,1,,,,,
,0.27,,,,,,,,,j,red,610711919fb0266145523caf,2021-11-03_11h50.58,forced_choiceRT_color,2021.2.3,MacIntel,55.55555556,,,,,,,,10,Ontime,long,j,1,2.02,8,2,34,2,1,,,,,
,1.29,,,,,,,,,j,red,610711919fb0266145523caf,2021-11-03_11h50.58,forced_choiceRT_color,2021.2.3,MacIntel,55.55555556,,,,,,,,10,Slow,long,j,1,2.115,8,3,35,2,1,,,,,
,1.9,,,,,,,,,j,red,610711919fb0266145523caf,2021-11-03_11h50.58,forced_choiceRT_color,2021.2.3,MacIntel,55.55555556,,,,,,,,10,Ontime,long,k,0,1.986,9,0,36,2,1,,,,,
,0.52,,,,,,,,,f,blue,610711919fb0266145523caf,2021-11-03_11h50.58,forced_choiceRT_color,2021.2.3,MacIntel,55.55555556,,,,,,,,10,Ontime,long,f,1,2.004,9,1,37,1,1,,,,,
,0.91,,,,,,,,,d,orange,610711919fb0266145523caf,2021-11-03_11h50.58,forced_choiceRT_color,2021.2.3,MacIntel,55.55555556,,,,,,,,10,Ontime,long,d,1,1.989,9,2,38,0,1,,,,,
,1.74,,,,,,,,,j,red,610711919fb0266145523caf,2021-11-03_11h50.58,forced_choiceRT_color,2021.2.3,MacIntel,55.55555556,,,,,,,,10,Ontime,long,d,0,2.054,9,3,39,2,1,,,,,
,,,,,,,,,,,,610711919fb0266145523caf,2021-11-03_11h50.58,forced_choiceRT_color,2021.2.3,MacIntel,55.55555556,,,,,,,,,,,,,,,,,,,9,0,9,0,1
