IP_Addresss,target_onset,trial_resp_sp.keys,trial_resp_sp.corr,trial_resp_sp.rt,trials_train_loop.thisRepN,trials_train_loop.thisTrialN,trials_train_loop.thisN,trials_train_loop.thisIndex,trials_train_loop.ran,correct_key,color,participant,date,expName,psychopyVersion,OS,frameRate,trial_resp_timing.keys,trial_resp_timing.rt,trials_train_timing.thisRepN,trials_train_timing.thisTrialN,trials_train_timing.thisN,trials_train_timing.thisIndex,trials_train_timing.ran,block_id,ontime,feedback_cond,forcedRT_resp.keys,forcedRT_resp.corr,forcedRT_resp.rt,trials.thisRepN,trials.thisTrialN,trials.thisN,trials.thisIndex,trials.ran,blocks.thisRepN,blocks.thisTrialN,blocks.thisN,blocks.thisIndex,blocks.ran
24.167.196.49,0,k,0,2.7131,0,0,0,2,1,j,red,61119e35715393a10be3485f,2021-11-03_11h28.24.127,forced_choiceRT_color,2021.2.3,Win32,59.9880024,,,,,,,,,,,,,,,,,,,,,,,
,0,f,1,7.3245,0,1,1,1,1,f,blue,61119e35715393a10be3485f,2021-11-03_11h28.24.127,forced_choiceRT_color,2021.2.3,Win32,59.9880024,,,,,,,,,,,,,,,,,,,,,,,
,0,d,1,1.2858,0,2,2,0,1,d,orange,61119e35715393a10be3485f,2021-11-03_11h28.24.127,forced_choiceRT_color,2021.2.3,Win32,59.9880024,,,,,,,,,,,,,,,,,,,,,,,
,0,j,1,1.462,0,3,3,2,1,j,red,61119e35715393a10be3485f,2021-11-03_11h28.24.127,forced_choiceRT_color,2021.2.3,Win32,59.9880024,,,,,,,,,,,,,,,,,,,,,,,
,0,j,1,1.1715,1,0,4,2,1,j,red,61119e35715393a10be3485f,2021-11-03_11h28.24.127,forced_choiceRT_color,2021.2.3,Win32,59.9880024,,,,,,,,,,,,,,,,,,,,,,,
,0,k,1,0.8842,1,1,5,3,1,k,purple,61119e35715393a10be3485f,2021-11-03_11h28.24.127,forced_choiceRT_color,2021.2.3,Win32,59.9880024,,,,,,,,,,,,,,,,,,,,,,,
,0,d,1,0.8706,1,2,6,0,1,d,orange,61119e35715393a10be3485f,2021-11-03_11h28.24.127,forced_choiceRT_color,2021.2.3,Win32,59.9880024,,,,,,,,,,,,,,,,,,,,,,,
,0,f,1,0.801,1,3,7,1,1,f,blue,61119e35715393a10be3485f,2021-11-03_11h28.24.127,forced_choiceRT_color,2021.2.3,Win32,59.9880024,,,,,,,,,,,,,,,,,,,,,,,
,0,f,1,1.7749,2,0,8,1,1,f,blue,61119e35715393a10be3485f,2021-11-03_11h28.24.127,forced_choiceRT_color,2021.2.3,Win32,59.9880024,,,,,,,,,,,,,,,,,,,,,,,
,0,j,1,1.0504,2,1,9,2,1,j,red,61119e35715393a10be3485f,2021-11-03_11h28.24.127,forced_choiceRT_color,2021.2.3,Win32,59.9880024,,,,,,,,,,,,,,,,,,,,,,,
,0,k,1,0.6837,2,2,10,3,1,k,purple,61119e35715393a10be3485f,2021-11-03_11h28.24.127,forced_choiceRT_color,2021.2.3,Win32,59.9880024,,,,,,,,,,,,,,,,,,,,,,,
,0,d,1,0.5854,2,3,11,0,1,d,orange,61119e35715393a10be3485f,2021-11-03_11h28.24.127,forced_choiceRT_color,2021.2.3,Win32,59.9880024,,,,,,,,,,,,,,,,,,,,,,,
,0,k,1,0.8175,3,0,12,3,1,k,purple,61119e35715393a10be3485f,2021-11-03_11h28.24.127,forced_choiceRT_color,2021.2.3,Win32,59.9880024,,,,,,,,,,,,,,,,,,,,,,,
,0,j,1,0.9173,3,1,13,2,1,j,red,61119e35715393a10be3485f,2021-11-03_11h28.24.127,forced_choiceRT_color,2021.2.3,Win32,59.9880024,,,,,,,,,,,,,,,,,,,,,,,
,0,d,1,0.8232,3,2,14,0,1,d,orange,61119e35715393a10be3485f,2021-11-03_11h28.24.127,forced_choiceRT_color,2021.2.3,Win32,59.9880024,,,,,,,,,,,,,,,,,,,,,,,
,0,f,1,1.0341,3,3,15,1,1,f,blue,61119e35715393a10be3485f,2021-11-03_11h28.24.127,forced_choiceRT_color,2021.2.3,Win32,59.9880024,,,,,,,,,,,,,,,,,,,,,,,
,0,d,1,0.741,4,0,16,0,1,d,orange,61119e35715393a10be3485f,2021-11-03_11h28.24.127,forced_choiceRT_color,2021.2.3,Win32,59.9880024,,,,,,,,,,,,,,,,,,,,,,,
,0,k,1,1.0677,4,1,17,3,1,k,purple,61119e35715393a10be3485f,2021-11-03_11h28.24.127,forced_choiceRT_color,2021.2.3,Win32,59.9880024,,,,,,,,,,,,,,,,,,,,,,,
,0,f,1,1.0171,4,2,18,1,1,f,blue,61119e35715393a10be3485f,2021-11-03_11h28.24.127,forced_choiceRT_color,2021.2.3,Win32,59.9880024,,,,,,,,,,,,,,,,,,,,,,,
,0,f,1,0.5845,4,3,19,1,1,f,blue,61119e35715393a10be3485f,2021-11-03_11h28.24.127,forced_choiceRT_color,2021.2.3,Win32,59.9880024,,,,,,,,,,,,,,,,,,,,,,,
,0,f,1,0.5907,5,0,20,1,1,f,blue,61119e35715393a10be3485f,2021-11-03_11h28.24.127,forced_choiceRT_color,2021.2.3,Win32,59.9880024,,,,,,,,,,,,,,,,,,,,,,,
,0,j,1,0.6842,5,1,21,2,1,j,red,61119e35715393a10be3485f,2021-11-03_11h28.24.127,forced_choiceRT_color,2021.2.3,Win32,59.9880024,,,,,,,,,,,,,,,,,,,,,,,
,0,d,1,0.624,5,2,22,0,1,d,orange,61119e35715393a10be3485f,2021-11-03_11h28.24.127,forced_choiceRT_color,2021.2.3,Win32,59.9880024,,,,,,,,,,,,,,,,,,,,,,,
,0,f,1,0.6413,5,3,23,1,1,f,blue,61119e35715393a10be3485f,2021-11-03_11h28.24.127,forced_choiceRT_color,2021.2.3,Win32,59.9880024,,,,,,,,,,,,,,,,,,,,,,,
,0,k,1,0.7417,6,0,24,3,1,k,purple,61119e35715393a10be3485f,2021-11-03_11h28.24.127,forced_choiceRT_color,2021.2.3,Win32,59.9880024,,,,,,,,,,,,,,,,,,,,,,,
,0,k,1,0.5557,6,1,25,3,1,k,purple,61119e35715393a10be3485f,2021-11-03_11h28.24.127,forced_choiceRT_color,2021.2.3,Win32,59.9880024,,,,,,,,,,,,,,,,,,,,,,,
,0,d,1,0.7503,6,2,26,0,1,d,orange,61119e35715393a10be3485f,2021-11-03_11h28.24.127,forced_choiceRT_color,2021.2.3,Win32,59.9880024,,,,,,,,,,,,,,,,,,,,,,,
,0,j,1,0.7349,6,3,27,2,1,j,red,61119e35715393a10be3485f,2021-11-03_11h28.24.127,forced_choiceRT_color,2021.2.3,Win32,59.9880024,,,,,,,,,,,,,,,,,,,,,,,
,0,f,1,0.7512,7,0,28,1,1,f,blue,61119e35715393a10be3485f,2021-11-03_11h28.24.127,forced_choiceRT_color,2021.2.3,Win32,59.9880024,,,,,,,,,,,,,,,,,,,,,,,
,0,j,1,0.6014,7,1,29,2,1,j,red,61119e35715393a10be3485f,2021-11-03_11h28.24.127,forced_choiceRT_color,2021.2.3,Win32,59.9880024,,,,,,,,,,,,,,,,,,,,,,,
,0,j,1,0.6345,7,2,30,2,1,j,red,61119e35715393a10be3485f,2021-11-03_11h28.24.127,forced_choiceRT_color,2021.2.3,Win32,59.9880024,,,,,,,,,,,,,,,,,,,,,,,
,0,d,1,1.1842,7,3,31,0,1,d,orange,61119e35715393a10be3485f,2021-11-03_11h28.24.127,forced_choiceRT_color,2021.2.3,Win32,59.9880024,,,,,,,,,,,,,,,,,,,,,,,
,0,d,1,0.4845,8,0,32,0,1,d,orange,61119e35715393a10be3485f,2021-11-03_11h28.24.127,forced_choiceRT_color,2021.2.3,Win32,59.9880024,,,,,,,,,,,,,,,,,,,,,,,
,0,k,1,1.1672,8,1,33,3,1,k,purple,61119e35715393a10be3485f,2021-11-03_11h28.24.127,forced_choiceRT_color,2021.2.3,Win32,59.9880024,,,,,,,,,,,,,,,,,,,,,,,
,0,d,1,0.8009,8,2,34,0,1,d,orange,61119e35715393a10be3485f,2021-11-03_11h28.24.127,forced_choiceRT_color,2021.2.3,Win32,59.9880024,,,,,,,,,,,,,,,,,,,,,,,
,0,k,1,0.6089,8,3,35,3,1,k,purple,61119e35715393a10be3485f,2021-11-03_11h28.24.127,forced_choiceRT_color,2021.2.3,Win32,59.9880024,,,,,,,,,,,,,,,,,,,,,,,
,0,k,1,0.6453,9,0,36,3,1,k,purple,61119e35715393a10be3485f,2021-11-03_11h28.24.127,forced_choiceRT_color,2021.2.3,Win32,59.9880024,,,,,,,,,,,,,,,,,,,,,,,
,0,j,1,0.7243,9,1,37,2,1,j,red,61119e35715393a10be3485f,2021-11-03_11h28.24.127,forced_choiceRT_color,2021.2.3,Win32,59.9880024,,,,,,,,,,,,,,,,,,,,,,,
,0,f,1,0.7008,9,2,38,1,1,f,blue,61119e35715393a10be3485f,2021-11-03_11h28.24.127,forced_choiceRT_color,2021.2.3,Win32,59.9880024,,,,,,,,,,,,,,,,,,,,,,,
,0,d,1,0.6046,9,3,39,0,1,d,orange,61119e35715393a10be3485f,2021-11-03_11h28.24.127,forced_choiceRT_color,2021.2.3,Win32,59.9880024,,,,,,,,,,,,,,,,,,,,,,,
,0,j,1,0.6192,10,0,40,2,1,j,red,61119e35715393a10be3485f,2021-11-03_11h28.24.127,forced_choiceRT_color,2021.2.3,Win32,59.9880024,,,,,,,,,,,,,,,,,,,,,,,
,0,j,1,0.4173,10,1,41,2,1,j,red,61119e35715393a10be3485f,2021-11-03_11h28.24.127,forced_choiceRT_color,2021.2.3,Win32,59.9880024,,,,,,,,,,,,,,,,,,,,,,,
,0,j,1,0.4428,10,2,42,2,1,j,red,61119e35715393a10be3485f,2021-11-03_11h28.24.127,forced_choiceRT_color,2021.2.3,Win32,59.9880024,,,,,,,,,,,,,,,,,,,,,,,
,0,d,1,0.7268,10,3,43,0,1,d,orange,61119e35715393a10be3485f,2021-11-03_11h28.24.127,forced_choiceRT_color,2021.2.3,Win32,59.9880024,,,,,,,,,,,,,,,,,,,,,,,
,0,f,1,0.6672,11,0,44,1,1,f,blue,61119e35715393a10be3485f,2021-11-03_11h28.24.127,forced_choiceRT_color,2021.2.3,Win32,59.9880024,,,,,,,,,,,,,,,,,,,,,,,
,0,j,1,0.6176,11,1,45,2,1,j,red,61119e35715393a10be3485f,2021-11-03_11h28.24.127,forced_choiceRT_color,2021.2.3,Win32,59.9880024,,,,,,,,,,,,,,,,,,,,,,,
,0,k,1,0.5372,11,2,46,3,1,k,purple,61119e35715393a10be3485f,2021-11-03_11h28.24.127,forced_choiceRT_color,2021.2.3,Win32,59.9880024,,,,,,,,,,,,,,,,,,,,,,,
,0,k,0,0.3944,11,3,47,1,1,f,blue,61119e35715393a10be3485f,2021-11-03_11h28.24.127,forced_choiceRT_color,2021.2.3,Win32,59.9880024,,,,,,,,,,,,,,,,,,,,,,,
,0,d,0,0.8452,12,0,48,1,1,f,blue,61119e35715393a10be3485f,2021-11-03_11h28.24.127,forced_choiceRT_color,2021.2.3,Win32,59.9880024,,,,,,,,,,,,,,,,,,,,,,,
,0,f,0,0.2591,12,1,49,0,1,d,orange,61119e35715393a10be3485f,2021-11-03_11h28.24.127,forced_choiceRT_color,2021.2.3,Win32,59.9880024,,,,,,,,,,,,,,,,,,,,,,,
,0,f,1,1.0216,12,2,50,1,1,f,blue,61119e35715393a10be3485f,2021-11-03_11h28.24.127,forced_choiceRT_color,2021.2.3,Win32,59.9880024,,,,,,,,,,,,,,,,,,,,,,,
,0,k,1,0.726,12,3,51,3,1,k,purple,61119e35715393a10be3485f,2021-11-03_11h28.24.127,forced_choiceRT_color,2021.2.3,Win32,59.9880024,,,,,,,,,,,,,,,,,,,,,,,
,0,k,1,0.6179,13,0,52,3,1,k,purple,61119e35715393a10be3485f,2021-11-03_11h28.24.127,forced_choiceRT_color,2021.2.3,Win32,59.9880024,,,,,,,,,,,,,,,,,,,,,,,
,0,k,1,0.5677,13,1,53,3,1,k,purple,61119e35715393a10be3485f,2021-11-03_11h28.24.127,forced_choiceRT_color,2021.2.3,Win32,59.9880024,,,,,,,,,,,,,,,,,,,,,,,
,0,d,1,0.7847,13,2,54,0,1,d,orange,61119e35715393a10be3485f,2021-11-03_11h28.24.127,forced_choiceRT_color,2021.2.3,Win32,59.9880024,,,,,,,,,,,,,,,,,,,,,,,
,0,j,1,0.7845,13,3,55,2,1,j,red,61119e35715393a10be3485f,2021-11-03_11h28.24.127,forced_choiceRT_color,2021.2.3,Win32,59.9880024,,,,,,,,,,,,,,,,,,,,,,,
,0,d,1,0.6678,14,0,56,0,1,d,orange,61119e35715393a10be3485f,2021-11-03_11h28.24.127,forced_choiceRT_color,2021.2.3,Win32,59.9880024,,,,,,,,,,,,,,,,,,,,,,,
,0,k,1,0.6013,14,1,57,3,1,k,purple,61119e35715393a10be3485f,2021-11-03_11h28.24.127,forced_choiceRT_color,2021.2.3,Win32,59.9880024,,,,,,,,,,,,,,,,,,,,,,,
,0,f,1,1.8513,14,2,58,1,1,f,blue,61119e35715393a10be3485f,2021-11-03_11h28.24.127,forced_choiceRT_color,2021.2.3,Win32,59.9880024,,,,,,,,,,,,,,,,,,,,,,,
,0,k,1,2.455,14,3,59,3,1,k,purple,61119e35715393a10be3485f,2021-11-03_11h28.24.127,forced_choiceRT_color,2021.2.3,Win32,59.9880024,,,,,,,,,,,,,,,,,,,,,,,
,,,,,,,,,,,,61119e35715393a10be3485f,2021-11-03_11h28.24.127,forced_choiceRT_color,2021.2.3,Win32,59.9880024,k,7.3091,0,0,0,0,1,,,,,,,,,,,,,,,,
,,,,,,,,,,,,61119e35715393a10be3485f,2021-11-03_11h28.24.127,forced_choiceRT_color,2021.2.3,Win32,59.9880024,f,3.1708,1,0,1,0,1,,,,,,,,,,,,,,,,
,,,,,,,,,,,,61119e35715393a10be3485f,2021-11-03_11h28.24.127,forced_choiceRT_color,2021.2.3,Win32,59.9880024,j,0.8423,2,0,2,0,1,,,,,,,,,,,,,,,,
,,,,,,,,,,,,61119e35715393a10be3485f,2021-11-03_11h28.24.127,forced_choiceRT_color,2021.2.3,Win32,59.9880024,f,1.2409,3,0,3,0,1,,,,,,,,,,,,,,,,
,,,,,,,,,,,,61119e35715393a10be3485f,2021-11-03_11h28.24.127,forced_choiceRT_color,2021.2.3,Win32,59.9880024,j,2.2008,4,0,4,0,1,,,,,,,,,,,,,,,,
,,,,,,,,,,,,61119e35715393a10be3485f,2021-11-03_11h28.24.127,forced_choiceRT_color,2021.2.3,Win32,59.9880024,j,1.3439,5,0,5,0,1,,,,,,,,,,,,,,,,
,,,,,,,,,,,,61119e35715393a10be3485f,2021-11-03_11h28.24.127,forced_choiceRT_color,2021.2.3,Win32,59.9880024,k,1.9345,6,0,6,0,1,,,,,,,,,,,,,,,,
,,,,,,,,,,,,61119e35715393a10be3485f,2021-11-03_11h28.24.127,forced_choiceRT_color,2021.2.3,Win32,59.9880024,k,1.851,7,0,7,0,1,,,,,,,,,,,,,,,,
,,,,,,,,,,,,61119e35715393a10be3485f,2021-11-03_11h28.24.127,forced_choiceRT_color,2021.2.3,Win32,59.9880024,k,2.2842,8,0,8,0,1,,,,,,,,,,,,,,,,
,,,,,,,,,,,,61119e35715393a10be3485f,2021-11-03_11h28.24.127,forced_choiceRT_color,2021.2.3,Win32,59.9880024,d,2.0743,9,0,9,0,1,,,,,,,,,,,,,,,,
,,,,,,,,,,,,61119e35715393a10be3485f,2021-11-03_11h28.24.127,forced_choiceRT_color,2021.2.3,Win32,59.9880024,k,1.8091,10,0,10,0,1,,,,,,,,,,,,,,,,
,,,,,,,,,,,,61119e35715393a10be3485f,2021-11-03_11h28.24.127,forced_choiceRT_color,2021.2.3,Win32,59.9880024,d,2.0847,11,0,11,0,1,,,,,,,,,,,,,,,,
,,,,,,,,,,,,61119e35715393a10be3485f,2021-11-03_11h28.24.127,forced_choiceRT_color,2021.2.3,Win32,59.9880024,d,2.0845,12,0,12,0,1,,,,,,,,,,,,,,,,
,,,,,,,,,,,,61119e35715393a10be3485f,2021-11-03_11h28.24.127,forced_choiceRT_color,2021.2.3,Win32,59.9880024,d,1.945,13,0,13,0,1,,,,,,,,,,,,,,,,
,,,,,,,,,,,,61119e35715393a10be3485f,2021-11-03_11h28.24.127,forced_choiceRT_color,2021.2.3,Win32,59.9880024,d,1.8674,14,0,14,0,1,,,,,,,,,,,,,,,,
,,,,,,,,,,,,61119e35715393a10be3485f,2021-11-03_11h28.24.127,forced_choiceRT_color,2021.2.3,Win32,59.9880024,d,2.1512,15,0,15,0,1,,,,,,,,,,,,,,,,
,,,,,,,,,,,,61119e35715393a10be3485f,2021-11-03_11h28.24.127,forced_choiceRT_color,2021.2.3,Win32,59.9880024,d,2.0798,16,0,16,0,1,,,,,,,,,,,,,,,,
,,,,,,,,,,,,61119e35715393a10be3485f,2021-11-03_11h28.24.127,forced_choiceRT_color,2021.2.3,Win32,59.9880024,d,2.0502,17,0,17,0,1,,,,,,,,,,,,,,,,
,,,,,,,,,,,,61119e35715393a10be3485f,2021-11-03_11h28.24.127,forced_choiceRT_color,2021.2.3,Win32,59.9880024,k,2.181,18,0,18,0,1,,,,,,,,,,,,,,,,
,,,,,,,,,,,,61119e35715393a10be3485f,2021-11-03_11h28.24.127,forced_choiceRT_color,2021.2.3,Win32,59.9880024,d,1.8402,19,0,19,0,1,,,,,,,,,,,,,,,,
,0.75,,,,,,,,,d,orange,61119e35715393a10be3485f,2021-11-03_11h28.24.127,forced_choiceRT_color,2021.2.3,Win32,59.9880024,,,,,,,,1,Ontime,long,k,0,1.9793,0,0,0,0,1,,,,,
,1.73,,,,,,,,,d,orange,61119e35715393a10be3485f,2021-11-03_11h28.24.127,forced_choiceRT_color,2021.2.3,Win32,59.9880024,,,,,,,,1,Slow,long,d,1,2.1021,0,1,1,0,1,,,,,
,1.63,,,,,,,,,k,purple,61119e35715393a10be3485f,2021-11-03_11h28.24.127,forced_choiceRT_color,2021.2.3,Win32,59.9880024,,,,,,,,1,Slow,long,k,1,2.3193,0,2,2,3,1,,,,,
,0.2,,,,,,,,,j,red,61119e35715393a10be3485f,2021-11-03_11h28.24.127,forced_choiceRT_color,2021.2.3,Win32,59.9880024,,,,,,,,1,Ontime,long,j,1,2.0174,0,3,3,2,1,,,,,
,1.2,,,,,,,,,j,red,61119e35715393a10be3485f,2021-11-03_11h28.24.127,forced_choiceRT_color,2021.2.3,Win32,59.9880024,,,,,,,,1,Slow,long,j,1,2.2049,1,0,4,2,1,,,,,
,0.05,,,,,,,,,f,blue,61119e35715393a10be3485f,2021-11-03_11h28.24.127,forced_choiceRT_color,2021.2.3,Win32,59.9880024,,,,,,,,1,Ontime,long,f,1,1.9681,1,1,5,1,1,,,,,
,1.89,,,,,,,,,j,red,61119e35715393a10be3485f,2021-11-03_11h28.24.127,forced_choiceRT_color,2021.2.3,Win32,59.9880024,,,,,,,,1,Slow,long,j,1,4.0102,1,2,6,2,1,,,,,
,0.01,,,,,,,,,f,blue,61119e35715393a10be3485f,2021-11-03_11h28.24.127,forced_choiceRT_color,2021.2.3,Win32,59.9880024,,,,,,,,1,Ontime,long,f,1,2.0179,1,3,7,1,1,,,,,
,1.19,,,,,,,,,d,orange,61119e35715393a10be3485f,2021-11-03_11h28.24.127,forced_choiceRT_color,2021.2.3,Win32,59.9880024,,,,,,,,1,Ontime,long,d,1,2.0011,2,0,8,0,1,,,,,
,1.71,,,,,,,,,f,blue,61119e35715393a10be3485f,2021-11-03_11h28.24.127,forced_choiceRT_color,2021.2.3,Win32,59.9880024,,,,,,,,1,Slow,long,j,0,2.2334,2,1,9,1,1,,,,,
,1.26,,,,,,,,,f,blue,61119e35715393a10be3485f,2021-11-03_11h28.24.127,forced_choiceRT_color,2021.2.3,Win32,59.9880024,,,,,,,,1,Ontime,long,f,1,1.9452,2,2,10,1,1,,,,,
,1.85,,,,,,,,,j,red,61119e35715393a10be3485f,2021-11-03_11h28.24.127,forced_choiceRT_color,2021.2.3,Win32,59.9880024,,,,,,,,1,Slow,long,k,0,2.1179,2,3,11,2,1,,,,,
,1.48,,,,,,,,,f,blue,61119e35715393a10be3485f,2021-11-03_11h28.24.127,forced_choiceRT_color,2021.2.3,Win32,59.9880024,,,,,,,,1,Slow,long,j,0,2.1478,3,0,12,1,1,,,,,
,0.35,,,,,,,,,k,purple,61119e35715393a10be3485f,2021-11-03_11h28.24.127,forced_choiceRT_color,2021.2.3,Win32,59.9880024,,,,,,,,1,Slow,long,k,1,2.1328,3,1,13,3,1,,,,,
,0.86,,,,,,,,,j,red,61119e35715393a10be3485f,2021-11-03_11h28.24.127,forced_choiceRT_color,2021.2.3,Win32,59.9880024,,,,,,,,1,Slow,long,j,1,2.118,3,2,14,2,1,,,,,
,0.28,,,,,,,,,d,orange,61119e35715393a10be3485f,2021-11-03_11h28.24.127,forced_choiceRT_color,2021.2.3,Win32,59.9880024,,,,,,,,1,Slow,long,f,0,2.2122,3,3,15,0,1,,,,,
,0.53,,,,,,,,,k,purple,61119e35715393a10be3485f,2021-11-03_11h28.24.127,forced_choiceRT_color,2021.2.3,Win32,59.9880024,,,,,,,,1,Ontime,long,k,1,1.9745,4,0,16,3,1,,,,,
,0.01,,,,,,,,,k,purple,61119e35715393a10be3485f,2021-11-03_11h28.24.127,forced_choiceRT_color,2021.2.3,Win32,59.9880024,,,,,,,,1,Ontime,long,k,1,1.9997,4,1,17,3,1,,,,,
,0.88,,,,,,,,,j,red,61119e35715393a10be3485f,2021-11-03_11h28.24.127,forced_choiceRT_color,2021.2.3,Win32,59.9880024,,,,,,,,1,Ontime,long,j,1,2.0178,4,2,18,2,1,,,,,
,0.2,,,,,,,,,k,purple,61119e35715393a10be3485f,2021-11-03_11h28.24.127,forced_choiceRT_color,2021.2.3,Win32,59.9880024,,,,,,,,1,Ontime,long,k,1,1.9509,4,3,19,3,1,,,,,
,1.91,,,,,,,,,d,orange,61119e35715393a10be3485f,2021-11-03_11h28.24.127,forced_choiceRT_color,2021.2.3,Win32,59.9880024,,,,,,,,1,Slow,long,f,0,2.3822,5,0,20,0,1,,,,,
,0.37,,,,,,,,,d,orange,61119e35715393a10be3485f,2021-11-03_11h28.24.127,forced_choiceRT_color,2021.2.3,Win32,59.9880024,,,,,,,,1,Ontime,long,d,1,2.0999,5,1,21,0,1,,,,,
,0.39,,,,,,,,,k,purple,61119e35715393a10be3485f,2021-11-03_11h28.24.127,forced_choiceRT_color,2021.2.3,Win32,59.9880024,,,,,,,,1,Ontime,long,k,1,2.0209,5,2,22,3,1,,,,,
,1.32,,,,,,,,,f,blue,61119e35715393a10be3485f,2021-11-03_11h28.24.127,forced_choiceRT_color,2021.2.3,Win32,59.9880024,,,,,,,,1,Ontime,long,f,1,2.0538,5,3,23,1,1,,,,,
,1.33,,,,,,,,,k,purple,61119e35715393a10be3485f,2021-11-03_11h28.24.127,forced_choiceRT_color,2021.2.3,Win32,59.9880024,,,,,,,,1,Slow,long,k,1,2.1184,6,0,24,3,1,,,,,
,1.16,,,,,,,,,j,red,61119e35715393a10be3485f,2021-11-03_11h28.24.127,forced_choiceRT_color,2021.2.3,Win32,59.9880024,,,,,,,,1,Fast,long,j,1,1.8371,6,1,25,2,1,,,,,
,0.39,,,,,,,,,d,orange,61119e35715393a10be3485f,2021-11-03_11h28.24.127,forced_choiceRT_color,2021.2.3,Win32,59.9880024,,,,,,,,1,Ontime,long,d,1,2.0183,6,2,26,0,1,,,,,
,0.39,,,,,,,,,f,blue,61119e35715393a10be3485f,2021-11-03_11h28.24.127,forced_choiceRT_color,2021.2.3,Win32,59.9880024,,,,,,,,1,Ontime,long,f,1,2.0173,6,3,27,1,1,,,,,
,0.61,,,,,,,,,k,purple,61119e35715393a10be3485f,2021-11-03_11h28.24.127,forced_choiceRT_color,2021.2.3,Win32,59.9880024,,,,,,,,1,Ontime,long,k,1,1.9446,7,0,28,3,1,,,,,
,1.21,,,,,,,,,k,purple,61119e35715393a10be3485f,2021-11-03_11h28.24.127,forced_choiceRT_color,2021.2.3,Win32,59.9880024,,,,,,,,1,Ontime,long,k,1,2.0176,7,1,29,3,1,,,,,
,0,,,,,,,,,f,blue,61119e35715393a10be3485f,2021-11-03_11h28.24.127,forced_choiceRT_color,2021.2.3,Win32,59.9880024,,,,,,,,1,Ontime,long,f,1,1.9614,7,2,30,1,1,,,,,
,0.12,,,,,,,,,d,orange,61119e35715393a10be3485f,2021-11-03_11h28.24.127,forced_choiceRT_color,2021.2.3,Win32,59.9880024,,,,,,,,1,Ontime,long,d,1,1.9788,7,3,31,0,1,,,,,
,0.57,,,,,,,,,d,orange,61119e35715393a10be3485f,2021-11-03_11h28.24.127,forced_choiceRT_color,2021.2.3,Win32,59.9880024,,,,,,,,1,Slow,long,d,1,2.1174,8,0,32,0,1,,,,,
,0.33,,,,,,,,,f,blue,61119e35715393a10be3485f,2021-11-03_11h28.24.127,forced_choiceRT_color,2021.2.3,Win32,59.9880024,,,,,,,,1,Ontime,long,f,1,2.0282,8,1,33,1,1,,,,,
,1.03,,,,,,,,,d,orange,61119e35715393a10be3485f,2021-11-03_11h28.24.127,forced_choiceRT_color,2021.2.3,Win32,59.9880024,,,,,,,,1,Fast,long,d,1,1.8792,8,2,34,0,1,,,,,
,1.52,,,,,,,,,j,red,61119e35715393a10be3485f,2021-11-03_11h28.24.127,forced_choiceRT_color,2021.2.3,Win32,59.9880024,,,,,,,,1,Slow,long,j,1,2.2598,8,3,35,2,1,,,,,
,0.35,,,,,,,,,j,red,61119e35715393a10be3485f,2021-11-03_11h28.24.127,forced_choiceRT_color,2021.2.3,Win32,59.9880024,,,,,,,,1,Ontime,long,j,1,2.0593,9,0,36,2,1,,,,,
,0.02,,,,,,,,,k,purple,61119e35715393a10be3485f,2021-11-03_11h28.24.127,forced_choiceRT_color,2021.2.3,Win32,59.9880024,,,,,,,,1,Ontime,long,k,1,2.0461,9,1,37,3,1,,,,,
,1.42,,,,,,,,,f,blue,61119e35715393a10be3485f,2021-11-03_11h28.24.127,forced_choiceRT_color,2021.2.3,Win32,59.9880024,,,,,,,,1,Ontime,long,j,0,2.0682,9,2,38,1,1,,,,,
,1.99,,,,,,,,,j,red,61119e35715393a10be3485f,2021-11-03_11h28.24.127,forced_choiceRT_color,2021.2.3,Win32,59.9880024,,,,,,,,1,Slow,long,k,0,2.3341,9,3,39,2,1,,,,,
,,,,,,,,,,,,61119e35715393a10be3485f,2021-11-03_11h28.24.127,forced_choiceRT_color,2021.2.3,Win32,59.9880024,,,,,,,,,,,,,,,,,,,0,0,0,0,1
,1.27,,,,,,,,,f,blue,61119e35715393a10be3485f,2021-11-03_11h28.24.127,forced_choiceRT_color,2021.2.3,Win32,59.9880024,,,,,,,,2,Ontime,long,f,1,2.0187,0,0,0,1,1,,,,,
,0.35,,,,,,,,,d,orange,61119e35715393a10be3485f,2021-11-03_11h28.24.127,forced_choiceRT_color,2021.2.3,Win32,59.9880024,,,,,,,,2,Fast,long,d,1,1.8662,0,1,1,0,1,,,,,
,1.13,,,,,,,,,f,blue,61119e35715393a10be3485f,2021-11-03_11h28.24.127,forced_choiceRT_color,2021.2.3,Win32,59.9880024,,,,,,,,2,Slow,long,f,1,2.1841,0,2,2,1,1,,,,,
,1.17,,,,,,,,,j,red,61119e35715393a10be3485f,2021-11-03_11h28.24.127,forced_choiceRT_color,2021.2.3,Win32,59.9880024,,,,,,,,2,Slow,long,j,1,2.1675,0,3,3,2,1,,,,,
,0.46,,,,,,,,,k,purple,61119e35715393a10be3485f,2021-11-03_11h28.24.127,forced_choiceRT_color,2021.2.3,Win32,59.9880024,,,,,,,,2,Ontime,long,k,1,1.9968,1,0,4,3,1,,,,,
,0.16,,,,,,,,,k,purple,61119e35715393a10be3485f,2021-11-03_11h28.24.127,forced_choiceRT_color,2021.2.3,Win32,59.9880024,,,,,,,,2,Ontime,long,k,1,2.0037,1,1,5,3,1,,,,,
,0.89,,,,,,,,,d,orange,61119e35715393a10be3485f,2021-11-03_11h28.24.127,forced_choiceRT_color,2021.2.3,Win32,59.9880024,,,,,,,,2,Ontime,long,d,1,1.9505,1,2,6,0,1,,,,,
,0.58,,,,,,,,,f,blue,61119e35715393a10be3485f,2021-11-03_11h28.24.127,forced_choiceRT_color,2021.2.3,Win32,59.9880024,,,,,,,,2,Slow,long,f,1,2.1448,1,3,7,1,1,,,,,
,1.2,,,,,,,,,f,blue,61119e35715393a10be3485f,2021-11-03_11h28.24.127,forced_choiceRT_color,2021.2.3,Win32,59.9880024,,,,,,,,2,Ontime,long,f,1,1.9767,2,0,8,1,1,,,,,
,0.11,,,,,,,,,j,red,61119e35715393a10be3485f,2021-11-03_11h28.24.127,forced_choiceRT_color,2021.2.3,Win32,59.9880024,,,,,,,,2,Ontime,long,j,1,1.9906,2,1,9,2,1,,,,,
,1.67,,,,,,,,,d,orange,61119e35715393a10be3485f,2021-11-03_11h28.24.127,forced_choiceRT_color,2021.2.3,Win32,59.9880024,,,,,,,,2,Slow,long,d,1,2.2935,2,2,10,0,1,,,,,
,0.29,,,,,,,,,j,red,61119e35715393a10be3485f,2021-11-03_11h28.24.127,forced_choiceRT_color,2021.2.3,Win32,59.9880024,,,,,,,,2,Ontime,long,j,1,2.0078,2,3,11,2,1,,,,,
,1.81,,,,,,,,,k,purple,61119e35715393a10be3485f,2021-11-03_11h28.24.127,forced_choiceRT_color,2021.2.3,Win32,59.9880024,,,,,,,,2,Slow,long,k,1,2.2841,3,0,12,3,1,,,,,
,1.35,,,,,,,,,j,red,61119e35715393a10be3485f,2021-11-03_11h28.24.127,forced_choiceRT_color,2021.2.3,Win32,59.9880024,,,,,,,,2,Ontime,long,j,1,2.051,3,1,13,2,1,,,,,
,1.91,,,,,,,,,d,orange,61119e35715393a10be3485f,2021-11-03_11h28.24.127,forced_choiceRT_color,2021.2.3,Win32,59.9880024,,,,,,,,2,Slow,long,d,1,2.4844,3,2,14,0,1,,,,,
,1.87,,,,,,,,,d,orange,61119e35715393a10be3485f,2021-11-03_11h28.24.127,forced_choiceRT_color,2021.2.3,Win32,59.9880024,,,,,,,,2,Slow,long,d,1,2.2573,3,3,15,0,1,,,,,
,0.2,,,,,,,,,j,red,61119e35715393a10be3485f,2021-11-03_11h28.24.127,forced_choiceRT_color,2021.2.3,Win32,59.9880024,,,,,,,,2,Ontime,long,j,1,2.0665,4,0,16,2,1,,,,,
,0.67,,,,,,,,,j,red,61119e35715393a10be3485f,2021-11-03_11h28.24.127,forced_choiceRT_color,2021.2.3,Win32,59.9880024,,,,,,,,2,Ontime,long,j,1,2.0385,4,1,17,2,1,,,,,
,1.03,,,,,,,,,k,purple,61119e35715393a10be3485f,2021-11-03_11h28.24.127,forced_choiceRT_color,2021.2.3,Win32,59.9880024,,,,,,,,2,Ontime,long,k,1,1.9896,4,2,18,3,1,,,,,
,1.48,,,,,,,,,d,orange,61119e35715393a10be3485f,2021-11-03_11h28.24.127,forced_choiceRT_color,2021.2.3,Win32,59.9880024,,,,,,,,2,Ontime,long,d,1,1.9529,4,3,19,0,1,,,,,
,1.62,,,,,,,,,d,orange,61119e35715393a10be3485f,2021-11-03_11h28.24.127,forced_choiceRT_color,2021.2.3,Win32,59.9880024,,,,,,,,2,Slow,long,d,1,2.1431,5,0,20,0,1,,,,,
,1.85,,,,,,,,,f,blue,61119e35715393a10be3485f,2021-11-03_11h28.24.127,forced_choiceRT_color,2021.2.3,Win32,59.9880024,,,,,,,,2,Slow,long,d,0,2.3292,5,1,21,1,1,,,,,
,1.52,,,,,,,,,k,purple,61119e35715393a10be3485f,2021-11-03_11h28.24.127,forced_choiceRT_color,2021.2.3,Win32,59.9880024,,,,,,,,2,Ontime,long,k,1,2.0506,5,2,22,3,1,,,,,
,0.44,,,,,,,,,j,red,61119e35715393a10be3485f,2021-11-03_11h28.24.127,forced_choiceRT_color,2021.2.3,Win32,59.9880024,,,,,,,,2,Ontime,long,j,1,1.9744,5,3,23,2,1,,,,,
,0.01,,,,,,,,,k,purple,61119e35715393a10be3485f,2021-11-03_11h28.24.127,forced_choiceRT_color,2021.2.3,Win32,59.9880024,,,,,,,,2,Ontime,long,k,1,2.0512,6,0,24,3,1,,,,,
,1.1,,,,,,,,,f,blue,61119e35715393a10be3485f,2021-11-03_11h28.24.127,forced_choiceRT_color,2021.2.3,Win32,59.9880024,,,,,,,,2,Ontime,long,f,1,1.9418,6,1,25,1,1,,,,,
,1.11,,,,,,,,,j,red,61119e35715393a10be3485f,2021-11-03_11h28.24.127,forced_choiceRT_color,2021.2.3,Win32,59.9880024,,,,,,,,2,Ontime,long,j,1,1.9845,6,2,26,2,1,,,,,
,0.27,,,,,,,,,f,blue,61119e35715393a10be3485f,2021-11-03_11h28.24.127,forced_choiceRT_color,2021.2.3,Win32,59.9880024,,,,,,,,2,Ontime,long,k,0,2.0514,6,3,27,1,1,,,,,
,1.66,,,,,,,,,d,orange,61119e35715393a10be3485f,2021-11-03_11h28.24.127,forced_choiceRT_color,2021.2.3,Win32,59.9880024,,,,,,,,2,Slow,long,d,1,2.1711,7,0,28,0,1,,,,,
,1.6,,,,,,,,,j,red,61119e35715393a10be3485f,2021-11-03_11h28.24.127,forced_choiceRT_color,2021.2.3,Win32,59.9880024,,,,,,,,2,Ontime,long,j,1,2.018,7,1,29,2,1,,,,,
,0.51,,,,,,,,,d,orange,61119e35715393a10be3485f,2021-11-03_11h28.24.127,forced_choiceRT_color,2021.2.3,Win32,59.9880024,,,,,,,,2,Ontime,long,d,1,1.9753,7,2,30,0,1,,,,,
,1.31,,,,,,,,,k,purple,61119e35715393a10be3485f,2021-11-03_11h28.24.127,forced_choiceRT_color,2021.2.3,Win32,59.9880024,,,,,,,,2,Slow,long,k,1,2.2172,7,3,31,3,1,,,,,
,1.85,,,,,,,,,d,orange,61119e35715393a10be3485f,2021-11-03_11h28.24.127,forced_choiceRT_color,2021.2.3,Win32,59.9880024,,,,,,,,2,Slow,long,f,0,2.2616,8,0,32,0,1,,,,,
,0.44,,,,,,,,,j,red,61119e35715393a10be3485f,2021-11-03_11h28.24.127,forced_choiceRT_color,2021.2.3,Win32,59.9880024,,,,,,,,2,Ontime,long,j,1,1.9387,8,1,33,2,1,,,,,
,1.86,,,,,,,,,k,purple,61119e35715393a10be3485f,2021-11-03_11h28.24.127,forced_choiceRT_color,2021.2.3,Win32,59.9880024,,,,,,,,2,Slow,long,d,0,2.2343,8,2,34,3,1,,,,,
,1.47,,,,,,,,,k,purple,61119e35715393a10be3485f,2021-11-03_11h28.24.127,forced_choiceRT_color,2021.2.3,Win32,59.9880024,,,,,,,,2,Ontime,long,k,1,1.9604,8,3,35,3,1,,,,,
,1.28,,,,,,,,,f,blue,61119e35715393a10be3485f,2021-11-03_11h28.24.127,forced_choiceRT_color,2021.2.3,Win32,59.9880024,,,,,,,,2,Ontime,long,f,1,2.0005,9,0,36,1,1,,,,,
,0.94,,,,,,,,,f,blue,61119e35715393a10be3485f,2021-11-03_11h28.24.127,forced_choiceRT_color,2021.2.3,Win32,59.9880024,,,,,,,,2,Ontime,long,f,1,2.0249,9,1,37,1,1,,,,,
,1.91,,,,,,,,,f,blue,61119e35715393a10be3485f,2021-11-03_11h28.24.127,forced_choiceRT_color,2021.2.3,Win32,59.9880024,,,,,,,,2,Slow,long,k,0,2.3676,9,2,38,1,1,,,,,
,0.1,,,,,,,,,k,purple,61119e35715393a10be3485f,2021-11-03_11h28.24.127,forced_choiceRT_color,2021.2.3,Win32,59.9880024,,,,,,,,2,Slow,long,k,1,2.1007,9,3,39,3,1,,,,,
,,,,,,,,,,,,61119e35715393a10be3485f,2021-11-03_11h28.24.127,forced_choiceRT_color,2021.2.3,Win32,59.9880024,,,,,,,,,,,,,,,,,,,1,0,1,0,1
,0.26,,,,,,,,,j,red,61119e35715393a10be3485f,2021-11-03_11h28.24.127,forced_choiceRT_color,2021.2.3,Win32,59.9880024,,,,,,,,3,Ontime,long,j,1,2.0869,0,0,0,2,1,,,,,
,0.3,,,,,,,,,d,orange,61119e35715393a10be3485f,2021-11-03_11h28.24.127,forced_choiceRT_color,2021.2.3,Win32,59.9880024,,,,,,,,3,Slow,long,d,1,2.1006,0,1,1,0,1,,,,,
,0.45,,,,,,,,,j,red,61119e35715393a10be3485f,2021-11-03_11h28.24.127,forced_choiceRT_color,2021.2.3,Win32,59.9880024,,,,,,,,3,Slow,long,j,1,2.1329,0,2,2,2,1,,,,,
,0.42,,,,,,,,,k,purple,61119e35715393a10be3485f,2021-11-03_11h28.24.127,forced_choiceRT_color,2021.2.3,Win32,59.9880024,,,,,,,,3,Ontime,long,k,1,2.0346,0,3,3,3,1,,,,,
,1.34,,,,,,,,,k,purple,61119e35715393a10be3485f,2021-11-03_11h28.24.127,forced_choiceRT_color,2021.2.3,Win32,59.9880024,,,,,,,,3,Ontime,long,k,1,1.9004,1,0,4,3,1,,,,,
,0.99,,,,,,,,,f,blue,61119e35715393a10be3485f,2021-11-03_11h28.24.127,forced_choiceRT_color,2021.2.3,Win32,59.9880024,,,,,,,,3,Ontime,long,f,1,1.9757,1,1,5,1,1,,,,,
,0.79,,,,,,,,,k,purple,61119e35715393a10be3485f,2021-11-03_11h28.24.127,forced_choiceRT_color,2021.2.3,Win32,59.9880024,,,,,,,,3,Slow,long,k,1,2.1185,1,2,6,3,1,,,,,
,1.72,,,,,,,,,j,red,61119e35715393a10be3485f,2021-11-03_11h28.24.127,forced_choiceRT_color,2021.2.3,Win32,59.9880024,,,,,,,,3,Slow,long,j,1,2.3007,1,3,7,2,1,,,,,
,0.29,,,,,,,,,j,red,61119e35715393a10be3485f,2021-11-03_11h28.24.127,forced_choiceRT_color,2021.2.3,Win32,59.9880024,,,,,,,,3,Ontime,long,j,1,2.0678,2,0,8,2,1,,,,,
,1.19,,,,,,,,,d,orange,61119e35715393a10be3485f,2021-11-03_11h28.24.127,forced_choiceRT_color,2021.2.3,Win32,59.9880024,,,,,,,,3,Slow,long,d,1,2.2279,2,1,9,0,1,,,,,
,0.58,,,,,,,,,d,orange,61119e35715393a10be3485f,2021-11-03_11h28.24.127,forced_choiceRT_color,2021.2.3,Win32,59.9880024,,,,,,,,3,Ontime,long,d,1,1.9564,2,2,10,0,1,,,,,
,0.6,,,,,,,,,j,red,61119e35715393a10be3485f,2021-11-03_11h28.24.127,forced_choiceRT_color,2021.2.3,Win32,59.9880024,,,,,,,,3,Fast,long,j,1,1.8008,2,3,11,2,1,,,,,
,1.05,,,,,,,,,d,orange,61119e35715393a10be3485f,2021-11-03_11h28.24.127,forced_choiceRT_color,2021.2.3,Win32,59.9880024,,,,,,,,3,Ontime,long,d,1,1.951,3,0,12,0,1,,,,,
,1.18,,,,,,,,,d,orange,61119e35715393a10be3485f,2021-11-03_11h28.24.127,forced_choiceRT_color,2021.2.3,Win32,59.9880024,,,,,,,,3,Ontime,long,d,1,1.9075,3,1,13,0,1,,,,,
,0.57,,,,,,,,,j,red,61119e35715393a10be3485f,2021-11-03_11h28.24.127,forced_choiceRT_color,2021.2.3,Win32,59.9880024,,,,,,,,3,Fast,long,j,1,1.8204,3,2,14,2,1,,,,,
,0.67,,,,,,,,,j,red,61119e35715393a10be3485f,2021-11-03_11h28.24.127,forced_choiceRT_color,2021.2.3,Win32,59.9880024,,,,,,,,3,Ontime,long,j,1,1.9989,3,3,15,2,1,,,,,
,0.25,,,,,,,,,f,blue,61119e35715393a10be3485f,2021-11-03_11h28.24.127,forced_choiceRT_color,2021.2.3,Win32,59.9880024,,,,,,,,3,Ontime,long,d,0,2.0011,4,0,16,1,1,,,,,
,0.47,,,,,,,,,j,red,61119e35715393a10be3485f,2021-11-03_11h28.24.127,forced_choiceRT_color,2021.2.3,Win32,59.9880024,,,,,,,,3,Ontime,long,j,1,1.968,4,1,17,2,1,,,,,
,0.51,,,,,,,,,k,purple,61119e35715393a10be3485f,2021-11-03_11h28.24.127,forced_choiceRT_color,2021.2.3,Win32,59.9880024,,,,,,,,3,Ontime,long,k,1,1.9509,4,2,18,3,1,,,,,
,1.07,,,,,,,,,f,blue,61119e35715393a10be3485f,2021-11-03_11h28.24.127,forced_choiceRT_color,2021.2.3,Win32,59.9880024,,,,,,,,3,Ontime,long,f,1,1.9677,4,3,19,1,1,,,,,
,1.05,,,,,,,,,f,blue,61119e35715393a10be3485f,2021-11-03_11h28.24.127,forced_choiceRT_color,2021.2.3,Win32,59.9880024,,,,,,,,3,Fast,long,f,1,1.8506,5,0,20,1,1,,,,,
,0.21,,,,,,,,,k,purple,61119e35715393a10be3485f,2021-11-03_11h28.24.127,forced_choiceRT_color,2021.2.3,Win32,59.9880024,,,,,,,,3,Ontime,long,k,1,1.9791,5,1,21,3,1,,,,,
,1.65,,,,,,,,,f,blue,61119e35715393a10be3485f,2021-11-03_11h28.24.127,forced_choiceRT_color,2021.2.3,Win32,59.9880024,,,,,,,,3,Slow,long,f,1,7.9174,5,2,22,1,1,,,,,
,0.04,,,,,,,,,f,blue,61119e35715393a10be3485f,2021-11-03_11h28.24.127,forced_choiceRT_color,2021.2.3,Win32,59.9880024,,,,,,,,3,Fast,long,f,1,0.6644,5,3,23,1,1,,,,,
,1.94,,,,,,,,,d,orange,61119e35715393a10be3485f,2021-11-03_11h28.24.127,forced_choiceRT_color,2021.2.3,Win32,59.9880024,,,,,,,,3,Ontime,long,f,0,1.9847,6,0,24,0,1,,,,,
,1.32,,,,,,,,,k,purple,61119e35715393a10be3485f,2021-11-03_11h28.24.127,forced_choiceRT_color,2021.2.3,Win32,59.9880024,,,,,,,,3,Ontime,long,k,1,2.0223,6,1,25,3,1,,,,,
,0.4,,,,,,,,,f,blue,61119e35715393a10be3485f,2021-11-03_11h28.24.127,forced_choiceRT_color,2021.2.3,Win32,59.9880024,,,,,,,,3,Slow,long,f,1,2.1267,6,2,26,1,1,,,,,
,0.81,,,,,,,,,j,red,61119e35715393a10be3485f,2021-11-03_11h28.24.127,forced_choiceRT_color,2021.2.3,Win32,59.9880024,,,,,,,,3,Slow,long,j,1,2.1014,6,3,27,2,1,,,,,
,1.18,,,,,,,,,f,blue,61119e35715393a10be3485f,2021-11-03_11h28.24.127,forced_choiceRT_color,2021.2.3,Win32,59.9880024,,,,,,,,3,Ontime,long,d,0,1.962,7,0,28,1,1,,,,,
,0.54,,,,,,,,,k,purple,61119e35715393a10be3485f,2021-11-03_11h28.24.127,forced_choiceRT_color,2021.2.3,Win32,59.9880024,,,,,,,,3,Fast,long,k,1,1.8896,7,1,29,3,1,,,,,
,0.09,,,,,,,,,d,orange,61119e35715393a10be3485f,2021-11-03_11h28.24.127,forced_choiceRT_color,2021.2.3,Win32,59.9880024,,,,,,,,3,Slow,long,d,1,2.1044,7,2,30,0,1,,,,,
,1.05,,,,,,,,,k,purple,61119e35715393a10be3485f,2021-11-03_11h28.24.127,forced_choiceRT_color,2021.2.3,Win32,59.9880024,,,,,,,,3,Ontime,long,k,1,2.0511,7,3,31,3,1,,,,,
,1.45,,,,,,,,,j,red,61119e35715393a10be3485f,2021-11-03_11h28.24.127,forced_choiceRT_color,2021.2.3,Win32,59.9880024,,,,,,,,3,Slow,long,j,1,2.1144,8,0,32,2,1,,,,,
,1.04,,,,,,,,,d,orange,61119e35715393a10be3485f,2021-11-03_11h28.24.127,forced_choiceRT_color,2021.2.3,Win32,59.9880024,,,,,,,,3,Ontime,long,d,1,1.9013,8,1,33,0,1,,,,,
,0.52,,,,,,,,,k,purple,61119e35715393a10be3485f,2021-11-03_11h28.24.127,forced_choiceRT_color,2021.2.3,Win32,59.9880024,,,,,,,,3,Ontime,long,k,1,2.0335,8,2,34,3,1,,,,,
,0.49,,,,,,,,,f,blue,61119e35715393a10be3485f,2021-11-03_11h28.24.127,forced_choiceRT_color,2021.2.3,Win32,59.9880024,,,,,,,,3,Ontime,long,f,1,1.9861,8,3,35,1,1,,,,,
,1.98,,,,,,,,,f,blue,61119e35715393a10be3485f,2021-11-03_11h28.24.127,forced_choiceRT_color,2021.2.3,Win32,59.9880024,,,,,,,,3,Slow,long,f,1,2.3214,9,0,36,1,1,,,,,
,0.24,,,,,,,,,d,orange,61119e35715393a10be3485f,2021-11-03_11h28.24.127,forced_choiceRT_color,2021.2.3,Win32,59.9880024,,,,,,,,3,Ontime,long,d,1,2.0039,9,1,37,0,1,,,,,
,0.47,,,,,,,,,k,purple,61119e35715393a10be3485f,2021-11-03_11h28.24.127,forced_choiceRT_color,2021.2.3,Win32,59.9880024,,,,,,,,3,Slow,long,k,1,2.1423,9,2,38,3,1,,,,,
,0.74,,,,,,,,,d,orange,61119e35715393a10be3485f,2021-11-03_11h28.24.127,forced_choiceRT_color,2021.2.3,Win32,59.9880024,,,,,,,,3,Slow,long,f,0,2.1367,9,3,39,0,1,,,,,
,,,,,,,,,,,,61119e35715393a10be3485f,2021-11-03_11h28.24.127,forced_choiceRT_color,2021.2.3,Win32,59.9880024,,,,,,,,,,,,,,,,,,,2,0,2,0,1
,1.55,,,,,,,,,d,orange,61119e35715393a10be3485f,2021-11-03_11h28.24.127,forced_choiceRT_color,2021.2.3,Win32,59.9880024,,,,,,,,4,Ontime,long,f,0,2.0108,0,0,0,0,1,,,,,
,1.77,,,,,,,,,f,blue,61119e35715393a10be3485f,2021-11-03_11h28.24.127,forced_choiceRT_color,2021.2.3,Win32,59.9880024,,,,,,,,4,Slow,long,f,1,2.2979,0,1,1,1,1,,,,,
,0.35,,,,,,,,,k,purple,61119e35715393a10be3485f,2021-11-03_11h28.24.127,forced_choiceRT_color,2021.2.3,Win32,59.9880024,,,,,,,,4,Ontime,long,k,1,1.9835,0,2,2,3,1,,,,,
,1.53,,,,,,,,,d,orange,61119e35715393a10be3485f,2021-11-03_11h28.24.127,forced_choiceRT_color,2021.2.3,Win32,59.9880024,,,,,,,,4,Ontime,long,f,0,2.0175,0,3,3,0,1,,,,,
,1.73,,,,,,,,,j,red,61119e35715393a10be3485f,2021-11-03_11h28.24.127,forced_choiceRT_color,2021.2.3,Win32,59.9880024,,,,,,,,4,Slow,long,k,0,2.167,1,0,4,2,1,,,,,
,0.39,,,,,,,,,j,red,61119e35715393a10be3485f,2021-11-03_11h28.24.127,forced_choiceRT_color,2021.2.3,Win32,59.9880024,,,,,,,,4,Ontime,long,j,1,1.9753,1,1,5,2,1,,,,,
,1.5,,,,,,,,,d,orange,61119e35715393a10be3485f,2021-11-03_11h28.24.127,forced_choiceRT_color,2021.2.3,Win32,59.9880024,,,,,,,,4,Ontime,long,d,1,1.9746,1,2,6,0,1,,,,,
,0.44,,,,,,,,,k,purple,61119e35715393a10be3485f,2021-11-03_11h28.24.127,forced_choiceRT_color,2021.2.3,Win32,59.9880024,,,,,,,,4,Ontime,long,k,1,2.0011,1,3,7,3,1,,,,,
,0.8,,,,,,,,,d,orange,61119e35715393a10be3485f,2021-11-03_11h28.24.127,forced_choiceRT_color,2021.2.3,Win32,59.9880024,,,,,,,,4,Fast,long,d,1,1.8344,2,0,8,0,1,,,,,
,1.6,,,,,,,,,f,blue,61119e35715393a10be3485f,2021-11-03_11h28.24.127,forced_choiceRT_color,2021.2.3,Win32,59.9880024,,,,,,,,4,Ontime,long,f,1,2.088,2,1,9,1,1,,,,,
,1.6,,,,,,,,,k,purple,61119e35715393a10be3485f,2021-11-03_11h28.24.127,forced_choiceRT_color,2021.2.3,Win32,59.9880024,,,,,,,,4,Slow,long,k,1,2.1319,2,2,10,3,1,,,,,
,0.3,,,,,,,,,k,purple,61119e35715393a10be3485f,2021-11-03_11h28.24.127,forced_choiceRT_color,2021.2.3,Win32,59.9880024,,,,,,,,4,Ontime,long,k,1,1.9508,2,3,11,3,1,,,,,
,0.73,,,,,,,,,f,blue,61119e35715393a10be3485f,2021-11-03_11h28.24.127,forced_choiceRT_color,2021.2.3,Win32,59.9880024,,,,,,,,4,Ontime,long,f,1,1.9799,3,0,12,1,1,,,,,
,1.58,,,,,,,,,f,blue,61119e35715393a10be3485f,2021-11-03_11h28.24.127,forced_choiceRT_color,2021.2.3,Win32,59.9880024,,,,,,,,4,Slow,long,f,1,2.2709,3,1,13,1,1,,,,,
,1.99,,,,,,,,,d,orange,61119e35715393a10be3485f,2021-11-03_11h28.24.127,forced_choiceRT_color,2021.2.3,Win32,59.9880024,,,,,,,,4,Slow,long,j,0,2.2542,3,2,14,0,1,,,,,
,0.62,,,,,,,,,f,blue,61119e35715393a10be3485f,2021-11-03_11h28.24.127,forced_choiceRT_color,2021.2.3,Win32,59.9880024,,,,,,,,4,Ontime,long,f,1,1.9986,3,3,15,1,1,,,,,
,0.84,,,,,,,,,j,red,61119e35715393a10be3485f,2021-11-03_11h28.24.127,forced_choiceRT_color,2021.2.3,Win32,59.9880024,,,,,,,,4,Ontime,long,j,1,2.0281,4,0,16,2,1,,,,,
,1.98,,,,,,,,,k,purple,61119e35715393a10be3485f,2021-11-03_11h28.24.127,forced_choiceRT_color,2021.2.3,Win32,59.9880024,,,,,,,,4,Slow,long,k,1,2.4514,4,1,17,3,1,,,,,
,0.12,,,,,,,,,j,red,61119e35715393a10be3485f,2021-11-03_11h28.24.127,forced_choiceRT_color,2021.2.3,Win32,59.9880024,,,,,,,,4,Ontime,long,j,1,1.9617,4,2,18,2,1,,,,,
,0.68,,,,,,,,,f,blue,61119e35715393a10be3485f,2021-11-03_11h28.24.127,forced_choiceRT_color,2021.2.3,Win32,59.9880024,,,,,,,,4,Ontime,long,f,1,2.0002,4,3,19,1,1,,,,,
,1.01,,,,,,,,,j,red,61119e35715393a10be3485f,2021-11-03_11h28.24.127,forced_choiceRT_color,2021.2.3,Win32,59.9880024,,,,,,,,4,Fast,long,j,1,1.8537,5,0,20,2,1,,,,,
,0.75,,,,,,,,,j,red,61119e35715393a10be3485f,2021-11-03_11h28.24.127,forced_choiceRT_color,2021.2.3,Win32,59.9880024,,,,,,,,4,Ontime,long,j,1,2.0493,5,1,21,2,1,,,,,
,1.92,,,,,,,,,k,purple,61119e35715393a10be3485f,2021-11-03_11h28.24.127,forced_choiceRT_color,2021.2.3,Win32,59.9880024,,,,,,,,4,Slow,long,k,1,2.2998,5,2,22,3,1,,,,,
,1.43,,,,,,,,,f,blue,61119e35715393a10be3485f,2021-11-03_11h28.24.127,forced_choiceRT_color,2021.2.3,Win32,59.9880024,,,,,,,,4,Slow,long,f,1,2.1091,5,3,23,1,1,,,,,
,0.67,,,,,,,,,d,orange,61119e35715393a10be3485f,2021-11-03_11h28.24.127,forced_choiceRT_color,2021.2.3,Win32,59.9880024,,,,,,,,4,Fast,long,d,1,1.7092,6,0,24,0,1,,,,,
,0,,,,,,,,,f,blue,61119e35715393a10be3485f,2021-11-03_11h28.24.127,forced_choiceRT_color,2021.2.3,Win32,59.9880024,,,,,,,,4,Ontime,long,f,1,1.9696,6,1,25,1,1,,,,,
,1.01,,,,,,,,,k,purple,61119e35715393a10be3485f,2021-11-03_11h28.24.127,forced_choiceRT_color,2021.2.3,Win32,59.9880024,,,,,,,,4,Ontime,long,k,1,1.9355,6,2,26,3,1,,,,,
,0.89,,,,,,,,,f,blue,61119e35715393a10be3485f,2021-11-03_11h28.24.127,forced_choiceRT_color,2021.2.3,Win32,59.9880024,,,,,,,,4,Ontime,long,f,1,2.0679,6,3,27,1,1,,,,,
,0.68,,,,,,,,,j,red,61119e35715393a10be3485f,2021-11-03_11h28.24.127,forced_choiceRT_color,2021.2.3,Win32,59.9880024,,,,,,,,4,Ontime,long,j,1,2.0011,7,0,28,2,1,,,,,
,1.93,,,,,,,,,d,orange,61119e35715393a10be3485f,2021-11-03_11h28.24.127,forced_choiceRT_color,2021.2.3,Win32,59.9880024,,,,,,,,4,Slow,long,d,1,2.4996,7,1,29,0,1,,,,,
,0.32,,,,,,,,,d,orange,61119e35715393a10be3485f,2021-11-03_11h28.24.127,forced_choiceRT_color,2021.2.3,Win32,59.9880024,,,,,,,,4,Ontime,long,d,1,1.968,7,2,30,0,1,,,,,
,1.09,,,,,,,,,j,red,61119e35715393a10be3485f,2021-11-03_11h28.24.127,forced_choiceRT_color,2021.2.3,Win32,59.9880024,,,,,,,,4,Ontime,long,j,1,2.0681,7,3,31,2,1,,,,,
,1.69,,,,,,,,,d,orange,61119e35715393a10be3485f,2021-11-03_11h28.24.127,forced_choiceRT_color,2021.2.3,Win32,59.9880024,,,,,,,,4,Slow,long,d,1,2.2506,8,0,32,0,1,,,,,
,0.84,,,,,,,,,k,purple,61119e35715393a10be3485f,2021-11-03_11h28.24.127,forced_choiceRT_color,2021.2.3,Win32,59.9880024,,,,,,,,4,Ontime,long,k,1,1.9737,8,1,33,3,1,,,,,
,1.78,,,,,,,,,k,purple,61119e35715393a10be3485f,2021-11-03_11h28.24.127,forced_choiceRT_color,2021.2.3,Win32,59.9880024,,,,,,,,4,Slow,long,k,1,2.3176,8,2,34,3,1,,,,,
,0.55,,,,,,,,,d,orange,61119e35715393a10be3485f,2021-11-03_11h28.24.127,forced_choiceRT_color,2021.2.3,Win32,59.9880024,,,,,,,,4,Ontime,long,d,1,1.9852,8,3,35,0,1,,,,,
,1.54,,,,,,,,,k,purple,61119e35715393a10be3485f,2021-11-03_11h28.24.127,forced_choiceRT_color,2021.2.3,Win32,59.9880024,,,,,,,,4,Slow,long,k,1,2.1481,9,0,36,3,1,,,,,
,0.21,,,,,,,,,j,red,61119e35715393a10be3485f,2021-11-03_11h28.24.127,forced_choiceRT_color,2021.2.3,Win32,59.9880024,,,,,,,,4,Ontime,long,j,1,2.0343,9,1,37,2,1,,,,,
,1.47,,,,,,,,,j,red,61119e35715393a10be3485f,2021-11-03_11h28.24.127,forced_choiceRT_color,2021.2.3,Win32,59.9880024,,,,,,,,4,Ontime,long,j,1,2.0564,9,2,38,2,1,,,,,
,0.66,,,,,,,,,f,blue,61119e35715393a10be3485f,2021-11-03_11h28.24.127,forced_choiceRT_color,2021.2.3,Win32,59.9880024,,,,,,,,4,Ontime,long,f,1,2.0414,9,3,39,1,1,,,,,
,,,,,,,,,,,,61119e35715393a10be3485f,2021-11-03_11h28.24.127,forced_choiceRT_color,2021.2.3,Win32,59.9880024,,,,,,,,,,,,,,,,,,,3,0,3,0,1
,0.12,,,,,,,,,j,red,61119e35715393a10be3485f,2021-11-03_11h28.24.127,forced_choiceRT_color,2021.2.3,Win32,59.9880024,,,,,,,,5,Ontime,long,j,1,1.9005,0,0,0,2,1,,,,,
,0.74,,,,,,,,,f,blue,61119e35715393a10be3485f,2021-11-03_11h28.24.127,forced_choiceRT_color,2021.2.3,Win32,59.9880024,,,,,,,,5,Ontime,long,f,1,1.9033,0,1,1,1,1,,,,,
,1.76,,,,,,,,,k,purple,61119e35715393a10be3485f,2021-11-03_11h28.24.127,forced_choiceRT_color,2021.2.3,Win32,59.9880024,,,,,,,,5,Slow,long,k,1,2.1679,0,2,2,3,1,,,,,
,0.42,,,,,,,,,f,blue,61119e35715393a10be3485f,2021-11-03_11h28.24.127,forced_choiceRT_color,2021.2.3,Win32,59.9880024,,,,,,,,5,Fast,long,f,1,1.8749,0,3,3,1,1,,,,,
,1.26,,,,,,,,,d,orange,61119e35715393a10be3485f,2021-11-03_11h28.24.127,forced_choiceRT_color,2021.2.3,Win32,59.9880024,,,,,,,,5,Ontime,long,d,1,2.0348,1,0,4,0,1,,,,,
,0.85,,,,,,,,,k,purple,61119e35715393a10be3485f,2021-11-03_11h28.24.127,forced_choiceRT_color,2021.2.3,Win32,59.9880024,,,,,,,,5,Ontime,long,k,1,2.0198,1,1,5,3,1,,,,,
,1.71,,,,,,,,,k,purple,61119e35715393a10be3485f,2021-11-03_11h28.24.127,forced_choiceRT_color,2021.2.3,Win32,59.9880024,,,,,,,,5,Ontime,long,k,1,2.0735,1,2,6,3,1,,,,,
,0.84,,,,,,,,,d,orange,61119e35715393a10be3485f,2021-11-03_11h28.24.127,forced_choiceRT_color,2021.2.3,Win32,59.9880024,,,,,,,,5,Ontime,long,d,1,2.067,1,3,7,0,1,,,,,
,1.88,,,,,,,,,k,purple,61119e35715393a10be3485f,2021-11-03_11h28.24.127,forced_choiceRT_color,2021.2.3,Win32,59.9880024,,,,,,,,5,Slow,long,j,0,2.2007,2,0,8,3,1,,,,,
,1.77,,,,,,,,,j,red,61119e35715393a10be3485f,2021-11-03_11h28.24.127,forced_choiceRT_color,2021.2.3,Win32,59.9880024,,,,,,,,5,Slow,long,j,1,2.3539,2,1,9,2,1,,,,,
,1.99,,,,,,,,,k,purple,61119e35715393a10be3485f,2021-11-03_11h28.24.127,forced_choiceRT_color,2021.2.3,Win32,59.9880024,,,,,,,,5,Slow,long,k,1,2.4216,2,2,10,3,1,,,,,
,1.7,,,,,,,,,f,blue,61119e35715393a10be3485f,2021-11-03_11h28.24.127,forced_choiceRT_color,2021.2.3,Win32,59.9880024,,,,,,,,5,Slow,long,k,0,2.1378,2,3,11,1,1,,,,,
,1.49,,,,,,,,,d,orange,61119e35715393a10be3485f,2021-11-03_11h28.24.127,forced_choiceRT_color,2021.2.3,Win32,59.9880024,,,,,,,,5,Ontime,long,d,1,2.0507,3,0,12,0,1,,,,,
,1.17,,,,,,,,,f,blue,61119e35715393a10be3485f,2021-11-03_11h28.24.127,forced_choiceRT_color,2021.2.3,Win32,59.9880024,,,,,,,,5,Ontime,long,f,1,1.9363,3,1,13,1,1,,,,,
,0.88,,,,,,,,,j,red,61119e35715393a10be3485f,2021-11-03_11h28.24.127,forced_choiceRT_color,2021.2.3,Win32,59.9880024,,,,,,,,5,Ontime,long,j,1,2.0774,3,2,14,2,1,,,,,
,1,,,,,,,,,j,red,61119e35715393a10be3485f,2021-11-03_11h28.24.127,forced_choiceRT_color,2021.2.3,Win32,59.9880024,,,,,,,,5,Fast,long,j,1,1.5899,3,3,15,2,1,,,,,
,0.16,,,,,,,,,f,blue,61119e35715393a10be3485f,2021-11-03_11h28.24.127,forced_choiceRT_color,2021.2.3,Win32,59.9880024,,,,,,,,5,Ontime,long,f,1,2.044,4,0,16,1,1,,,,,
,1.22,,,,,,,,,k,purple,61119e35715393a10be3485f,2021-11-03_11h28.24.127,forced_choiceRT_color,2021.2.3,Win32,59.9880024,,,,,,,,5,Slow,long,k,1,2.1204,4,1,17,3,1,,,,,
,0.03,,,,,,,,,j,red,61119e35715393a10be3485f,2021-11-03_11h28.24.127,forced_choiceRT_color,2021.2.3,Win32,59.9880024,,,,,,,,5,Ontime,long,j,1,1.9548,4,2,18,2,1,,,,,
,1.6,,,,,,,,,d,orange,61119e35715393a10be3485f,2021-11-03_11h28.24.127,forced_choiceRT_color,2021.2.3,Win32,59.9880024,,,,,,,,5,Slow,long,f,0,2.3067,4,3,19,0,1,,,,,
,0.35,,,,,,,,,f,blue,61119e35715393a10be3485f,2021-11-03_11h28.24.127,forced_choiceRT_color,2021.2.3,Win32,59.9880024,,,,,,,,5,Ontime,long,f,1,1.9382,5,0,20,1,1,,,,,
,0.45,,,,,,,,,d,orange,61119e35715393a10be3485f,2021-11-03_11h28.24.127,forced_choiceRT_color,2021.2.3,Win32,59.9880024,,,,,,,,5,Ontime,long,d,1,2.0179,5,1,21,0,1,,,,,
,1.96,,,,,,,,,k,purple,61119e35715393a10be3485f,2021-11-03_11h28.24.127,forced_choiceRT_color,2021.2.3,Win32,59.9880024,,,,,,,,5,Slow,long,k,1,2.3112,5,2,22,3,1,,,,,
,1.17,,,,,,,,,f,blue,61119e35715393a10be3485f,2021-11-03_11h28.24.127,forced_choiceRT_color,2021.2.3,Win32,59.9880024,,,,,,,,5,Ontime,long,f,1,1.9941,5,3,23,1,1,,,,,
,1,,,,,,,,,d,orange,61119e35715393a10be3485f,2021-11-03_11h28.24.127,forced_choiceRT_color,2021.2.3,Win32,59.9880024,,,,,,,,5,Ontime,long,d,1,2.0137,6,0,24,0,1,,,,,
,0.88,,,,,,,,,k,purple,61119e35715393a10be3485f,2021-11-03_11h28.24.127,forced_choiceRT_color,2021.2.3,Win32,59.9880024,,,,,,,,5,Ontime,long,k,1,2.0537,6,1,25,3,1,,,,,
,1.4,,,,,,,,,f,blue,61119e35715393a10be3485f,2021-11-03_11h28.24.127,forced_choiceRT_color,2021.2.3,Win32,59.9880024,,,,,,,,5,Slow,long,f,1,2.1032,6,2,26,1,1,,,,,
,0.5,,,,,,,,,j,red,61119e35715393a10be3485f,2021-11-03_11h28.24.127,forced_choiceRT_color,2021.2.3,Win32,59.9880024,,,,,,,,5,Ontime,long,j,1,2.0133,6,3,27,2,1,,,,,
,1.91,,,,,,,,,d,orange,61119e35715393a10be3485f,2021-11-03_11h28.24.127,forced_choiceRT_color,2021.2.3,Win32,59.9880024,,,,,,,,5,Slow,long,k,0,2.2341,7,0,28,0,1,,,,,
,1.13,,,,,,,,,k,purple,61119e35715393a10be3485f,2021-11-03_11h28.24.127,forced_choiceRT_color,2021.2.3,Win32,59.9880024,,,,,,,,5,Ontime,long,k,1,2.023,7,1,29,3,1,,,,,
,1.5,,,,,,,,,j,red,61119e35715393a10be3485f,2021-11-03_11h28.24.127,forced_choiceRT_color,2021.2.3,Win32,59.9880024,,,,,,,,5,Ontime,long,j,1,2.0507,7,2,30,2,1,,,,,
,1.72,,,,,,,,,d,orange,61119e35715393a10be3485f,2021-11-03_11h28.24.127,forced_choiceRT_color,2021.2.3,Win32,59.9880024,,,,,,,,5,Slow,long,f,0,2.1293,7,3,31,0,1,,,,,
,1.06,,,,,,,,,d,orange,61119e35715393a10be3485f,2021-11-03_11h28.24.127,forced_choiceRT_color,2021.2.3,Win32,59.9880024,,,,,,,,5,Ontime,long,d,1,1.9099,8,0,32,0,1,,,,,
,1.68,,,,,,,,,k,purple,61119e35715393a10be3485f,2021-11-03_11h28.24.127,forced_choiceRT_color,2021.2.3,Win32,59.9880024,,,,,,,,5,Ontime,long,k,1,2.0916,8,1,33,3,1,,,,,
,0.79,,,,,,,,,f,blue,61119e35715393a10be3485f,2021-11-03_11h28.24.127,forced_choiceRT_color,2021.2.3,Win32,59.9880024,,,,,,,,5,Ontime,long,f,1,2.0023,8,2,34,1,1,,,,,
,1.33,,,,,,,,,j,red,61119e35715393a10be3485f,2021-11-03_11h28.24.127,forced_choiceRT_color,2021.2.3,Win32,59.9880024,,,,,,,,5,Ontime,long,j,1,1.9604,8,3,35,2,1,,,,,
,1.22,,,,,,,,,d,orange,61119e35715393a10be3485f,2021-11-03_11h28.24.127,forced_choiceRT_color,2021.2.3,Win32,59.9880024,,,,,,,,5,Fast,long,d,1,1.8507,9,0,36,0,1,,,,,
,1.84,,,,,,,,,j,red,61119e35715393a10be3485f,2021-11-03_11h28.24.127,forced_choiceRT_color,2021.2.3,Win32,59.9880024,,,,,,,,5,Slow,long,k,0,2.2353,9,1,37,2,1,,,,,
,1,,,,,,,,,j,red,61119e35715393a10be3485f,2021-11-03_11h28.24.127,forced_choiceRT_color,2021.2.3,Win32,59.9880024,,,,,,,,5,Ontime,long,j,1,1.9863,9,2,38,2,1,,,,,
,0.63,,,,,,,,,f,blue,61119e35715393a10be3485f,2021-11-03_11h28.24.127,forced_choiceRT_color,2021.2.3,Win32,59.9880024,,,,,,,,5,Fast,long,f,1,1.787,9,3,39,1,1,,,,,
,,,,,,,,,,,,61119e35715393a10be3485f,2021-11-03_11h28.24.127,forced_choiceRT_color,2021.2.3,Win32,59.9880024,,,,,,,,,,,,,,,,,,,4,0,4,0,1
,1.93,,,,,,,,,k,purple,61119e35715393a10be3485f,2021-11-03_11h28.24.127,forced_choiceRT_color,2021.2.3,Win32,59.9880024,,,,,,,,6,Slow,long,k,1,2.2888,0,0,0,3,1,,,,,
,1.44,,,,,,,,,d,orange,61119e35715393a10be3485f,2021-11-03_11h28.24.127,forced_choiceRT_color,2021.2.3,Win32,59.9880024,,,,,,,,6,Ontime,long,d,1,2.0204,0,1,1,0,1,,,,,
,0.88,,,,,,,,,d,orange,61119e35715393a10be3485f,2021-11-03_11h28.24.127,forced_choiceRT_color,2021.2.3,Win32,59.9880024,,,,,,,,6,Ontime,long,d,1,2.0033,0,2,2,0,1,,,,,
,1.75,,,,,,,,,j,red,61119e35715393a10be3485f,2021-11-03_11h28.24.127,forced_choiceRT_color,2021.2.3,Win32,59.9880024,,,,,,,,6,Slow,long,j,1,2.1181,0,3,3,2,1,,,,,
,0.17,,,,,,,,,d,orange,61119e35715393a10be3485f,2021-11-03_11h28.24.127,forced_choiceRT_color,2021.2.3,Win32,59.9880024,,,,,,,,6,Ontime,long,d,1,1.9951,1,0,4,0,1,,,,,
,0.37,,,,,,,,,k,purple,61119e35715393a10be3485f,2021-11-03_11h28.24.127,forced_choiceRT_color,2021.2.3,Win32,59.9880024,,,,,,,,6,Slow,long,k,1,2.1014,1,1,5,3,1,,,,,
,0.97,,,,,,,,,f,blue,61119e35715393a10be3485f,2021-11-03_11h28.24.127,forced_choiceRT_color,2021.2.3,Win32,59.9880024,,,,,,,,6,Ontime,long,f,1,2.0678,1,2,6,1,1,,,,,
,0.99,,,,,,,,,j,red,61119e35715393a10be3485f,2021-11-03_11h28.24.127,forced_choiceRT_color,2021.2.3,Win32,59.9880024,,,,,,,,6,Ontime,long,j,1,1.9593,1,3,7,2,1,,,,,
,1.13,,,,,,,,,k,purple,61119e35715393a10be3485f,2021-11-03_11h28.24.127,forced_choiceRT_color,2021.2.3,Win32,59.9880024,,,,,,,,6,Fast,long,k,1,1.7708,2,0,8,3,1,,,,,
,0.59,,,,,,,,,d,orange,61119e35715393a10be3485f,2021-11-03_11h28.24.127,forced_choiceRT_color,2021.2.3,Win32,59.9880024,,,,,,,,6,Ontime,long,d,1,1.9827,2,1,9,0,1,,,,,
,0.52,,,,,,,,,f,blue,61119e35715393a10be3485f,2021-11-03_11h28.24.127,forced_choiceRT_color,2021.2.3,Win32,59.9880024,,,,,,,,6,Ontime,long,f,1,1.9215,2,2,10,1,1,,,,,
,1.83,,,,,,,,,f,blue,61119e35715393a10be3485f,2021-11-03_11h28.24.127,forced_choiceRT_color,2021.2.3,Win32,59.9880024,,,,,,,,6,Slow,long,f,1,2.3347,2,3,11,1,1,,,,,
,1.28,,,,,,,,,j,red,61119e35715393a10be3485f,2021-11-03_11h28.24.127,forced_choiceRT_color,2021.2.3,Win32,59.9880024,,,,,,,,6,Slow,long,j,1,10.822,3,0,12,2,1,,,,,
,1.26,,,,,,,,,j,red,61119e35715393a10be3485f,2021-11-03_11h28.24.127,forced_choiceRT_color,2021.2.3,Win32,59.9880024,,,,,,,,6,Fast,long,j,1,1.6865,3,1,13,2,1,,,,,
,0.74,,,,,,,,,f,blue,61119e35715393a10be3485f,2021-11-03_11h28.24.127,forced_choiceRT_color,2021.2.3,Win32,59.9880024,,,,,,,,6,Ontime,long,k,0,2.0687,3,2,14,1,1,,,,,
,0.73,,,,,,,,,d,orange,61119e35715393a10be3485f,2021-11-03_11h28.24.127,forced_choiceRT_color,2021.2.3,Win32,59.9880024,,,,,,,,6,Ontime,long,d,1,1.924,3,3,15,0,1,,,,,
,1.71,,,,,,,,,k,purple,61119e35715393a10be3485f,2021-11-03_11h28.24.127,forced_choiceRT_color,2021.2.3,Win32,59.9880024,,,,,,,,6,Slow,long,j,0,2.1564,4,0,16,3,1,,,,,
,1.56,,,,,,,,,j,red,61119e35715393a10be3485f,2021-11-03_11h28.24.127,forced_choiceRT_color,2021.2.3,Win32,59.9880024,,,,,,,,6,Ontime,long,j,1,2.0338,4,1,17,2,1,,,,,
,1.99,,,,,,,,,k,purple,61119e35715393a10be3485f,2021-11-03_11h28.24.127,forced_choiceRT_color,2021.2.3,Win32,59.9880024,,,,,,,,6,Slow,long,k,1,2.5149,4,2,18,3,1,,,,,
,0.89,,,,,,,,,d,orange,61119e35715393a10be3485f,2021-11-03_11h28.24.127,forced_choiceRT_color,2021.2.3,Win32,59.9880024,,,,,,,,6,Ontime,long,d,1,1.9686,4,3,19,0,1,,,,,
,0.02,,,,,,,,,j,red,61119e35715393a10be3485f,2021-11-03_11h28.24.127,forced_choiceRT_color,2021.2.3,Win32,59.9880024,,,,,,,,6,Fast,long,j,1,1.8561,5,0,20,2,1,,,,,
,0.21,,,,,,,,,f,blue,61119e35715393a10be3485f,2021-11-03_11h28.24.127,forced_choiceRT_color,2021.2.3,Win32,59.9880024,,,,,,,,6,Ontime,long,f,1,1.982,5,1,21,1,1,,,,,
,1.42,,,,,,,,,k,purple,61119e35715393a10be3485f,2021-11-03_11h28.24.127,forced_choiceRT_color,2021.2.3,Win32,59.9880024,,,,,,,,6,Slow,long,k,1,2.1541,5,2,22,3,1,,,,,
,1.01,,,,,,,,,d,orange,61119e35715393a10be3485f,2021-11-03_11h28.24.127,forced_choiceRT_color,2021.2.3,Win32,59.9880024,,,,,,,,6,Ontime,long,d,1,1.9008,5,3,23,0,1,,,,,
,0.6,,,,,,,,,d,orange,61119e35715393a10be3485f,2021-11-03_11h28.24.127,forced_choiceRT_color,2021.2.3,Win32,59.9880024,,,,,,,,6,Fast,long,d,1,1.8842,6,0,24,0,1,,,,,
,0.7,,,,,,,,,d,orange,61119e35715393a10be3485f,2021-11-03_11h28.24.127,forced_choiceRT_color,2021.2.3,Win32,59.9880024,,,,,,,,6,Ontime,long,d,1,1.9677,6,1,25,0,1,,,,,
,1.72,,,,,,,,,k,purple,61119e35715393a10be3485f,2021-11-03_11h28.24.127,forced_choiceRT_color,2021.2.3,Win32,59.9880024,,,,,,,,6,Slow,long,k,1,2.1842,6,2,26,3,1,,,,,
,0.82,,,,,,,,,k,purple,61119e35715393a10be3485f,2021-11-03_11h28.24.127,forced_choiceRT_color,2021.2.3,Win32,59.9880024,,,,,,,,6,Ontime,long,k,1,1.991,6,3,27,3,1,,,,,
,1.54,,,,,,,,,f,blue,61119e35715393a10be3485f,2021-11-03_11h28.24.127,forced_choiceRT_color,2021.2.3,Win32,59.9880024,,,,,,,,6,Ontime,long,f,1,2.0399,7,0,28,1,1,,,,,
,0.08,,,,,,,,,f,blue,61119e35715393a10be3485f,2021-11-03_11h28.24.127,forced_choiceRT_color,2021.2.3,Win32,59.9880024,,,,,,,,6,Ontime,long,f,1,2.0348,7,1,29,1,1,,,,,
,0.08,,,,,,,,,j,red,61119e35715393a10be3485f,2021-11-03_11h28.24.127,forced_choiceRT_color,2021.2.3,Win32,59.9880024,,,,,,,,6,Ontime,long,j,1,2.0493,7,2,30,2,1,,,,,
,1.31,,,,,,,,,d,orange,61119e35715393a10be3485f,2021-11-03_11h28.24.127,forced_choiceRT_color,2021.2.3,Win32,59.9880024,,,,,,,,6,Slow,long,d,1,2.201,7,3,31,0,1,,,,,
,1.45,,,,,,,,,k,purple,61119e35715393a10be3485f,2021-11-03_11h28.24.127,forced_choiceRT_color,2021.2.3,Win32,59.9880024,,,,,,,,6,Ontime,long,k,1,1.9497,8,0,32,3,1,,,,,
,1.06,,,,,,,,,f,blue,61119e35715393a10be3485f,2021-11-03_11h28.24.127,forced_choiceRT_color,2021.2.3,Win32,59.9880024,,,,,,,,6,Ontime,long,f,1,1.9843,8,1,33,1,1,,,,,
,1.18,,,,,,,,,j,red,61119e35715393a10be3485f,2021-11-03_11h28.24.127,forced_choiceRT_color,2021.2.3,Win32,59.9880024,,,,,,,,6,Fast,long,j,1,1.8862,8,2,34,2,1,,,,,
,1.47,,,,,,,,,f,blue,61119e35715393a10be3485f,2021-11-03_11h28.24.127,forced_choiceRT_color,2021.2.3,Win32,59.9880024,,,,,,,,6,Ontime,long,f,1,1.9915,8,3,35,1,1,,,,,
,1.27,,,,,,,,,j,red,61119e35715393a10be3485f,2021-11-03_11h28.24.127,forced_choiceRT_color,2021.2.3,Win32,59.9880024,,,,,,,,6,Ontime,long,j,1,1.9978,9,0,36,2,1,,,,,
,1.38,,,,,,,,,f,blue,61119e35715393a10be3485f,2021-11-03_11h28.24.127,forced_choiceRT_color,2021.2.3,Win32,59.9880024,,,,,,,,6,Ontime,long,f,1,1.902,9,1,37,1,1,,,,,
,0.26,,,,,,,,,k,purple,61119e35715393a10be3485f,2021-11-03_11h28.24.127,forced_choiceRT_color,2021.2.3,Win32,59.9880024,,,,,,,,6,Ontime,long,k,1,2.0148,9,2,38,3,1,,,,,
,0.75,,,,,,,,,j,red,61119e35715393a10be3485f,2021-11-03_11h28.24.127,forced_choiceRT_color,2021.2.3,Win32,59.9880024,,,,,,,,6,Ontime,long,j,1,2.0692,9,3,39,2,1,,,,,
,,,,,,,,,,,,61119e35715393a10be3485f,2021-11-03_11h28.24.127,forced_choiceRT_color,2021.2.3,Win32,59.9880024,,,,,,,,,,,,,,,,,,,5,0,5,0,1
,0.94,,,,,,,,,j,red,61119e35715393a10be3485f,2021-11-03_11h28.24.127,forced_choiceRT_color,2021.2.3,Win32,59.9880024,,,,,,,,7,Fast,long,f,0,1.8954,0,0,0,2,1,,,,,
,1.97,,,,,,,,,k,purple,61119e35715393a10be3485f,2021-11-03_11h28.24.127,forced_choiceRT_color,2021.2.3,Win32,59.9880024,,,,,,,,7,Slow,long,k,1,2.3039,0,1,1,3,1,,,,,
,1.17,,,,,,,,,d,orange,61119e35715393a10be3485f,2021-11-03_11h28.24.127,forced_choiceRT_color,2021.2.3,Win32,59.9880024,,,,,,,,7,Ontime,long,d,1,1.9435,0,2,2,0,1,,,,,
,0.21,,,,,,,,,k,purple,61119e35715393a10be3485f,2021-11-03_11h28.24.127,forced_choiceRT_color,2021.2.3,Win32,59.9880024,,,,,,,,7,Ontime,long,k,1,1.9509,0,3,3,3,1,,,,,
,0.89,,,,,,,,,f,blue,61119e35715393a10be3485f,2021-11-03_11h28.24.127,forced_choiceRT_color,2021.2.3,Win32,59.9880024,,,,,,,,7,Ontime,long,f,1,1.956,1,0,4,1,1,,,,,
,1.71,,,,,,,,,d,orange,61119e35715393a10be3485f,2021-11-03_11h28.24.127,forced_choiceRT_color,2021.2.3,Win32,59.9880024,,,,,,,,7,Slow,long,d,1,2.2589,1,1,5,0,1,,,,,
,1.08,,,,,,,,,d,orange,61119e35715393a10be3485f,2021-11-03_11h28.24.127,forced_choiceRT_color,2021.2.3,Win32,59.9880024,,,,,,,,7,Fast,long,d,1,1.7061,1,2,6,0,1,,,,,
,1.37,,,,,,,,,f,blue,61119e35715393a10be3485f,2021-11-03_11h28.24.127,forced_choiceRT_color,2021.2.3,Win32,59.9880024,,,,,,,,7,Fast,long,d,0,1.8547,1,3,7,1,1,,,,,
,1.36,,,,,,,,,f,blue,61119e35715393a10be3485f,2021-11-03_11h28.24.127,forced_choiceRT_color,2021.2.3,Win32,59.9880024,,,,,,,,7,Ontime,long,f,1,1.9772,2,0,8,1,1,,,,,
,1.27,,,,,,,,,k,purple,61119e35715393a10be3485f,2021-11-03_11h28.24.127,forced_choiceRT_color,2021.2.3,Win32,59.9880024,,,,,,,,7,Ontime,long,k,1,1.981,2,1,9,3,1,,,,,
,1.19,,,,,,,,,k,purple,61119e35715393a10be3485f,2021-11-03_11h28.24.127,forced_choiceRT_color,2021.2.3,Win32,59.9880024,,,,,,,,7,Fast,long,k,1,1.7651,2,2,10,3,1,,,,,
,1.52,,,,,,,,,f,blue,61119e35715393a10be3485f,2021-11-03_11h28.24.127,forced_choiceRT_color,2021.2.3,Win32,59.9880024,,,,,,,,7,Ontime,long,d,0,2.0845,2,3,11,1,1,,,,,
,1.85,,,,,,,,,f,blue,61119e35715393a10be3485f,2021-11-03_11h28.24.127,forced_choiceRT_color,2021.2.3,Win32,59.9880024,,,,,,,,7,Slow,long,f,1,3.5047,3,0,12,1,1,,,,,
,0.41,,,,,,,,,f,blue,61119e35715393a10be3485f,2021-11-03_11h28.24.127,forced_choiceRT_color,2021.2.3,Win32,59.9880024,,,,,,,,7,Fast,long,f,1,1.4174,3,1,13,1,1,,,,,
,1.43,,,,,,,,,j,red,61119e35715393a10be3485f,2021-11-03_11h28.24.127,forced_choiceRT_color,2021.2.3,Win32,59.9880024,,,,,,,,7,Ontime,long,j,1,1.9843,3,2,14,2,1,,,,,
,0.16,,,,,,,,,f,blue,61119e35715393a10be3485f,2021-11-03_11h28.24.127,forced_choiceRT_color,2021.2.3,Win32,59.9880024,,,,,,,,7,Ontime,long,f,1,2.0285,3,3,15,1,1,,,,,
,0.54,,,,,,,,,d,orange,61119e35715393a10be3485f,2021-11-03_11h28.24.127,forced_choiceRT_color,2021.2.3,Win32,59.9880024,,,,,,,,7,Ontime,long,d,1,2.0187,4,0,16,0,1,,,,,
,1.62,,,,,,,,,k,purple,61119e35715393a10be3485f,2021-11-03_11h28.24.127,forced_choiceRT_color,2021.2.3,Win32,59.9880024,,,,,,,,7,Slow,long,k,1,2.1754,4,1,17,3,1,,,,,
,1.08,,,,,,,,,d,orange,61119e35715393a10be3485f,2021-11-03_11h28.24.127,forced_choiceRT_color,2021.2.3,Win32,59.9880024,,,,,,,,7,Ontime,long,d,1,1.9115,4,2,18,0,1,,,,,
,0.13,,,,,,,,,k,purple,61119e35715393a10be3485f,2021-11-03_11h28.24.127,forced_choiceRT_color,2021.2.3,Win32,59.9880024,,,,,,,,7,Fast,long,k,1,1.8171,4,3,19,3,1,,,,,
,0.53,,,,,,,,,d,orange,61119e35715393a10be3485f,2021-11-03_11h28.24.127,forced_choiceRT_color,2021.2.3,Win32,59.9880024,,,,,,,,7,Ontime,long,d,1,1.9421,5,0,20,0,1,,,,,
,1.78,,,,,,,,,d,orange,61119e35715393a10be3485f,2021-11-03_11h28.24.127,forced_choiceRT_color,2021.2.3,Win32,59.9880024,,,,,,,,7,Slow,long,j,0,2.3181,5,1,21,0,1,,,,,
,0.42,,,,,,,,,f,blue,61119e35715393a10be3485f,2021-11-03_11h28.24.127,forced_choiceRT_color,2021.2.3,Win32,59.9880024,,,,,,,,7,Ontime,long,f,1,2.0335,5,2,22,1,1,,,,,
,0.87,,,,,,,,,d,orange,61119e35715393a10be3485f,2021-11-03_11h28.24.127,forced_choiceRT_color,2021.2.3,Win32,59.9880024,,,,,,,,7,Ontime,long,d,1,2.0314,5,3,23,0,1,,,,,
,1.04,,,,,,,,,k,purple,61119e35715393a10be3485f,2021-11-03_11h28.24.127,forced_choiceRT_color,2021.2.3,Win32,59.9880024,,,,,,,,7,Fast,long,k,1,1.8889,6,0,24,3,1,,,,,
,0.41,,,,,,,,,f,blue,61119e35715393a10be3485f,2021-11-03_11h28.24.127,forced_choiceRT_color,2021.2.3,Win32,59.9880024,,,,,,,,7,Ontime,long,f,1,1.9701,6,1,25,1,1,,,,,
,0.95,,,,,,,,,j,red,61119e35715393a10be3485f,2021-11-03_11h28.24.127,forced_choiceRT_color,2021.2.3,Win32,59.9880024,,,,,,,,7,Fast,long,j,1,1.8362,6,2,26,2,1,,,,,
,0.03,,,,,,,,,j,red,61119e35715393a10be3485f,2021-11-03_11h28.24.127,forced_choiceRT_color,2021.2.3,Win32,59.9880024,,,,,,,,7,Ontime,long,j,1,2.0449,6,3,27,2,1,,,,,
,0.04,,,,,,,,,j,red,61119e35715393a10be3485f,2021-11-03_11h28.24.127,forced_choiceRT_color,2021.2.3,Win32,59.9880024,,,,,,,,7,Fast,long,j,1,1.8881,7,0,28,2,1,,,,,
,1.27,,,,,,,,,k,purple,61119e35715393a10be3485f,2021-11-03_11h28.24.127,forced_choiceRT_color,2021.2.3,Win32,59.9880024,,,,,,,,7,Slow,long,k,1,2.1149,7,1,29,3,1,,,,,
,0.92,,,,,,,,,j,red,61119e35715393a10be3485f,2021-11-03_11h28.24.127,forced_choiceRT_color,2021.2.3,Win32,59.9880024,,,,,,,,7,Ontime,long,j,1,1.973,7,2,30,2,1,,,,,
,1.64,,,,,,,,,d,orange,61119e35715393a10be3485f,2021-11-03_11h28.24.127,forced_choiceRT_color,2021.2.3,Win32,59.9880024,,,,,,,,7,Ontime,long,d,1,2.0561,7,3,31,0,1,,,,,
,0.56,,,,,,,,,k,purple,61119e35715393a10be3485f,2021-11-03_11h28.24.127,forced_choiceRT_color,2021.2.3,Win32,59.9880024,,,,,,,,7,Ontime,long,k,1,1.9489,8,0,32,3,1,,,,,
,1.69,,,,,,,,,j,red,61119e35715393a10be3485f,2021-11-03_11h28.24.127,forced_choiceRT_color,2021.2.3,Win32,59.9880024,,,,,,,,7,Ontime,long,f,0,2.0681,8,1,33,2,1,,,,,
,0.76,,,,,,,,,f,blue,61119e35715393a10be3485f,2021-11-03_11h28.24.127,forced_choiceRT_color,2021.2.3,Win32,59.9880024,,,,,,,,7,Ontime,long,f,1,1.9355,8,2,34,1,1,,,,,
,0.63,,,,,,,,,k,purple,61119e35715393a10be3485f,2021-11-03_11h28.24.127,forced_choiceRT_color,2021.2.3,Win32,59.9880024,,,,,,,,7,Ontime,long,k,1,2.0116,8,3,35,3,1,,,,,
,0.42,,,,,,,,,j,red,61119e35715393a10be3485f,2021-11-03_11h28.24.127,forced_choiceRT_color,2021.2.3,Win32,59.9880024,,,,,,,,7,Ontime,long,j,1,2.0176,9,0,36,2,1,,,,,
,1.37,,,,,,,,,d,orange,61119e35715393a10be3485f,2021-11-03_11h28.24.127,forced_choiceRT_color,2021.2.3,Win32,59.9880024,,,,,,,,7,Fast,long,j,0,1.7724,9,1,37,0,1,,,,,
,1.35,,,,,,,,,j,red,61119e35715393a10be3485f,2021-11-03_11h28.24.127,forced_choiceRT_color,2021.2.3,Win32,59.9880024,,,,,,,,7,Fast,long,k,0,1.8813,9,2,38,2,1,,,,,
,1.82,,,,,,,,,j,red,61119e35715393a10be3485f,2021-11-03_11h28.24.127,forced_choiceRT_color,2021.2.3,Win32,59.9880024,,,,,,,,7,Slow,long,d,0,2.2493,9,3,39,2,1,,,,,
,,,,,,,,,,,,61119e35715393a10be3485f,2021-11-03_11h28.24.127,forced_choiceRT_color,2021.2.3,Win32,59.9880024,,,,,,,,,,,,,,,,,,,6,0,6,0,1
,1.16,,,,,,,,,k,purple,61119e35715393a10be3485f,2021-11-03_11h28.24.127,forced_choiceRT_color,2021.2.3,Win32,59.9880024,,,,,,,,8,Fast,long,k,1,1.7946,0,0,0,3,1,,,,,
,0.78,,,,,,,,,d,orange,61119e35715393a10be3485f,2021-11-03_11h28.24.127,forced_choiceRT_color,2021.2.3,Win32,59.9880024,,,,,,,,8,Fast,long,d,1,1.7844,0,1,1,0,1,,,,,
,0.87,,,,,,,,,k,purple,61119e35715393a10be3485f,2021-11-03_11h28.24.127,forced_choiceRT_color,2021.2.3,Win32,59.9880024,,,,,,,,8,Ontime,long,k,1,1.9825,0,2,2,3,1,,,,,
,0.38,,,,,,,,,f,blue,61119e35715393a10be3485f,2021-11-03_11h28.24.127,forced_choiceRT_color,2021.2.3,Win32,59.9880024,,,,,,,,8,Ontime,long,f,1,2.0372,0,3,3,1,1,,,,,
,0.81,,,,,,,,,d,orange,61119e35715393a10be3485f,2021-11-03_11h28.24.127,forced_choiceRT_color,2021.2.3,Win32,59.9880024,,,,,,,,8,Ontime,long,d,1,2.0026,1,0,4,0,1,,,,,
,1.01,,,,,,,,,j,red,61119e35715393a10be3485f,2021-11-03_11h28.24.127,forced_choiceRT_color,2021.2.3,Win32,59.9880024,,,,,,,,8,Ontime,long,k,0,1.9212,1,1,5,2,1,,,,,
,1.96,,,,,,,,,k,purple,61119e35715393a10be3485f,2021-11-03_11h28.24.127,forced_choiceRT_color,2021.2.3,Win32,59.9880024,,,,,,,,8,Slow,long,j,0,2.3677,1,2,6,3,1,,,,,
,0.66,,,,,,,,,f,blue,61119e35715393a10be3485f,2021-11-03_11h28.24.127,forced_choiceRT_color,2021.2.3,Win32,59.9880024,,,,,,,,8,Ontime,long,f,1,2.0132,1,3,7,1,1,,,,,
,0.11,,,,,,,,,j,red,61119e35715393a10be3485f,2021-11-03_11h28.24.127,forced_choiceRT_color,2021.2.3,Win32,59.9880024,,,,,,,,8,Fast,long,j,1,1.7792,2,0,8,2,1,,,,,
,0.16,,,,,,,,,k,purple,61119e35715393a10be3485f,2021-11-03_11h28.24.127,forced_choiceRT_color,2021.2.3,Win32,59.9880024,,,,,,,,8,Ontime,long,k,1,2.0193,2,1,9,3,1,,,,,
,1.43,,,,,,,,,d,orange,61119e35715393a10be3485f,2021-11-03_11h28.24.127,forced_choiceRT_color,2021.2.3,Win32,59.9880024,,,,,,,,8,Ontime,long,d,1,2.0256,2,2,10,0,1,,,,,
,0.79,,,,,,,,,d,orange,61119e35715393a10be3485f,2021-11-03_11h28.24.127,forced_choiceRT_color,2021.2.3,Win32,59.9880024,,,,,,,,8,Ontime,long,d,1,2.0031,2,3,11,0,1,,,,,
,1.54,,,,,,,,,j,red,61119e35715393a10be3485f,2021-11-03_11h28.24.127,forced_choiceRT_color,2021.2.3,Win32,59.9880024,,,,,,,,8,Slow,long,k,0,2.1203,3,0,12,2,1,,,,,
,1.95,,,,,,,,,j,red,61119e35715393a10be3485f,2021-11-03_11h28.24.127,forced_choiceRT_color,2021.2.3,Win32,59.9880024,,,,,,,,8,Slow,long,k,0,2.2841,3,1,13,2,1,,,,,
,1.16,,,,,,,,,f,blue,61119e35715393a10be3485f,2021-11-03_11h28.24.127,forced_choiceRT_color,2021.2.3,Win32,59.9880024,,,,,,,,8,Fast,long,f,1,1.8508,3,2,14,1,1,,,,,
,0.09,,,,,,,,,f,blue,61119e35715393a10be3485f,2021-11-03_11h28.24.127,forced_choiceRT_color,2021.2.3,Win32,59.9880024,,,,,,,,8,Ontime,long,f,1,1.9984,3,3,15,1,1,,,,,
,0.2,,,,,,,,,k,purple,61119e35715393a10be3485f,2021-11-03_11h28.24.127,forced_choiceRT_color,2021.2.3,Win32,59.9880024,,,,,,,,8,Ontime,long,k,1,2.0178,4,0,16,3,1,,,,,
,0.25,,,,,,,,,d,orange,61119e35715393a10be3485f,2021-11-03_11h28.24.127,forced_choiceRT_color,2021.2.3,Win32,59.9880024,,,,,,,,8,Fast,long,d,1,1.8269,4,1,17,0,1,,,,,
,1.44,,,,,,,,,k,purple,61119e35715393a10be3485f,2021-11-03_11h28.24.127,forced_choiceRT_color,2021.2.3,Win32,59.9880024,,,,,,,,8,Ontime,long,k,1,2.068,4,2,18,3,1,,,,,
,1.82,,,,,,,,,d,orange,61119e35715393a10be3485f,2021-11-03_11h28.24.127,forced_choiceRT_color,2021.2.3,Win32,59.9880024,,,,,,,,8,Slow,long,f,0,2.2875,4,3,19,0,1,,,,,
,0.37,,,,,,,,,k,purple,61119e35715393a10be3485f,2021-11-03_11h28.24.127,forced_choiceRT_color,2021.2.3,Win32,59.9880024,,,,,,,,8,Ontime,long,k,1,1.9847,5,0,20,3,1,,,,,
,1.96,,,,,,,,,k,purple,61119e35715393a10be3485f,2021-11-03_11h28.24.127,forced_choiceRT_color,2021.2.3,Win32,59.9880024,,,,,,,,8,Slow,long,d,0,2.2867,5,1,21,3,1,,,,,
,0.58,,,,,,,,,k,purple,61119e35715393a10be3485f,2021-11-03_11h28.24.127,forced_choiceRT_color,2021.2.3,Win32,59.9880024,,,,,,,,8,Ontime,long,k,1,1.903,5,2,22,3,1,,,,,
,0.43,,,,,,,,,j,red,61119e35715393a10be3485f,2021-11-03_11h28.24.127,forced_choiceRT_color,2021.2.3,Win32,59.9880024,,,,,,,,8,Ontime,long,j,1,2.013,5,3,23,2,1,,,,,
,1.04,,,,,,,,,f,blue,61119e35715393a10be3485f,2021-11-03_11h28.24.127,forced_choiceRT_color,2021.2.3,Win32,59.9880024,,,,,,,,8,Fast,long,f,1,1.8881,6,0,24,1,1,,,,,
,1.93,,,,,,,,,f,blue,61119e35715393a10be3485f,2021-11-03_11h28.24.127,forced_choiceRT_color,2021.2.3,Win32,59.9880024,,,,,,,,8,Slow,long,f,1,2.5004,6,1,25,1,1,,,,,
,1.65,,,,,,,,,f,blue,61119e35715393a10be3485f,2021-11-03_11h28.24.127,forced_choiceRT_color,2021.2.3,Win32,59.9880024,,,,,,,,8,Slow,long,f,1,2.1508,6,2,26,1,1,,,,,
,0.23,,,,,,,,,f,blue,61119e35715393a10be3485f,2021-11-03_11h28.24.127,forced_choiceRT_color,2021.2.3,Win32,59.9880024,,,,,,,,8,Ontime,long,f,1,1.9745,6,3,27,1,1,,,,,
,0.64,,,,,,,,,j,red,61119e35715393a10be3485f,2021-11-03_11h28.24.127,forced_choiceRT_color,2021.2.3,Win32,59.9880024,,,,,,,,8,Ontime,long,j,1,1.9375,7,0,28,2,1,,,,,
,1.8,,,,,,,,,j,red,61119e35715393a10be3485f,2021-11-03_11h28.24.127,forced_choiceRT_color,2021.2.3,Win32,59.9880024,,,,,,,,8,Slow,long,j,1,2.284,7,1,29,2,1,,,,,
,1.34,,,,,,,,,d,orange,61119e35715393a10be3485f,2021-11-03_11h28.24.127,forced_choiceRT_color,2021.2.3,Win32,59.9880024,,,,,,,,8,Ontime,long,d,1,2.0512,7,2,30,0,1,,,,,
,1.02,,,,,,,,,f,blue,61119e35715393a10be3485f,2021-11-03_11h28.24.127,forced_choiceRT_color,2021.2.3,Win32,59.9880024,,,,,,,,8,Fast,long,f,1,1.8841,7,3,31,1,1,,,,,
,0.03,,,,,,,,,k,purple,61119e35715393a10be3485f,2021-11-03_11h28.24.127,forced_choiceRT_color,2021.2.3,Win32,59.9880024,,,,,,,,8,Ontime,long,k,1,1.9007,8,0,32,3,1,,,,,
,1.66,,,,,,,,,j,red,61119e35715393a10be3485f,2021-11-03_11h28.24.127,forced_choiceRT_color,2021.2.3,Win32,59.9880024,,,,,,,,8,Ontime,long,f,0,2.0915,8,1,33,2,1,,,,,
,1.34,,,,,,,,,d,orange,61119e35715393a10be3485f,2021-11-03_11h28.24.127,forced_choiceRT_color,2021.2.3,Win32,59.9880024,,,,,,,,8,Ontime,long,d,1,1.9343,8,2,34,0,1,,,,,
,1.52,,,,,,,,,j,red,61119e35715393a10be3485f,2021-11-03_11h28.24.127,forced_choiceRT_color,2021.2.3,Win32,59.9880024,,,,,,,,8,Slow,long,j,1,2.1058,8,3,35,2,1,,,,,
,1.67,,,,,,,,,j,red,61119e35715393a10be3485f,2021-11-03_11h28.24.127,forced_choiceRT_color,2021.2.3,Win32,59.9880024,,,,,,,,8,Ontime,long,j,1,2.0675,9,0,36,2,1,,,,,
,1.6,,,,,,,,,f,blue,61119e35715393a10be3485f,2021-11-03_11h28.24.127,forced_choiceRT_color,2021.2.3,Win32,59.9880024,,,,,,,,8,Ontime,long,f,1,2.0715,9,1,37,1,1,,,,,
,0.21,,,,,,,,,d,orange,61119e35715393a10be3485f,2021-11-03_11h28.24.127,forced_choiceRT_color,2021.2.3,Win32,59.9880024,,,,,,,,8,Fast,long,d,1,1.7875,9,2,38,0,1,,,,,
,1.89,,,,,,,,,d,orange,61119e35715393a10be3485f,2021-11-03_11h28.24.127,forced_choiceRT_color,2021.2.3,Win32,59.9880024,,,,,,,,8,Slow,long,f,0,2.32,9,3,39,0,1,,,,,
,,,,,,,,,,,,61119e35715393a10be3485f,2021-11-03_11h28.24.127,forced_choiceRT_color,2021.2.3,Win32,59.9880024,,,,,,,,,,,,,,,,,,,7,0,7,0,1
,0.97,,,,,,,,,k,purple,61119e35715393a10be3485f,2021-11-03_11h28.24.127,forced_choiceRT_color,2021.2.3,Win32,59.9880024,,,,,,,,9,Fast,long,k,1,1.8288,0,0,0,3,1,,,,,
,0.42,,,,,,,,,j,red,61119e35715393a10be3485f,2021-11-03_11h28.24.127,forced_choiceRT_color,2021.2.3,Win32,59.9880024,,,,,,,,9,Ontime,long,j,1,1.9842,0,1,1,2,1,,,,,
,0.43,,,,,,,,,f,blue,61119e35715393a10be3485f,2021-11-03_11h28.24.127,forced_choiceRT_color,2021.2.3,Win32,59.9880024,,,,,,,,9,Ontime,long,f,1,2.0018,0,2,2,1,1,,,,,
,0.99,,,,,,,,,d,orange,61119e35715393a10be3485f,2021-11-03_11h28.24.127,forced_choiceRT_color,2021.2.3,Win32,59.9880024,,,,,,,,9,Ontime,long,d,1,1.9434,0,3,3,0,1,,,,,
,0.03,,,,,,,,,f,blue,61119e35715393a10be3485f,2021-11-03_11h28.24.127,forced_choiceRT_color,2021.2.3,Win32,59.9880024,,,,,,,,9,Ontime,long,f,1,1.9575,1,0,4,1,1,,,,,
,1.62,,,,,,,,,j,red,61119e35715393a10be3485f,2021-11-03_11h28.24.127,forced_choiceRT_color,2021.2.3,Win32,59.9880024,,,,,,,,9,Ontime,long,k,0,2.062,1,1,5,2,1,,,,,
,1.62,,,,,,,,,j,red,61119e35715393a10be3485f,2021-11-03_11h28.24.127,forced_choiceRT_color,2021.2.3,Win32,59.9880024,,,,,,,,9,Ontime,long,j,1,2.0326,1,2,6,2,1,,,,,
,0.24,,,,,,,,,f,blue,61119e35715393a10be3485f,2021-11-03_11h28.24.127,forced_choiceRT_color,2021.2.3,Win32,59.9880024,,,,,,,,9,Ontime,long,f,1,1.9875,1,3,7,1,1,,,,,
,1.96,,,,,,,,,k,purple,61119e35715393a10be3485f,2021-11-03_11h28.24.127,forced_choiceRT_color,2021.2.3,Win32,59.9880024,,,,,,,,9,Slow,long,k,1,2.3518,2,0,8,3,1,,,,,
,0.54,,,,,,,,,k,purple,61119e35715393a10be3485f,2021-11-03_11h28.24.127,forced_choiceRT_color,2021.2.3,Win32,59.9880024,,,,,,,,9,Ontime,long,k,1,2.0158,2,1,9,3,1,,,,,
,1.81,,,,,,,,,d,orange,61119e35715393a10be3485f,2021-11-03_11h28.24.127,forced_choiceRT_color,2021.2.3,Win32,59.9880024,,,,,,,,9,Ontime,long,d,1,2.0764,2,2,10,0,1,,,,,
,1.76,,,,,,,,,k,purple,61119e35715393a10be3485f,2021-11-03_11h28.24.127,forced_choiceRT_color,2021.2.3,Win32,59.9880024,,,,,,,,9,Slow,long,k,1,2.3002,2,3,11,3,1,,,,,
,1.89,,,,,,,,,k,purple,61119e35715393a10be3485f,2021-11-03_11h28.24.127,forced_choiceRT_color,2021.2.3,Win32,59.9880024,,,,,,,,9,Slow,long,k,1,2.1843,3,0,12,3,1,,,,,
,1.58,,,,,,,,,d,orange,61119e35715393a10be3485f,2021-11-03_11h28.24.127,forced_choiceRT_color,2021.2.3,Win32,59.9880024,,,,,,,,9,Ontime,long,d,1,2.0679,3,1,13,0,1,,,,,
,0.62,,,,,,,,,j,red,61119e35715393a10be3485f,2021-11-03_11h28.24.127,forced_choiceRT_color,2021.2.3,Win32,59.9880024,,,,,,,,9,Ontime,long,j,1,2.0946,3,2,14,2,1,,,,,
,0.77,,,,,,,,,d,orange,61119e35715393a10be3485f,2021-11-03_11h28.24.127,forced_choiceRT_color,2021.2.3,Win32,59.9880024,,,,,,,,9,Ontime,long,d,1,2.0345,3,3,15,0,1,,,,,
,1.5,,,,,,,,,f,blue,61119e35715393a10be3485f,2021-11-03_11h28.24.127,forced_choiceRT_color,2021.2.3,Win32,59.9880024,,,,,,,,9,Ontime,long,f,1,2.0509,4,0,16,1,1,,,,,
,1.86,,,,,,,,,j,red,61119e35715393a10be3485f,2021-11-03_11h28.24.127,forced_choiceRT_color,2021.2.3,Win32,59.9880024,,,,,,,,9,Slow,long,d,0,2.133,4,1,17,2,1,,,,,
,1.08,,,,,,,,,k,purple,61119e35715393a10be3485f,2021-11-03_11h28.24.127,forced_choiceRT_color,2021.2.3,Win32,59.9880024,,,,,,,,9,Fast,long,k,1,1.6956,4,2,18,3,1,,,,,
,0.5,,,,,,,,,d,orange,61119e35715393a10be3485f,2021-11-03_11h28.24.127,forced_choiceRT_color,2021.2.3,Win32,59.9880024,,,,,,,,9,Ontime,long,d,1,1.9441,4,3,19,0,1,,,,,
,1.59,,,,,,,,,j,red,61119e35715393a10be3485f,2021-11-03_11h28.24.127,forced_choiceRT_color,2021.2.3,Win32,59.9880024,,,,,,,,9,Ontime,long,f,0,2.0155,5,0,20,2,1,,,,,
,0.52,,,,,,,,,k,purple,61119e35715393a10be3485f,2021-11-03_11h28.24.127,forced_choiceRT_color,2021.2.3,Win32,59.9880024,,,,,,,,9,Fast,long,k,1,1.7841,5,1,21,3,1,,,,,
,1.61,,,,,,,,,f,blue,61119e35715393a10be3485f,2021-11-03_11h28.24.127,forced_choiceRT_color,2021.2.3,Win32,59.9880024,,,,,,,,9,Slow,long,f,1,2.1771,5,2,22,1,1,,,,,
,0.21,,,,,,,,,k,purple,61119e35715393a10be3485f,2021-11-03_11h28.24.127,forced_choiceRT_color,2021.2.3,Win32,59.9880024,,,,,,,,9,Ontime,long,k,1,1.9449,5,3,23,3,1,,,,,
,1.64,,,,,,,,,f,blue,61119e35715393a10be3485f,2021-11-03_11h28.24.127,forced_choiceRT_color,2021.2.3,Win32,59.9880024,,,,,,,,9,Slow,long,f,1,2.2171,6,0,24,1,1,,,,,
,1.01,,,,,,,,,d,orange,61119e35715393a10be3485f,2021-11-03_11h28.24.127,forced_choiceRT_color,2021.2.3,Win32,59.9880024,,,,,,,,9,Ontime,long,d,1,1.9521,6,1,25,0,1,,,,,
,1.98,,,,,,,,,j,red,61119e35715393a10be3485f,2021-11-03_11h28.24.127,forced_choiceRT_color,2021.2.3,Win32,59.9880024,,,,,,,,9,Slow,long,j,1,2.2158,6,2,26,2,1,,,,,
,0.95,,,,,,,,,d,orange,61119e35715393a10be3485f,2021-11-03_11h28.24.127,forced_choiceRT_color,2021.2.3,Win32,59.9880024,,,,,,,,9,Ontime,long,d,1,1.9011,6,3,27,0,1,,,,,
,1.06,,,,,,,,,k,purple,61119e35715393a10be3485f,2021-11-03_11h28.24.127,forced_choiceRT_color,2021.2.3,Win32,59.9880024,,,,,,,,9,Ontime,long,k,1,2.0573,7,0,28,3,1,,,,,
,0.42,,,,,,,,,d,orange,61119e35715393a10be3485f,2021-11-03_11h28.24.127,forced_choiceRT_color,2021.2.3,Win32,59.9880024,,,,,,,,9,Fast,long,d,1,1.8339,7,1,29,0,1,,,,,
,1.24,,,,,,,,,f,blue,61119e35715393a10be3485f,2021-11-03_11h28.24.127,forced_choiceRT_color,2021.2.3,Win32,59.9880024,,,,,,,,9,Fast,long,f,1,1.8992,7,2,30,1,1,,,,,
,1.12,,,,,,,,,d,orange,61119e35715393a10be3485f,2021-11-03_11h28.24.127,forced_choiceRT_color,2021.2.3,Win32,59.9880024,,,,,,,,9,Ontime,long,d,1,2.0679,7,3,31,0,1,,,,,
,1.22,,,,,,,,,f,blue,61119e35715393a10be3485f,2021-11-03_11h28.24.127,forced_choiceRT_color,2021.2.3,Win32,59.9880024,,,,,,,,9,Slow,long,f,1,2.1173,8,0,32,1,1,,,,,
,0.15,,,,,,,,,f,blue,61119e35715393a10be3485f,2021-11-03_11h28.24.127,forced_choiceRT_color,2021.2.3,Win32,59.9880024,,,,,,,,9,Ontime,long,f,1,1.9538,8,1,33,1,1,,,,,
,0.73,,,,,,,,,d,orange,61119e35715393a10be3485f,2021-11-03_11h28.24.127,forced_choiceRT_color,2021.2.3,Win32,59.9880024,,,,,,,,9,Ontime,long,d,1,1.9658,8,2,34,0,1,,,,,
,1.91,,,,,,,,,j,red,61119e35715393a10be3485f,2021-11-03_11h28.24.127,forced_choiceRT_color,2021.2.3,Win32,59.9880024,,,,,,,,9,Slow,long,d,0,2.2083,8,3,35,2,1,,,,,
,0.62,,,,,,,,,j,red,61119e35715393a10be3485f,2021-11-03_11h28.24.127,forced_choiceRT_color,2021.2.3,Win32,59.9880024,,,,,,,,9,Fast,long,j,1,1.8181,9,0,36,2,1,,,,,
,0.25,,,,,,,,,j,red,61119e35715393a10be3485f,2021-11-03_11h28.24.127,forced_choiceRT_color,2021.2.3,Win32,59.9880024,,,,,,,,9,Ontime,long,j,1,1.9725,9,1,37,2,1,,,,,
,0.09,,,,,,,,,k,purple,61119e35715393a10be3485f,2021-11-03_11h28.24.127,forced_choiceRT_color,2021.2.3,Win32,59.9880024,,,,,,,,9,Ontime,long,k,1,1.9351,9,2,38,3,1,,,,,
,0.43,,,,,,,,,f,blue,61119e35715393a10be3485f,2021-11-03_11h28.24.127,forced_choiceRT_color,2021.2.3,Win32,59.9880024,,,,,,,,9,Ontime,long,f,1,1.9732,9,3,39,1,1,,,,,
,,,,,,,,,,,,61119e35715393a10be3485f,2021-11-03_11h28.24.127,forced_choiceRT_color,2021.2.3,Win32,59.9880024,,,,,,,,,,,,,,,,,,,8,0,8,0,1
,1.3,,,,,,,,,d,orange,61119e35715393a10be3485f,2021-11-03_11h28.24.127,forced_choiceRT_color,2021.2.3,Win32,59.9880024,,,,,,,,10,Ontime,long,d,1,1.9323,0,0,0,0,1,,,,,
,1.58,,,,,,,,,d,orange,61119e35715393a10be3485f,2021-11-03_11h28.24.127,forced_choiceRT_color,2021.2.3,Win32,59.9880024,,,,,,,,10,Ontime,long,j,0,1.9775,0,1,1,0,1,,,,,
,1.83,,,,,,,,,d,orange,61119e35715393a10be3485f,2021-11-03_11h28.24.127,forced_choiceRT_color,2021.2.3,Win32,59.9880024,,,,,,,,10,Slow,long,d,1,2.2845,0,2,2,0,1,,,,,
,1.12,,,,,,,,,f,blue,61119e35715393a10be3485f,2021-11-03_11h28.24.127,forced_choiceRT_color,2021.2.3,Win32,59.9880024,,,,,,,,10,Fast,long,f,1,1.8891,0,3,3,1,1,,,,,
,0.7,,,,,,,,,f,blue,61119e35715393a10be3485f,2021-11-03_11h28.24.127,forced_choiceRT_color,2021.2.3,Win32,59.9880024,,,,,,,,10,Ontime,long,f,1,1.9846,1,0,4,1,1,,,,,
,1.56,,,,,,,,,k,purple,61119e35715393a10be3485f,2021-11-03_11h28.24.127,forced_choiceRT_color,2021.2.3,Win32,59.9880024,,,,,,,,10,Ontime,long,k,1,2.0843,1,1,5,3,1,,,,,
,0.27,,,,,,,,,f,blue,61119e35715393a10be3485f,2021-11-03_11h28.24.127,forced_choiceRT_color,2021.2.3,Win32,59.9880024,,,,,,,,10,Fast,long,f,1,1.8221,1,2,6,1,1,,,,,
,0.76,,,,,,,,,k,purple,61119e35715393a10be3485f,2021-11-03_11h28.24.127,forced_choiceRT_color,2021.2.3,Win32,59.9880024,,,,,,,,10,Fast,long,k,1,1.8936,1,3,7,3,1,,,,,
,0.99,,,,,,,,,f,blue,61119e35715393a10be3485f,2021-11-03_11h28.24.127,forced_choiceRT_color,2021.2.3,Win32,59.9880024,,,,,,,,10,Ontime,long,f,1,2.0347,2,0,8,1,1,,,,,
,1.49,,,,,,,,,d,orange,61119e35715393a10be3485f,2021-11-03_11h28.24.127,forced_choiceRT_color,2021.2.3,Win32,59.9880024,,,,,,,,10,Slow,long,d,1,2.2688,2,1,9,0,1,,,,,
,0.49,,,,,,,,,k,purple,61119e35715393a10be3485f,2021-11-03_11h28.24.127,forced_choiceRT_color,2021.2.3,Win32,59.9880024,,,,,,,,10,Ontime,long,k,1,2.0174,2,2,10,3,1,,,,,
,1.95,,,,,,,,,f,blue,61119e35715393a10be3485f,2021-11-03_11h28.24.127,forced_choiceRT_color,2021.2.3,Win32,59.9880024,,,,,,,,10,Slow,long,d,0,2.4013,2,3,11,1,1,,,,,
,1.09,,,,,,,,,f,blue,61119e35715393a10be3485f,2021-11-03_11h28.24.127,forced_choiceRT_color,2021.2.3,Win32,59.9880024,,,,,,,,10,Ontime,long,f,1,1.9934,3,0,12,1,1,,,,,
,0.5,,,,,,,,,d,orange,61119e35715393a10be3485f,2021-11-03_11h28.24.127,forced_choiceRT_color,2021.2.3,Win32,59.9880024,,,,,,,,10,Ontime,long,d,1,2.0161,3,1,13,0,1,,,,,
,1.89,,,,,,,,,f,blue,61119e35715393a10be3485f,2021-11-03_11h28.24.127,forced_choiceRT_color,2021.2.3,Win32,59.9880024,,,,,,,,10,Slow,long,k,0,2.1781,3,2,14,1,1,,,,,
,0.09,,,,,,,,,k,purple,61119e35715393a10be3485f,2021-11-03_11h28.24.127,forced_choiceRT_color,2021.2.3,Win32,59.9880024,,,,,,,,10,Ontime,long,k,1,1.9821,3,3,15,3,1,,,,,
,0.53,,,,,,,,,k,purple,61119e35715393a10be3485f,2021-11-03_11h28.24.127,forced_choiceRT_color,2021.2.3,Win32,59.9880024,,,,,,,,10,Ontime,long,k,1,2.0505,4,0,16,3,1,,,,,
,1.48,,,,,,,,,j,red,61119e35715393a10be3485f,2021-11-03_11h28.24.127,forced_choiceRT_color,2021.2.3,Win32,59.9880024,,,,,,,,10,Ontime,long,d,0,2.0903,4,1,17,2,1,,,,,
,0.68,,,,,,,,,f,blue,61119e35715393a10be3485f,2021-11-03_11h28.24.127,forced_choiceRT_color,2021.2.3,Win32,59.9880024,,,,,,,,10,Ontime,long,f,1,2.0251,4,2,18,1,1,,,,,
,0.33,,,,,,,,,d,orange,61119e35715393a10be3485f,2021-11-03_11h28.24.127,forced_choiceRT_color,2021.2.3,Win32,59.9880024,,,,,,,,10,Ontime,long,d,1,2.0253,4,3,19,0,1,,,,,
,0.21,,,,,,,,,f,blue,61119e35715393a10be3485f,2021-11-03_11h28.24.127,forced_choiceRT_color,2021.2.3,Win32,59.9880024,,,,,,,,10,Ontime,long,f,1,1.9454,5,0,20,1,1,,,,,
,1.85,,,,,,,,,j,red,61119e35715393a10be3485f,2021-11-03_11h28.24.127,forced_choiceRT_color,2021.2.3,Win32,59.9880024,,,,,,,,10,Slow,long,k,0,2.1323,5,1,21,2,1,,,,,
,0.69,,,,,,,,,j,red,61119e35715393a10be3485f,2021-11-03_11h28.24.127,forced_choiceRT_color,2021.2.3,Win32,59.9880024,,,,,,,,10,Ontime,long,j,1,2.068,5,2,22,2,1,,,,,
,0.6,,,,,,,,,j,red,61119e35715393a10be3485f,2021-11-03_11h28.24.127,forced_choiceRT_color,2021.2.3,Win32,59.9880024,,,,,,,,10,Ontime,long,j,1,1.9513,5,3,23,2,1,,,,,
,0.81,,,,,,,,,j,red,61119e35715393a10be3485f,2021-11-03_11h28.24.127,forced_choiceRT_color,2021.2.3,Win32,59.9880024,,,,,,,,10,Ontime,long,j,1,2.0176,6,0,24,2,1,,,,,
,1.96,,,,,,,,,d,orange,61119e35715393a10be3485f,2021-11-03_11h28.24.127,forced_choiceRT_color,2021.2.3,Win32,59.9880024,,,,,,,,10,Slow,long,d,1,2.4346,6,1,25,0,1,,,,,
,1.04,,,,,,,,,k,purple,61119e35715393a10be3485f,2021-11-03_11h28.24.127,forced_choiceRT_color,2021.2.3,Win32,59.9880024,,,,,,,,10,Ontime,long,k,1,1.925,6,2,26,3,1,,,,,
,0.2,,,,,,,,,k,purple,61119e35715393a10be3485f,2021-11-03_11h28.24.127,forced_choiceRT_color,2021.2.3,Win32,59.9880024,,,,,,,,10,Ontime,long,k,1,2.067,6,3,27,3,1,,,,,
,1.04,,,,,,,,,k,purple,61119e35715393a10be3485f,2021-11-03_11h28.24.127,forced_choiceRT_color,2021.2.3,Win32,59.9880024,,,,,,,,10,Ontime,long,k,1,2.0212,7,0,28,3,1,,,,,
,0.79,,,,,,,,,j,red,61119e35715393a10be3485f,2021-11-03_11h28.24.127,forced_choiceRT_color,2021.2.3,Win32,59.9880024,,,,,,,,10,Ontime,long,f,0,2.069,7,1,29,2,1,,,,,
,1.3,,,,,,,,,d,orange,61119e35715393a10be3485f,2021-11-03_11h28.24.127,forced_choiceRT_color,2021.2.3,Win32,59.9880024,,,,,,,,10,Ontime,long,d,1,1.9925,7,2,30,0,1,,,,,
,1.66,,,,,,,,,d,orange,61119e35715393a10be3485f,2021-11-03_11h28.24.127,forced_choiceRT_color,2021.2.3,Win32,59.9880024,,,,,,,,10,Slow,long,d,1,2.1173,7,3,31,0,1,,,,,
,1.67,,,,,,,,,f,blue,61119e35715393a10be3485f,2021-11-03_11h28.24.127,forced_choiceRT_color,2021.2.3,Win32,59.9880024,,,,,,,,10,Ontime,long,f,1,2.018,8,0,32,1,1,,,,,
,0.97,,,,,,,,,j,red,61119e35715393a10be3485f,2021-11-03_11h28.24.127,forced_choiceRT_color,2021.2.3,Win32,59.9880024,,,,,,,,10,Fast,long,j,1,1.868,8,1,33,2,1,,,,,
,1.42,,,,,,,,,k,purple,61119e35715393a10be3485f,2021-11-03_11h28.24.127,forced_choiceRT_color,2021.2.3,Win32,59.9880024,,,,,,,,10,Ontime,long,k,1,1.9007,8,2,34,3,1,,,,,
,1.11,,,,,,,,,j,red,61119e35715393a10be3485f,2021-11-03_11h28.24.127,forced_choiceRT_color,2021.2.3,Win32,59.9880024,,,,,,,,10,Ontime,long,j,1,1.9115,8,3,35,2,1,,,,,
,1.85,,,,,,,,,d,orange,61119e35715393a10be3485f,2021-11-03_11h28.24.127,forced_choiceRT_color,2021.2.3,Win32,59.9880024,,,,,,,,10,Slow,long,d,1,2.2945,9,0,36,0,1,,,,,
,0.82,,,,,,,,,k,purple,61119e35715393a10be3485f,2021-11-03_11h28.24.127,forced_choiceRT_color,2021.2.3,Win32,59.9880024,,,,,,,,10,Ontime,long,k,1,2.0512,9,1,37,3,1,,,,,
,0.98,,,,,,,,,j,red,61119e35715393a10be3485f,2021-11-03_11h28.24.127,forced_choiceRT_color,2021.2.3,Win32,59.9880024,,,,,,,,10,Ontime,long,j,1,2.001,9,2,38,2,1,,,,,
,0.75,,,,,,,,,j,red,61119e35715393a10be3485f,2021-11-03_11h28.24.127,forced_choiceRT_color,2021.2.3,Win32,59.9880024,,,,,,,,10,Fast,long,j,1,1.8913,9,3,39,2,1,,,,,
,,,,,,,,,,,,61119e35715393a10be3485f,2021-11-03_11h28.24.127,forced_choiceRT_color,2021.2.3,Win32,59.9880024,,,,,,,,,,,,,,,,,,,9,0,9,0,1
