target_onset,trial_resp_sp.keys,trial_resp_sp.corr,trial_resp_sp.rt,trials_train_loop.thisRepN,trials_train_loop.thisTrialN,trials_train_loop.thisN,trials_train_loop.thisIndex,trials_train_loop.ran,correct_key,color,participant,date,expName,psychopyVersion,OS,frameRate,trial_resp_timing.keys,trial_resp_timing.rt,trials_train_timing.thisRepN,trials_train_timing.thisTrialN,trials_train_timing.thisN,trials_train_timing.thisIndex,trials_train_timing.ran,block_id,ontime,feedback_cond,forcedRT_resp.keys,forcedRT_resp.corr,forcedRT_resp.rt,trials.thisRepN,trials.thisTrialN,trials.thisN,trials.thisIndex,trials.ran,blocks.thisRepN,blocks.thisTrialN,blocks.thisN,blocks.thisIndex,blocks.ran
0,k,1,2.018,0,0,0,3,1,k,purple,616f2dc24df7a8664076ceab,2021-11-01_13h29.48.138,forced_choiceRT_color,2021.2.3,Win32,60.0240096,,,,,,,,,,,,,,,,,,,,,,,
0,f,1,1.218,0,1,1,1,1,f,blue,616f2dc24df7a8664076ceab,2021-11-01_13h29.48.138,forced_choiceRT_color,2021.2.3,Win32,60.0240096,,,,,,,,,,,,,,,,,,,,,,,
0,k,1,1.201,0,2,2,3,1,k,purple,616f2dc24df7a8664076ceab,2021-11-01_13h29.48.138,forced_choiceRT_color,2021.2.3,Win32,60.0240096,,,,,,,,,,,,,,,,,,,,,,,
0,k,1,0.639,0,3,3,3,1,k,purple,616f2dc24df7a8664076ceab,2021-11-01_13h29.48.138,forced_choiceRT_color,2021.2.3,Win32,60.0240096,,,,,,,,,,,,,,,,,,,,,,,
0,j,1,0.557,1,0,4,2,1,j,red,616f2dc24df7a8664076ceab,2021-11-01_13h29.48.138,forced_choiceRT_color,2021.2.3,Win32,60.0240096,,,,,,,,,,,,,,,,,,,,,,,
0,j,1,0.837,1,1,5,2,1,j,red,616f2dc24df7a8664076ceab,2021-11-01_13h29.48.138,forced_choiceRT_color,2021.2.3,Win32,60.0240096,,,,,,,,,,,,,,,,,,,,,,,
0,f,1,0.8,1,2,6,1,1,f,blue,616f2dc24df7a8664076ceab,2021-11-01_13h29.48.138,forced_choiceRT_color,2021.2.3,Win32,60.0240096,,,,,,,,,,,,,,,,,,,,,,,
0,d,1,0.568,1,3,7,0,1,d,orange,616f2dc24df7a8664076ceab,2021-11-01_13h29.48.138,forced_choiceRT_color,2021.2.3,Win32,60.0240096,,,,,,,,,,,,,,,,,,,,,,,
0,d,1,0.585,2,0,8,0,1,d,orange,616f2dc24df7a8664076ceab,2021-11-01_13h29.48.138,forced_choiceRT_color,2021.2.3,Win32,60.0240096,,,,,,,,,,,,,,,,,,,,,,,
0,j,1,0.801,2,1,9,2,1,j,red,616f2dc24df7a8664076ceab,2021-11-01_13h29.48.138,forced_choiceRT_color,2021.2.3,Win32,60.0240096,,,,,,,,,,,,,,,,,,,,,,,
0,f,1,0.751,2,2,10,1,1,f,blue,616f2dc24df7a8664076ceab,2021-11-01_13h29.48.138,forced_choiceRT_color,2021.2.3,Win32,60.0240096,,,,,,,,,,,,,,,,,,,,,,,
0,j,1,0.766,2,3,11,2,1,j,red,616f2dc24df7a8664076ceab,2021-11-01_13h29.48.138,forced_choiceRT_color,2021.2.3,Win32,60.0240096,,,,,,,,,,,,,,,,,,,,,,,
0,f,1,0.654,3,0,12,1,1,f,blue,616f2dc24df7a8664076ceab,2021-11-01_13h29.48.138,forced_choiceRT_color,2021.2.3,Win32,60.0240096,,,,,,,,,,,,,,,,,,,,,,,
0,j,1,0.718,3,1,13,2,1,j,red,616f2dc24df7a8664076ceab,2021-11-01_13h29.48.138,forced_choiceRT_color,2021.2.3,Win32,60.0240096,,,,,,,,,,,,,,,,,,,,,,,
0,d,1,0.694,3,2,14,0,1,d,orange,616f2dc24df7a8664076ceab,2021-11-01_13h29.48.138,forced_choiceRT_color,2021.2.3,Win32,60.0240096,,,,,,,,,,,,,,,,,,,,,,,
0,j,1,0.682,3,3,15,2,1,j,red,616f2dc24df7a8664076ceab,2021-11-01_13h29.48.138,forced_choiceRT_color,2021.2.3,Win32,60.0240096,,,,,,,,,,,,,,,,,,,,,,,
0,d,1,0.735,4,0,16,0,1,d,orange,616f2dc24df7a8664076ceab,2021-11-01_13h29.48.138,forced_choiceRT_color,2021.2.3,Win32,60.0240096,,,,,,,,,,,,,,,,,,,,,,,
0,k,1,0.774,4,1,17,3,1,k,purple,616f2dc24df7a8664076ceab,2021-11-01_13h29.48.138,forced_choiceRT_color,2021.2.3,Win32,60.0240096,,,,,,,,,,,,,,,,,,,,,,,
0,d,1,0.674,4,2,18,0,1,d,orange,616f2dc24df7a8664076ceab,2021-11-01_13h29.48.138,forced_choiceRT_color,2021.2.3,Win32,60.0240096,,,,,,,,,,,,,,,,,,,,,,,
0,j,1,0.707,4,3,19,2,1,j,red,616f2dc24df7a8664076ceab,2021-11-01_13h29.48.138,forced_choiceRT_color,2021.2.3,Win32,60.0240096,,,,,,,,,,,,,,,,,,,,,,,
0,d,1,0.583,5,0,20,0,1,d,orange,616f2dc24df7a8664076ceab,2021-11-01_13h29.48.138,forced_choiceRT_color,2021.2.3,Win32,60.0240096,,,,,,,,,,,,,,,,,,,,,,,
0,k,1,0.756,5,1,21,3,1,k,purple,616f2dc24df7a8664076ceab,2021-11-01_13h29.48.138,forced_choiceRT_color,2021.2.3,Win32,60.0240096,,,,,,,,,,,,,,,,,,,,,,,
0,d,1,0.584,5,2,22,0,1,d,orange,616f2dc24df7a8664076ceab,2021-11-01_13h29.48.138,forced_choiceRT_color,2021.2.3,Win32,60.0240096,,,,,,,,,,,,,,,,,,,,,,,
0,d,1,0.467,5,3,23,0,1,d,orange,616f2dc24df7a8664076ceab,2021-11-01_13h29.48.138,forced_choiceRT_color,2021.2.3,Win32,60.0240096,,,,,,,,,,,,,,,,,,,,,,,
0,j,1,0.686,6,0,24,2,1,j,red,616f2dc24df7a8664076ceab,2021-11-01_13h29.48.138,forced_choiceRT_color,2021.2.3,Win32,60.0240096,,,,,,,,,,,,,,,,,,,,,,,
0,k,1,0.718,6,1,25,3,1,k,purple,616f2dc24df7a8664076ceab,2021-11-01_13h29.48.138,forced_choiceRT_color,2021.2.3,Win32,60.0240096,,,,,,,,,,,,,,,,,,,,,,,
0,k,1,0.45,6,2,26,3,1,k,purple,616f2dc24df7a8664076ceab,2021-11-01_13h29.48.138,forced_choiceRT_color,2021.2.3,Win32,60.0240096,,,,,,,,,,,,,,,,,,,,,,,
0,f,1,0.683,6,3,27,1,1,f,blue,616f2dc24df7a8664076ceab,2021-11-01_13h29.48.138,forced_choiceRT_color,2021.2.3,Win32,60.0240096,,,,,,,,,,,,,,,,,,,,,,,
0,j,1,0.67,7,0,28,2,1,j,red,616f2dc24df7a8664076ceab,2021-11-01_13h29.48.138,forced_choiceRT_color,2021.2.3,Win32,60.0240096,,,,,,,,,,,,,,,,,,,,,,,
0,j,1,0.535,7,1,29,2,1,j,red,616f2dc24df7a8664076ceab,2021-11-01_13h29.48.138,forced_choiceRT_color,2021.2.3,Win32,60.0240096,,,,,,,,,,,,,,,,,,,,,,,
0,d,1,0.603,7,2,30,0,1,d,orange,616f2dc24df7a8664076ceab,2021-11-01_13h29.48.138,forced_choiceRT_color,2021.2.3,Win32,60.0240096,,,,,,,,,,,,,,,,,,,,,,,
0,k,1,0.666,7,3,31,3,1,k,purple,616f2dc24df7a8664076ceab,2021-11-01_13h29.48.138,forced_choiceRT_color,2021.2.3,Win32,60.0240096,,,,,,,,,,,,,,,,,,,,,,,
0,k,1,0.452,8,0,32,3,1,k,purple,616f2dc24df7a8664076ceab,2021-11-01_13h29.48.138,forced_choiceRT_color,2021.2.3,Win32,60.0240096,,,,,,,,,,,,,,,,,,,,,,,
0,d,1,0.569,8,1,33,0,1,d,orange,616f2dc24df7a8664076ceab,2021-11-01_13h29.48.138,forced_choiceRT_color,2021.2.3,Win32,60.0240096,,,,,,,,,,,,,,,,,,,,,,,
0,k,1,0.751,8,2,34,3,1,k,purple,616f2dc24df7a8664076ceab,2021-11-01_13h29.48.138,forced_choiceRT_color,2021.2.3,Win32,60.0240096,,,,,,,,,,,,,,,,,,,,,,,
0,f,1,0.716,8,3,35,1,1,f,blue,616f2dc24df7a8664076ceab,2021-11-01_13h29.48.138,forced_choiceRT_color,2021.2.3,Win32,60.0240096,,,,,,,,,,,,,,,,,,,,,,,
0,f,1,0.423,9,0,36,1,1,f,blue,616f2dc24df7a8664076ceab,2021-11-01_13h29.48.138,forced_choiceRT_color,2021.2.3,Win32,60.0240096,,,,,,,,,,,,,,,,,,,,,,,
0,d,1,0.652,9,1,37,0,1,d,orange,616f2dc24df7a8664076ceab,2021-11-01_13h29.48.138,forced_choiceRT_color,2021.2.3,Win32,60.0240096,,,,,,,,,,,,,,,,,,,,,,,
0,f,1,0.733,9,2,38,1,1,f,blue,616f2dc24df7a8664076ceab,2021-11-01_13h29.48.138,forced_choiceRT_color,2021.2.3,Win32,60.0240096,,,,,,,,,,,,,,,,,,,,,,,
0,d,1,0.584,9,3,39,0,1,d,orange,616f2dc24df7a8664076ceab,2021-11-01_13h29.48.138,forced_choiceRT_color,2021.2.3,Win32,60.0240096,,,,,,,,,,,,,,,,,,,,,,,
0,d,1,0.468,10,0,40,0,1,d,orange,616f2dc24df7a8664076ceab,2021-11-01_13h29.48.138,forced_choiceRT_color,2021.2.3,Win32,60.0240096,,,,,,,,,,,,,,,,,,,,,,,
0,j,1,0.7,10,1,41,2,1,j,red,616f2dc24df7a8664076ceab,2021-11-01_13h29.48.138,forced_choiceRT_color,2021.2.3,Win32,60.0240096,,,,,,,,,,,,,,,,,,,,,,,
0,f,1,0.686,10,2,42,1,1,f,blue,616f2dc24df7a8664076ceab,2021-11-01_13h29.48.138,forced_choiceRT_color,2021.2.3,Win32,60.0240096,,,,,,,,,,,,,,,,,,,,,,,
0,k,1,0.699,10,3,43,3,1,k,purple,616f2dc24df7a8664076ceab,2021-11-01_13h29.48.138,forced_choiceRT_color,2021.2.3,Win32,60.0240096,,,,,,,,,,,,,,,,,,,,,,,
0,j,1,0.516,11,0,44,2,1,j,red,616f2dc24df7a8664076ceab,2021-11-01_13h29.48.138,forced_choiceRT_color,2021.2.3,Win32,60.0240096,,,,,,,,,,,,,,,,,,,,,,,
0,f,1,0.769,11,1,45,1,1,f,blue,616f2dc24df7a8664076ceab,2021-11-01_13h29.48.138,forced_choiceRT_color,2021.2.3,Win32,60.0240096,,,,,,,,,,,,,,,,,,,,,,,
0,f,1,0.534,11,2,46,1,1,f,blue,616f2dc24df7a8664076ceab,2021-11-01_13h29.48.138,forced_choiceRT_color,2021.2.3,Win32,60.0240096,,,,,,,,,,,,,,,,,,,,,,,
0,d,1,0.485,11,3,47,0,1,d,orange,616f2dc24df7a8664076ceab,2021-11-01_13h29.48.138,forced_choiceRT_color,2021.2.3,Win32,60.0240096,,,,,,,,,,,,,,,,,,,,,,,
0,j,1,0.655,12,0,48,2,1,j,red,616f2dc24df7a8664076ceab,2021-11-01_13h29.48.138,forced_choiceRT_color,2021.2.3,Win32,60.0240096,,,,,,,,,,,,,,,,,,,,,,,
0,f,1,0.685,12,1,49,1,1,f,blue,616f2dc24df7a8664076ceab,2021-11-01_13h29.48.138,forced_choiceRT_color,2021.2.3,Win32,60.0240096,,,,,,,,,,,,,,,,,,,,,,,
0,k,1,0.617,12,2,50,3,1,k,purple,616f2dc24df7a8664076ceab,2021-11-01_13h29.48.138,forced_choiceRT_color,2021.2.3,Win32,60.0240096,,,,,,,,,,,,,,,,,,,,,,,
0,k,1,0.467,12,3,51,3,1,k,purple,616f2dc24df7a8664076ceab,2021-11-01_13h29.48.138,forced_choiceRT_color,2021.2.3,Win32,60.0240096,,,,,,,,,,,,,,,,,,,,,,,
0,k,1,0.506,13,0,52,3,1,k,purple,616f2dc24df7a8664076ceab,2021-11-01_13h29.48.138,forced_choiceRT_color,2021.2.3,Win32,60.0240096,,,,,,,,,,,,,,,,,,,,,,,
0,j,1,0.651,13,1,53,2,1,j,red,616f2dc24df7a8664076ceab,2021-11-01_13h29.48.138,forced_choiceRT_color,2021.2.3,Win32,60.0240096,,,,,,,,,,,,,,,,,,,,,,,
0,f,1,0.657,13,2,54,1,1,f,blue,616f2dc24df7a8664076ceab,2021-11-01_13h29.48.138,forced_choiceRT_color,2021.2.3,Win32,60.0240096,,,,,,,,,,,,,,,,,,,,,,,
0,d,1,0.5,13,3,55,0,1,d,orange,616f2dc24df7a8664076ceab,2021-11-01_13h29.48.138,forced_choiceRT_color,2021.2.3,Win32,60.0240096,,,,,,,,,,,,,,,,,,,,,,,
0,f,1,0.535,14,0,56,1,1,f,blue,616f2dc24df7a8664076ceab,2021-11-01_13h29.48.138,forced_choiceRT_color,2021.2.3,Win32,60.0240096,,,,,,,,,,,,,,,,,,,,,,,
0,k,1,0.902,14,1,57,3,1,k,purple,616f2dc24df7a8664076ceab,2021-11-01_13h29.48.138,forced_choiceRT_color,2021.2.3,Win32,60.0240096,,,,,,,,,,,,,,,,,,,,,,,
0,f,1,0.772,14,2,58,1,1,f,blue,616f2dc24df7a8664076ceab,2021-11-01_13h29.48.138,forced_choiceRT_color,2021.2.3,Win32,60.0240096,,,,,,,,,,,,,,,,,,,,,,,
0,j,1,0.567,14,3,59,2,1,j,red,616f2dc24df7a8664076ceab,2021-11-01_13h29.48.138,forced_choiceRT_color,2021.2.3,Win32,60.0240096,,,,,,,,,,,,,,,,,,,,,,,
,,,,,,,,,,,616f2dc24df7a8664076ceab,2021-11-01_13h29.48.138,forced_choiceRT_color,2021.2.3,Win32,60.0240096,d,2.185,0,0,0,0,1,,,,,,,,,,,,,,,,
,,,,,,,,,,,616f2dc24df7a8664076ceab,2021-11-01_13h29.48.138,forced_choiceRT_color,2021.2.3,Win32,60.0240096,f,1.749,1,0,1,0,1,,,,,,,,,,,,,,,,
,,,,,,,,,,,616f2dc24df7a8664076ceab,2021-11-01_13h29.48.138,forced_choiceRT_color,2021.2.3,Win32,60.0240096,j,2.102,2,0,2,0,1,,,,,,,,,,,,,,,,
,,,,,,,,,,,616f2dc24df7a8664076ceab,2021-11-01_13h29.48.138,forced_choiceRT_color,2021.2.3,Win32,60.0240096,k,2.083,3,0,3,0,1,,,,,,,,,,,,,,,,
,,,,,,,,,,,616f2dc24df7a8664076ceab,2021-11-01_13h29.48.138,forced_choiceRT_color,2021.2.3,Win32,60.0240096,d,2.099,4,0,4,0,1,,,,,,,,,,,,,,,,
,,,,,,,,,,,616f2dc24df7a8664076ceab,2021-11-01_13h29.48.138,forced_choiceRT_color,2021.2.3,Win32,60.0240096,f,2.1,5,0,5,0,1,,,,,,,,,,,,,,,,
,,,,,,,,,,,616f2dc24df7a8664076ceab,2021-11-01_13h29.48.138,forced_choiceRT_color,2021.2.3,Win32,60.0240096,j,2.018,6,0,6,0,1,,,,,,,,,,,,,,,,
,,,,,,,,,,,616f2dc24df7a8664076ceab,2021-11-01_13h29.48.138,forced_choiceRT_color,2021.2.3,Win32,60.0240096,k,2.067,7,0,7,0,1,,,,,,,,,,,,,,,,
,,,,,,,,,,,616f2dc24df7a8664076ceab,2021-11-01_13h29.48.138,forced_choiceRT_color,2021.2.3,Win32,60.0240096,d,2.018,8,0,8,0,1,,,,,,,,,,,,,,,,
,,,,,,,,,,,616f2dc24df7a8664076ceab,2021-11-01_13h29.48.138,forced_choiceRT_color,2021.2.3,Win32,60.0240096,f,2.067,9,0,9,0,1,,,,,,,,,,,,,,,,
,,,,,,,,,,,616f2dc24df7a8664076ceab,2021-11-01_13h29.48.138,forced_choiceRT_color,2021.2.3,Win32,60.0240096,j,1.966,10,0,10,0,1,,,,,,,,,,,,,,,,
,,,,,,,,,,,616f2dc24df7a8664076ceab,2021-11-01_13h29.48.138,forced_choiceRT_color,2021.2.3,Win32,60.0240096,k,2.104,11,0,11,0,1,,,,,,,,,,,,,,,,
,,,,,,,,,,,616f2dc24df7a8664076ceab,2021-11-01_13h29.48.138,forced_choiceRT_color,2021.2.3,Win32,60.0240096,d,2.039,12,0,12,0,1,,,,,,,,,,,,,,,,
,,,,,,,,,,,616f2dc24df7a8664076ceab,2021-11-01_13h29.48.138,forced_choiceRT_color,2021.2.3,Win32,60.0240096,f,2,13,0,13,0,1,,,,,,,,,,,,,,,,
,,,,,,,,,,,616f2dc24df7a8664076ceab,2021-11-01_13h29.48.138,forced_choiceRT_color,2021.2.3,Win32,60.0240096,j,2.05,14,0,14,0,1,,,,,,,,,,,,,,,,
,,,,,,,,,,,616f2dc24df7a8664076ceab,2021-11-01_13h29.48.138,forced_choiceRT_color,2021.2.3,Win32,60.0240096,k,2.051,15,0,15,0,1,,,,,,,,,,,,,,,,
,,,,,,,,,,,616f2dc24df7a8664076ceab,2021-11-01_13h29.48.138,forced_choiceRT_color,2021.2.3,Win32,60.0240096,d,1.966,16,0,16,0,1,,,,,,,,,,,,,,,,
,,,,,,,,,,,616f2dc24df7a8664076ceab,2021-11-01_13h29.48.138,forced_choiceRT_color,2021.2.3,Win32,60.0240096,f,2.058,17,0,17,0,1,,,,,,,,,,,,,,,,
,,,,,,,,,,,616f2dc24df7a8664076ceab,2021-11-01_13h29.48.138,forced_choiceRT_color,2021.2.3,Win32,60.0240096,j,2.083,18,0,18,0,1,,,,,,,,,,,,,,,,
,,,,,,,,,,,616f2dc24df7a8664076ceab,2021-11-01_13h29.48.138,forced_choiceRT_color,2021.2.3,Win32,60.0240096,k,2.048,19,0,19,0,1,,,,,,,,,,,,,,,,
1.68,,,,,,,,,f,blue,616f2dc24df7a8664076ceab,2021-11-01_13h29.48.138,forced_choiceRT_color,2021.2.3,Win32,60.0240096,,,,,,,,1,Slow,long,d,0,2.116,0,0,0,1,1,,,,,
1.3,,,,,,,,,j,red,616f2dc24df7a8664076ceab,2021-11-01_13h29.48.138,forced_choiceRT_color,2021.2.3,Win32,60.0240096,,,,,,,,1,Fast,long,j,1,1.85,0,1,1,2,1,,,,,
0.79,,,,,,,,,d,orange,616f2dc24df7a8664076ceab,2021-11-01_13h29.48.138,forced_choiceRT_color,2021.2.3,Win32,60.0240096,,,,,,,,1,Fast,long,d,1,1.887,0,2,2,0,1,,,,,
1.49,,,,,,,,,k,purple,616f2dc24df7a8664076ceab,2021-11-01_13h29.48.138,forced_choiceRT_color,2021.2.3,Win32,60.0240096,,,,,,,,1,Slow,long,k,1,2.187,0,3,3,3,1,,,,,
1.63,,,,,,,,,j,red,616f2dc24df7a8664076ceab,2021-11-01_13h29.48.138,forced_choiceRT_color,2021.2.3,Win32,60.0240096,,,,,,,,1,Slow,long,j,1,2.233,1,0,4,2,1,,,,,
0.82,,,,,,,,,d,orange,616f2dc24df7a8664076ceab,2021-11-01_13h29.48.138,forced_choiceRT_color,2021.2.3,Win32,60.0240096,,,,,,,,1,Ontime,long,d,1,2.054,1,1,5,0,1,,,,,
1.28,,,,,,,,,d,orange,616f2dc24df7a8664076ceab,2021-11-01_13h29.48.138,forced_choiceRT_color,2021.2.3,Win32,60.0240096,,,,,,,,1,Ontime,long,d,1,2.033,1,2,6,0,1,,,,,
0.95,,,,,,,,,f,blue,616f2dc24df7a8664076ceab,2021-11-01_13h29.48.138,forced_choiceRT_color,2021.2.3,Win32,60.0240096,,,,,,,,1,Ontime,long,f,1,1.989,1,3,7,1,1,,,,,
1.79,,,,,,,,,d,orange,616f2dc24df7a8664076ceab,2021-11-01_13h29.48.138,forced_choiceRT_color,2021.2.3,Win32,60.0240096,,,,,,,,1,Slow,long,d,1,2.317,2,0,8,0,1,,,,,
1.65,,,,,,,,,k,purple,616f2dc24df7a8664076ceab,2021-11-01_13h29.48.138,forced_choiceRT_color,2021.2.3,Win32,60.0240096,,,,,,,,1,Ontime,long,k,1,2.089,2,1,9,3,1,,,,,
0,,,,,,,,,k,purple,616f2dc24df7a8664076ceab,2021-11-01_13h29.48.138,forced_choiceRT_color,2021.2.3,Win32,60.0240096,,,,,,,,1,Ontime,long,k,1,2.016,2,2,10,3,1,,,,,
1.08,,,,,,,,,k,purple,616f2dc24df7a8664076ceab,2021-11-01_13h29.48.138,forced_choiceRT_color,2021.2.3,Win32,60.0240096,,,,,,,,1,Slow,long,k,1,2.139,2,3,11,3,1,,,,,
1.54,,,,,,,,,k,purple,616f2dc24df7a8664076ceab,2021-11-01_13h29.48.138,forced_choiceRT_color,2021.2.3,Win32,60.0240096,,,,,,,,1,Slow,long,k,1,2.167,3,0,12,3,1,,,,,
1.05,,,,,,,,,k,purple,616f2dc24df7a8664076ceab,2021-11-01_13h29.48.138,forced_choiceRT_color,2021.2.3,Win32,60.0240096,,,,,,,,1,Ontime,long,k,1,2.016,3,1,13,3,1,,,,,
1.91,,,,,,,,,j,red,616f2dc24df7a8664076ceab,2021-11-01_13h29.48.138,forced_choiceRT_color,2021.2.3,Win32,60.0240096,,,,,,,,1,Slow,long,d,0,2.254,3,2,14,2,1,,,,,
1.35,,,,,,,,,f,blue,616f2dc24df7a8664076ceab,2021-11-01_13h29.48.138,forced_choiceRT_color,2021.2.3,Win32,60.0240096,,,,,,,,1,Ontime,long,d,0,2.056,3,3,15,1,1,,,,,
1.07,,,,,,,,,k,purple,616f2dc24df7a8664076ceab,2021-11-01_13h29.48.138,forced_choiceRT_color,2021.2.3,Win32,60.0240096,,,,,,,,1,Ontime,long,d,0,1.934,4,0,16,3,1,,,,,
0,,,,,,,,,j,red,616f2dc24df7a8664076ceab,2021-11-01_13h29.48.138,forced_choiceRT_color,2021.2.3,Win32,60.0240096,,,,,,,,1,Ontime,long,j,1,2.031,4,1,17,2,1,,,,,
1.56,,,,,,,,,d,orange,616f2dc24df7a8664076ceab,2021-11-01_13h29.48.138,forced_choiceRT_color,2021.2.3,Win32,60.0240096,,,,,,,,1,Ontime,long,d,1,1.948,4,2,18,0,1,,,,,
1.28,,,,,,,,,j,red,616f2dc24df7a8664076ceab,2021-11-01_13h29.48.138,forced_choiceRT_color,2021.2.3,Win32,60.0240096,,,,,,,,1,Ontime,long,j,1,2.067,4,3,19,2,1,,,,,
1.3,,,,,,,,,j,red,616f2dc24df7a8664076ceab,2021-11-01_13h29.48.138,forced_choiceRT_color,2021.2.3,Win32,60.0240096,,,,,,,,1,Slow,long,j,1,2.107,5,0,20,2,1,,,,,
1.8,,,,,,,,,d,orange,616f2dc24df7a8664076ceab,2021-11-01_13h29.48.138,forced_choiceRT_color,2021.2.3,Win32,60.0240096,,,,,,,,1,Slow,long,d,1,2.271,5,1,21,0,1,,,,,
0.07,,,,,,,,,f,blue,616f2dc24df7a8664076ceab,2021-11-01_13h29.48.138,forced_choiceRT_color,2021.2.3,Win32,60.0240096,,,,,,,,1,Ontime,long,f,1,1.918,5,2,22,1,1,,,,,
0.82,,,,,,,,,k,purple,616f2dc24df7a8664076ceab,2021-11-01_13h29.48.138,forced_choiceRT_color,2021.2.3,Win32,60.0240096,,,,,,,,1,Ontime,long,k,1,2.051,5,3,23,3,1,,,,,
0.96,,,,,,,,,k,purple,616f2dc24df7a8664076ceab,2021-11-01_13h29.48.138,forced_choiceRT_color,2021.2.3,Win32,60.0240096,,,,,,,,1,Ontime,long,k,1,2.052,6,0,24,3,1,,,,,
1.31,,,,,,,,,d,orange,616f2dc24df7a8664076ceab,2021-11-01_13h29.48.138,forced_choiceRT_color,2021.2.3,Win32,60.0240096,,,,,,,,1,Ontime,long,d,1,2.036,6,1,25,0,1,,,,,
0.52,,,,,,,,,d,orange,616f2dc24df7a8664076ceab,2021-11-01_13h29.48.138,forced_choiceRT_color,2021.2.3,Win32,60.0240096,,,,,,,,1,Ontime,long,d,1,2.005,6,2,26,0,1,,,,,
1.32,,,,,,,,,d,orange,616f2dc24df7a8664076ceab,2021-11-01_13h29.48.138,forced_choiceRT_color,2021.2.3,Win32,60.0240096,,,,,,,,1,Slow,long,d,1,2.102,6,3,27,0,1,,,,,
0.48,,,,,,,,,f,blue,616f2dc24df7a8664076ceab,2021-11-01_13h29.48.138,forced_choiceRT_color,2021.2.3,Win32,60.0240096,,,,,,,,1,Ontime,long,f,1,2.016,7,0,28,1,1,,,,,
1.65,,,,,,,,,j,red,616f2dc24df7a8664076ceab,2021-11-01_13h29.48.138,forced_choiceRT_color,2021.2.3,Win32,60.0240096,,,,,,,,1,Slow,long,j,1,2.216,7,1,29,2,1,,,,,
0.44,,,,,,,,,f,blue,616f2dc24df7a8664076ceab,2021-11-01_13h29.48.138,forced_choiceRT_color,2021.2.3,Win32,60.0240096,,,,,,,,1,Fast,long,f,1,1.865,7,2,30,1,1,,,,,
1.37,,,,,,,,,f,blue,616f2dc24df7a8664076ceab,2021-11-01_13h29.48.138,forced_choiceRT_color,2021.2.3,Win32,60.0240096,,,,,,,,1,Ontime,long,d,0,1.931,7,3,31,1,1,,,,,
1.5,,,,,,,,,k,purple,616f2dc24df7a8664076ceab,2021-11-01_13h29.48.138,forced_choiceRT_color,2021.2.3,Win32,60.0240096,,,,,,,,1,Ontime,long,j,0,2.067,8,0,32,3,1,,,,,
0.44,,,,,,,,,d,orange,616f2dc24df7a8664076ceab,2021-11-01_13h29.48.138,forced_choiceRT_color,2021.2.3,Win32,60.0240096,,,,,,,,1,Ontime,long,d,1,1.999,8,1,33,0,1,,,,,
0.8,,,,,,,,,j,red,616f2dc24df7a8664076ceab,2021-11-01_13h29.48.138,forced_choiceRT_color,2021.2.3,Win32,60.0240096,,,,,,,,1,Ontime,long,j,1,1.933,8,2,34,2,1,,,,,
1.64,,,,,,,,,f,blue,616f2dc24df7a8664076ceab,2021-11-01_13h29.48.138,forced_choiceRT_color,2021.2.3,Win32,60.0240096,,,,,,,,1,Slow,long,d,0,2.133,8,3,35,1,1,,,,,
0.48,,,,,,,,,j,red,616f2dc24df7a8664076ceab,2021-11-01_13h29.48.138,forced_choiceRT_color,2021.2.3,Win32,60.0240096,,,,,,,,1,Ontime,long,j,1,2.024,9,0,36,2,1,,,,,
0.8,,,,,,,,,f,blue,616f2dc24df7a8664076ceab,2021-11-01_13h29.48.138,forced_choiceRT_color,2021.2.3,Win32,60.0240096,,,,,,,,1,Ontime,long,f,1,2.04,9,1,37,1,1,,,,,
0.46,,,,,,,,,j,red,616f2dc24df7a8664076ceab,2021-11-01_13h29.48.138,forced_choiceRT_color,2021.2.3,Win32,60.0240096,,,,,,,,1,Ontime,long,j,1,2.018,9,2,38,2,1,,,,,
1.82,,,,,,,,,f,blue,616f2dc24df7a8664076ceab,2021-11-01_13h29.48.138,forced_choiceRT_color,2021.2.3,Win32,60.0240096,,,,,,,,1,Slow,long,k,0,2.247,9,3,39,1,1,,,,,
,,,,,,,,,,,616f2dc24df7a8664076ceab,2021-11-01_13h29.48.138,forced_choiceRT_color,2021.2.3,Win32,60.0240096,,,,,,,,,,,,,,,,,,,0,0,0,0,1
1.36,,,,,,,,,f,blue,616f2dc24df7a8664076ceab,2021-11-01_13h29.48.138,forced_choiceRT_color,2021.2.3,Win32,60.0240096,,,,,,,,2,Ontime,long,f,1,1.975,0,0,0,1,1,,,,,
0.97,,,,,,,,,f,blue,616f2dc24df7a8664076ceab,2021-11-01_13h29.48.138,forced_choiceRT_color,2021.2.3,Win32,60.0240096,,,,,,,,2,Ontime,long,f,1,2.017,0,1,1,1,1,,,,,
1.07,,,,,,,,,f,blue,616f2dc24df7a8664076ceab,2021-11-01_13h29.48.138,forced_choiceRT_color,2021.2.3,Win32,60.0240096,,,,,,,,2,Ontime,long,f,1,2.035,0,2,2,1,1,,,,,
1.08,,,,,,,,,j,red,616f2dc24df7a8664076ceab,2021-11-01_13h29.48.138,forced_choiceRT_color,2021.2.3,Win32,60.0240096,,,,,,,,2,Ontime,long,j,1,1.966,0,3,3,2,1,,,,,
0.15,,,,,,,,,d,orange,616f2dc24df7a8664076ceab,2021-11-01_13h29.48.138,forced_choiceRT_color,2021.2.3,Win32,60.0240096,,,,,,,,2,Ontime,long,d,1,2.003,1,0,4,0,1,,,,,
0.6,,,,,,,,,d,orange,616f2dc24df7a8664076ceab,2021-11-01_13h29.48.138,forced_choiceRT_color,2021.2.3,Win32,60.0240096,,,,,,,,2,Ontime,long,d,1,2.051,1,1,5,0,1,,,,,
0.88,,,,,,,,,k,purple,616f2dc24df7a8664076ceab,2021-11-01_13h29.48.138,forced_choiceRT_color,2021.2.3,Win32,60.0240096,,,,,,,,2,Ontime,long,k,1,2.036,1,2,6,3,1,,,,,
1.03,,,,,,,,,f,blue,616f2dc24df7a8664076ceab,2021-11-01_13h29.48.138,forced_choiceRT_color,2021.2.3,Win32,60.0240096,,,,,,,,2,Ontime,long,f,1,2.04,1,3,7,1,1,,,,,
0.84,,,,,,,,,k,purple,616f2dc24df7a8664076ceab,2021-11-01_13h29.48.138,forced_choiceRT_color,2021.2.3,Win32,60.0240096,,,,,,,,2,Ontime,long,k,1,2.007,2,0,8,3,1,,,,,
0.61,,,,,,,,,j,red,616f2dc24df7a8664076ceab,2021-11-01_13h29.48.138,forced_choiceRT_color,2021.2.3,Win32,60.0240096,,,,,,,,2,Ontime,long,j,1,2,2,1,9,2,1,,,,,
0.47,,,,,,,,,j,red,616f2dc24df7a8664076ceab,2021-11-01_13h29.48.138,forced_choiceRT_color,2021.2.3,Win32,60.0240096,,,,,,,,2,Ontime,long,j,1,1.974,2,2,10,2,1,,,,,
0.26,,,,,,,,,k,purple,616f2dc24df7a8664076ceab,2021-11-01_13h29.48.138,forced_choiceRT_color,2021.2.3,Win32,60.0240096,,,,,,,,2,Ontime,long,k,1,1.973,2,3,11,3,1,,,,,
1.75,,,,,,,,,d,orange,616f2dc24df7a8664076ceab,2021-11-01_13h29.48.138,forced_choiceRT_color,2021.2.3,Win32,60.0240096,,,,,,,,2,Slow,long,f,0,2.217,3,0,12,0,1,,,,,
0.25,,,,,,,,,d,orange,616f2dc24df7a8664076ceab,2021-11-01_13h29.48.138,forced_choiceRT_color,2021.2.3,Win32,60.0240096,,,,,,,,2,Ontime,long,d,1,2.004,3,1,13,0,1,,,,,
0.97,,,,,,,,,d,orange,616f2dc24df7a8664076ceab,2021-11-01_13h29.48.138,forced_choiceRT_color,2021.2.3,Win32,60.0240096,,,,,,,,2,Ontime,long,d,1,2,3,2,14,0,1,,,,,
0.87,,,,,,,,,k,purple,616f2dc24df7a8664076ceab,2021-11-01_13h29.48.138,forced_choiceRT_color,2021.2.3,Win32,60.0240096,,,,,,,,2,Ontime,long,k,1,2.085,3,3,15,3,1,,,,,
1.46,,,,,,,,,d,orange,616f2dc24df7a8664076ceab,2021-11-01_13h29.48.138,forced_choiceRT_color,2021.2.3,Win32,60.0240096,,,,,,,,2,Slow,long,j,0,2.132,4,0,16,0,1,,,,,
0.28,,,,,,,,,j,red,616f2dc24df7a8664076ceab,2021-11-01_13h29.48.138,forced_choiceRT_color,2021.2.3,Win32,60.0240096,,,,,,,,2,Fast,long,j,1,1.9,4,1,17,2,1,,,,,
0.37,,,,,,,,,k,purple,616f2dc24df7a8664076ceab,2021-11-01_13h29.48.138,forced_choiceRT_color,2021.2.3,Win32,60.0240096,,,,,,,,2,Ontime,long,k,1,2.034,4,2,18,3,1,,,,,
1.26,,,,,,,,,k,purple,616f2dc24df7a8664076ceab,2021-11-01_13h29.48.138,forced_choiceRT_color,2021.2.3,Win32,60.0240096,,,,,,,,2,Slow,long,k,1,2.101,4,3,19,3,1,,,,,
0.28,,,,,,,,,j,red,616f2dc24df7a8664076ceab,2021-11-01_13h29.48.138,forced_choiceRT_color,2021.2.3,Win32,60.0240096,,,,,,,,2,Ontime,long,j,1,2.003,5,0,20,2,1,,,,,
1.21,,,,,,,,,k,purple,616f2dc24df7a8664076ceab,2021-11-01_13h29.48.138,forced_choiceRT_color,2021.2.3,Win32,60.0240096,,,,,,,,2,Ontime,long,k,1,1.932,5,1,21,3,1,,,,,
1.33,,,,,,,,,j,red,616f2dc24df7a8664076ceab,2021-11-01_13h29.48.138,forced_choiceRT_color,2021.2.3,Win32,60.0240096,,,,,,,,2,Ontime,long,j,1,2.081,5,2,22,2,1,,,,,
0.48,,,,,,,,,d,orange,616f2dc24df7a8664076ceab,2021-11-01_13h29.48.138,forced_choiceRT_color,2021.2.3,Win32,60.0240096,,,,,,,,2,Ontime,long,d,1,1.954,5,3,23,0,1,,,,,
0.09,,,,,,,,,f,blue,616f2dc24df7a8664076ceab,2021-11-01_13h29.48.138,forced_choiceRT_color,2021.2.3,Win32,60.0240096,,,,,,,,2,Ontime,long,f,1,1.933,6,0,24,1,1,,,,,
1.92,,,,,,,,,k,purple,616f2dc24df7a8664076ceab,2021-11-01_13h29.48.138,forced_choiceRT_color,2021.2.3,Win32,60.0240096,,,,,,,,2,Ontime,long,d,0,2.066,6,1,25,3,1,,,,,
0.18,,,,,,,,,k,purple,616f2dc24df7a8664076ceab,2021-11-01_13h29.48.138,forced_choiceRT_color,2021.2.3,Win32,60.0240096,,,,,,,,2,Ontime,long,k,1,1.998,6,2,26,3,1,,,,,
0.96,,,,,,,,,d,orange,616f2dc24df7a8664076ceab,2021-11-01_13h29.48.138,forced_choiceRT_color,2021.2.3,Win32,60.0240096,,,,,,,,2,Ontime,long,d,1,1.984,6,3,27,0,1,,,,,
1.93,,,,,,,,,j,red,616f2dc24df7a8664076ceab,2021-11-01_13h29.48.138,forced_choiceRT_color,2021.2.3,Win32,60.0240096,,,,,,,,2,Slow,long,d,0,2.118,7,0,28,2,1,,,,,
0.52,,,,,,,,,f,blue,616f2dc24df7a8664076ceab,2021-11-01_13h29.48.138,forced_choiceRT_color,2021.2.3,Win32,60.0240096,,,,,,,,2,Ontime,long,f,1,1.967,7,1,29,1,1,,,,,
0.93,,,,,,,,,d,orange,616f2dc24df7a8664076ceab,2021-11-01_13h29.48.138,forced_choiceRT_color,2021.2.3,Win32,60.0240096,,,,,,,,2,Ontime,long,d,1,2.033,7,2,30,0,1,,,,,
1.16,,,,,,,,,f,blue,616f2dc24df7a8664076ceab,2021-11-01_13h29.48.138,forced_choiceRT_color,2021.2.3,Win32,60.0240096,,,,,,,,2,Ontime,long,f,1,2.034,7,3,31,1,1,,,,,
0.74,,,,,,,,,j,red,616f2dc24df7a8664076ceab,2021-11-01_13h29.48.138,forced_choiceRT_color,2021.2.3,Win32,60.0240096,,,,,,,,2,Ontime,long,j,1,2.069,8,0,32,2,1,,,,,
1.6,,,,,,,,,k,purple,616f2dc24df7a8664076ceab,2021-11-01_13h29.48.138,forced_choiceRT_color,2021.2.3,Win32,60.0240096,,,,,,,,2,Slow,long,j,0,2.233,8,1,33,3,1,,,,,
0.28,,,,,,,,,j,red,616f2dc24df7a8664076ceab,2021-11-01_13h29.48.138,forced_choiceRT_color,2021.2.3,Win32,60.0240096,,,,,,,,2,Ontime,long,j,1,2.02,8,2,34,2,1,,,,,
1.27,,,,,,,,,f,blue,616f2dc24df7a8664076ceab,2021-11-01_13h29.48.138,forced_choiceRT_color,2021.2.3,Win32,60.0240096,,,,,,,,2,Ontime,long,f,1,2.07,8,3,35,1,1,,,,,
0.33,,,,,,,,,d,orange,616f2dc24df7a8664076ceab,2021-11-01_13h29.48.138,forced_choiceRT_color,2021.2.3,Win32,60.0240096,,,,,,,,2,Ontime,long,d,1,2.002,9,0,36,0,1,,,,,
1.27,,,,,,,,,j,red,616f2dc24df7a8664076ceab,2021-11-01_13h29.48.138,forced_choiceRT_color,2021.2.3,Win32,60.0240096,,,,,,,,2,Slow,long,j,1,2.222,9,1,37,2,1,,,,,
0.27,,,,,,,,,f,blue,616f2dc24df7a8664076ceab,2021-11-01_13h29.48.138,forced_choiceRT_color,2021.2.3,Win32,60.0240096,,,,,,,,2,Ontime,long,f,1,2.023,9,2,38,1,1,,,,,
0.78,,,,,,,,,f,blue,616f2dc24df7a8664076ceab,2021-11-01_13h29.48.138,forced_choiceRT_color,2021.2.3,Win32,60.0240096,,,,,,,,2,Ontime,long,f,1,2,9,3,39,1,1,,,,,
,,,,,,,,,,,616f2dc24df7a8664076ceab,2021-11-01_13h29.48.138,forced_choiceRT_color,2021.2.3,Win32,60.0240096,,,,,,,,,,,,,,,,,,,1,0,1,0,1
1.65,,,,,,,,,j,red,616f2dc24df7a8664076ceab,2021-11-01_13h29.48.138,forced_choiceRT_color,2021.2.3,Win32,60.0240096,,,,,,,,3,Slow,long,j,1,2.105,0,0,0,2,1,,,,,
1.77,,,,,,,,,k,purple,616f2dc24df7a8664076ceab,2021-11-01_13h29.48.138,forced_choiceRT_color,2021.2.3,Win32,60.0240096,,,,,,,,3,Slow,long,k,1,2.12,0,1,1,3,1,,,,,
1.68,,,,,,,,,j,red,616f2dc24df7a8664076ceab,2021-11-01_13h29.48.138,forced_choiceRT_color,2021.2.3,Win32,60.0240096,,,,,,,,3,Ontime,long,k,0,2.067,0,2,2,2,1,,,,,
0.21,,,,,,,,,k,purple,616f2dc24df7a8664076ceab,2021-11-01_13h29.48.138,forced_choiceRT_color,2021.2.3,Win32,60.0240096,,,,,,,,3,Ontime,long,k,1,2,0,3,3,3,1,,,,,
1.73,,,,,,,,,f,blue,616f2dc24df7a8664076ceab,2021-11-01_13h29.48.138,forced_choiceRT_color,2021.2.3,Win32,60.0240096,,,,,,,,3,Ontime,long,d,0,1.954,1,0,4,1,1,,,,,
0.67,,,,,,,,,f,blue,616f2dc24df7a8664076ceab,2021-11-01_13h29.48.138,forced_choiceRT_color,2021.2.3,Win32,60.0240096,,,,,,,,3,Ontime,long,f,1,1.933,1,1,5,1,1,,,,,
1.74,,,,,,,,,j,red,616f2dc24df7a8664076ceab,2021-11-01_13h29.48.138,forced_choiceRT_color,2021.2.3,Win32,60.0240096,,,,,,,,3,Slow,long,d,0,2.151,1,2,6,2,1,,,,,
1.85,,,,,,,,,d,orange,616f2dc24df7a8664076ceab,2021-11-01_13h29.48.138,forced_choiceRT_color,2021.2.3,Win32,60.0240096,,,,,,,,3,Ontime,long,k,0,2.099,1,3,7,0,1,,,,,
1.02,,,,,,,,,j,red,616f2dc24df7a8664076ceab,2021-11-01_13h29.48.138,forced_choiceRT_color,2021.2.3,Win32,60.0240096,,,,,,,,3,Ontime,long,k,0,1.952,2,0,8,2,1,,,,,
1.66,,,,,,,,,f,blue,616f2dc24df7a8664076ceab,2021-11-01_13h29.48.138,forced_choiceRT_color,2021.2.3,Win32,60.0240096,,,,,,,,3,Slow,long,j,0,2.2,2,1,9,1,1,,,,,
1.23,,,,,,,,,f,blue,616f2dc24df7a8664076ceab,2021-11-01_13h29.48.138,forced_choiceRT_color,2021.2.3,Win32,60.0240096,,,,,,,,3,Ontime,long,f,1,1.973,2,2,10,1,1,,,,,
0.75,,,,,,,,,k,purple,616f2dc24df7a8664076ceab,2021-11-01_13h29.48.138,forced_choiceRT_color,2021.2.3,Win32,60.0240096,,,,,,,,3,Ontime,long,k,1,2.05,2,3,11,3,1,,,,,
0.9,,,,,,,,,k,purple,616f2dc24df7a8664076ceab,2021-11-01_13h29.48.138,forced_choiceRT_color,2021.2.3,Win32,60.0240096,,,,,,,,3,Ontime,long,k,1,2.083,3,0,12,3,1,,,,,
1.93,,,,,,,,,f,blue,616f2dc24df7a8664076ceab,2021-11-01_13h29.48.138,forced_choiceRT_color,2021.2.3,Win32,60.0240096,,,,,,,,3,Slow,long,f,1,2.166,3,1,13,1,1,,,,,
0.91,,,,,,,,,k,purple,616f2dc24df7a8664076ceab,2021-11-01_13h29.48.138,forced_choiceRT_color,2021.2.3,Win32,60.0240096,,,,,,,,3,Ontime,long,k,1,2.05,3,2,14,3,1,,,,,
0.01,,,,,,,,,f,blue,616f2dc24df7a8664076ceab,2021-11-01_13h29.48.138,forced_choiceRT_color,2021.2.3,Win32,60.0240096,,,,,,,,3,Ontime,long,k,0,2.032,3,3,15,1,1,,,,,
0.25,,,,,,,,,j,red,616f2dc24df7a8664076ceab,2021-11-01_13h29.48.138,forced_choiceRT_color,2021.2.3,Win32,60.0240096,,,,,,,,3,Ontime,long,j,1,2.017,4,0,16,2,1,,,,,
0.66,,,,,,,,,d,orange,616f2dc24df7a8664076ceab,2021-11-01_13h29.48.138,forced_choiceRT_color,2021.2.3,Win32,60.0240096,,,,,,,,3,Ontime,long,d,1,1.971,4,1,17,0,1,,,,,
1.03,,,,,,,,,f,blue,616f2dc24df7a8664076ceab,2021-11-01_13h29.48.138,forced_choiceRT_color,2021.2.3,Win32,60.0240096,,,,,,,,3,Ontime,long,f,1,2.055,4,2,18,1,1,,,,,
0.53,,,,,,,,,f,blue,616f2dc24df7a8664076ceab,2021-11-01_13h29.48.138,forced_choiceRT_color,2021.2.3,Win32,60.0240096,,,,,,,,3,Ontime,long,f,1,2.066,4,3,19,1,1,,,,,
0.28,,,,,,,,,d,orange,616f2dc24df7a8664076ceab,2021-11-01_13h29.48.138,forced_choiceRT_color,2021.2.3,Win32,60.0240096,,,,,,,,3,Ontime,long,d,1,2.086,5,0,20,0,1,,,,,
0.82,,,,,,,,,j,red,616f2dc24df7a8664076ceab,2021-11-01_13h29.48.138,forced_choiceRT_color,2021.2.3,Win32,60.0240096,,,,,,,,3,Slow,long,j,1,2.107,5,1,21,2,1,,,,,
1.44,,,,,,,,,f,blue,616f2dc24df7a8664076ceab,2021-11-01_13h29.48.138,forced_choiceRT_color,2021.2.3,Win32,60.0240096,,,,,,,,3,Slow,long,f,1,2.173,5,2,22,1,1,,,,,
0.37,,,,,,,,,k,purple,616f2dc24df7a8664076ceab,2021-11-01_13h29.48.138,forced_choiceRT_color,2021.2.3,Win32,60.0240096,,,,,,,,3,Ontime,long,k,1,2.067,5,3,23,3,1,,,,,
1.83,,,,,,,,,j,red,616f2dc24df7a8664076ceab,2021-11-01_13h29.48.138,forced_choiceRT_color,2021.2.3,Win32,60.0240096,,,,,,,,3,Slow,long,f,0,2.349,6,0,24,2,1,,,,,
0.16,,,,,,,,,d,orange,616f2dc24df7a8664076ceab,2021-11-01_13h29.48.138,forced_choiceRT_color,2021.2.3,Win32,60.0240096,,,,,,,,3,Ontime,long,d,1,2,6,1,25,0,1,,,,,
1.11,,,,,,,,,f,blue,616f2dc24df7a8664076ceab,2021-11-01_13h29.48.138,forced_choiceRT_color,2021.2.3,Win32,60.0240096,,,,,,,,3,Slow,long,f,1,2.117,6,2,26,1,1,,,,,
1.86,,,,,,,,,k,purple,616f2dc24df7a8664076ceab,2021-11-01_13h29.48.138,forced_choiceRT_color,2021.2.3,Win32,60.0240096,,,,,,,,3,Slow,long,k,1,2.219,6,3,27,3,1,,,,,
1.73,,,,,,,,,d,orange,616f2dc24df7a8664076ceab,2021-11-01_13h29.48.138,forced_choiceRT_color,2021.2.3,Win32,60.0240096,,,,,,,,3,Slow,long,j,0,2.189,7,0,28,0,1,,,,,
1.42,,,,,,,,,j,red,616f2dc24df7a8664076ceab,2021-11-01_13h29.48.138,forced_choiceRT_color,2021.2.3,Win32,60.0240096,,,,,,,,3,Ontime,long,j,1,2.033,7,1,29,2,1,,,,,
1.39,,,,,,,,,k,purple,616f2dc24df7a8664076ceab,2021-11-01_13h29.48.138,forced_choiceRT_color,2021.2.3,Win32,60.0240096,,,,,,,,3,Slow,long,k,1,2.105,7,2,30,3,1,,,,,
0.66,,,,,,,,,d,orange,616f2dc24df7a8664076ceab,2021-11-01_13h29.48.138,forced_choiceRT_color,2021.2.3,Win32,60.0240096,,,,,,,,3,Ontime,long,d,1,2.016,7,3,31,0,1,,,,,
1.37,,,,,,,,,d,orange,616f2dc24df7a8664076ceab,2021-11-01_13h29.48.138,forced_choiceRT_color,2021.2.3,Win32,60.0240096,,,,,,,,3,Ontime,long,d,1,2.1,8,0,32,0,1,,,,,
0.09,,,,,,,,,j,red,616f2dc24df7a8664076ceab,2021-11-01_13h29.48.138,forced_choiceRT_color,2021.2.3,Win32,60.0240096,,,,,,,,3,Ontime,long,j,1,2.033,8,1,33,2,1,,,,,
0.68,,,,,,,,,d,orange,616f2dc24df7a8664076ceab,2021-11-01_13h29.48.138,forced_choiceRT_color,2021.2.3,Win32,60.0240096,,,,,,,,3,Ontime,long,d,1,2.084,8,2,34,0,1,,,,,
1.54,,,,,,,,,d,orange,616f2dc24df7a8664076ceab,2021-11-01_13h29.48.138,forced_choiceRT_color,2021.2.3,Win32,60.0240096,,,,,,,,3,Slow,long,d,1,2.153,8,3,35,0,1,,,,,
0.1,,,,,,,,,k,purple,616f2dc24df7a8664076ceab,2021-11-01_13h29.48.138,forced_choiceRT_color,2021.2.3,Win32,60.0240096,,,,,,,,3,Ontime,long,k,1,2.003,9,0,36,3,1,,,,,
1.71,,,,,,,,,k,purple,616f2dc24df7a8664076ceab,2021-11-01_13h29.48.138,forced_choiceRT_color,2021.2.3,Win32,60.0240096,,,,,,,,3,Slow,long,k,1,2.285,9,1,37,3,1,,,,,
0.09,,,,,,,,,j,red,616f2dc24df7a8664076ceab,2021-11-01_13h29.48.138,forced_choiceRT_color,2021.2.3,Win32,60.0240096,,,,,,,,3,Fast,long,j,1,1.871,9,2,38,2,1,,,,,
1.06,,,,,,,,,d,orange,616f2dc24df7a8664076ceab,2021-11-01_13h29.48.138,forced_choiceRT_color,2021.2.3,Win32,60.0240096,,,,,,,,3,Slow,long,d,1,2.106,9,3,39,0,1,,,,,
,,,,,,,,,,,616f2dc24df7a8664076ceab,2021-11-01_13h29.48.138,forced_choiceRT_color,2021.2.3,Win32,60.0240096,,,,,,,,,,,,,,,,,,,2,0,2,0,1
0.81,,,,,,,,,d,orange,616f2dc24df7a8664076ceab,2021-11-01_13h29.48.138,forced_choiceRT_color,2021.2.3,Win32,60.0240096,,,,,,,,4,Ontime,long,d,1,1.98,0,0,0,0,1,,,,,
0.42,,,,,,,,,j,red,616f2dc24df7a8664076ceab,2021-11-01_13h29.48.138,forced_choiceRT_color,2021.2.3,Win32,60.0240096,,,,,,,,4,Ontime,long,j,1,2.071,0,1,1,2,1,,,,,
0.81,,,,,,,,,d,orange,616f2dc24df7a8664076ceab,2021-11-01_13h29.48.138,forced_choiceRT_color,2021.2.3,Win32,60.0240096,,,,,,,,4,Ontime,long,d,1,2.035,0,2,2,0,1,,,,,
1.49,,,,,,,,,f,blue,616f2dc24df7a8664076ceab,2021-11-01_13h29.48.138,forced_choiceRT_color,2021.2.3,Win32,60.0240096,,,,,,,,4,Ontime,long,f,1,2,0,3,3,1,1,,,,,
1.29,,,,,,,,,j,red,616f2dc24df7a8664076ceab,2021-11-01_13h29.48.138,forced_choiceRT_color,2021.2.3,Win32,60.0240096,,,,,,,,4,Ontime,long,j,1,2.068,1,0,4,2,1,,,,,
1.64,,,,,,,,,d,orange,616f2dc24df7a8664076ceab,2021-11-01_13h29.48.138,forced_choiceRT_color,2021.2.3,Win32,60.0240096,,,,,,,,4,Slow,long,d,1,2.301,1,1,5,0,1,,,,,
0.07,,,,,,,,,d,orange,616f2dc24df7a8664076ceab,2021-11-01_13h29.48.138,forced_choiceRT_color,2021.2.3,Win32,60.0240096,,,,,,,,4,Ontime,long,d,1,2.083,1,2,6,0,1,,,,,
1.53,,,,,,,,,j,red,616f2dc24df7a8664076ceab,2021-11-01_13h29.48.138,forced_choiceRT_color,2021.2.3,Win32,60.0240096,,,,,,,,4,Slow,long,j,1,2.1,1,3,7,2,1,,,,,
0.78,,,,,,,,,j,red,616f2dc24df7a8664076ceab,2021-11-01_13h29.48.138,forced_choiceRT_color,2021.2.3,Win32,60.0240096,,,,,,,,4,Ontime,long,j,1,2.055,2,0,8,2,1,,,,,
0.29,,,,,,,,,k,purple,616f2dc24df7a8664076ceab,2021-11-01_13h29.48.138,forced_choiceRT_color,2021.2.3,Win32,60.0240096,,,,,,,,4,Ontime,long,k,1,2.067,2,1,9,3,1,,,,,
1.39,,,,,,,,,f,blue,616f2dc24df7a8664076ceab,2021-11-01_13h29.48.138,forced_choiceRT_color,2021.2.3,Win32,60.0240096,,,,,,,,4,Ontime,long,j,0,2.021,2,2,10,1,1,,,,,
0.27,,,,,,,,,f,blue,616f2dc24df7a8664076ceab,2021-11-01_13h29.48.138,forced_choiceRT_color,2021.2.3,Win32,60.0240096,,,,,,,,4,Ontime,long,f,1,1.958,2,3,11,1,1,,,,,
1.84,,,,,,,,,k,purple,616f2dc24df7a8664076ceab,2021-11-01_13h29.48.138,forced_choiceRT_color,2021.2.3,Win32,60.0240096,,,,,,,,4,Slow,long,k,1,2.367,3,0,12,3,1,,,,,
0.57,,,,,,,,,j,red,616f2dc24df7a8664076ceab,2021-11-01_13h29.48.138,forced_choiceRT_color,2021.2.3,Win32,60.0240096,,,,,,,,4,Ontime,long,j,1,2.066,3,1,13,2,1,,,,,
1.67,,,,,,,,,d,orange,616f2dc24df7a8664076ceab,2021-11-01_13h29.48.138,forced_choiceRT_color,2021.2.3,Win32,60.0240096,,,,,,,,4,Slow,long,d,1,2.152,3,2,14,0,1,,,,,
0.44,,,,,,,,,k,purple,616f2dc24df7a8664076ceab,2021-11-01_13h29.48.138,forced_choiceRT_color,2021.2.3,Win32,60.0240096,,,,,,,,4,Ontime,long,k,1,2.054,3,3,15,3,1,,,,,
1.67,,,,,,,,,f,blue,616f2dc24df7a8664076ceab,2021-11-01_13h29.48.138,forced_choiceRT_color,2021.2.3,Win32,60.0240096,,,,,,,,4,Slow,long,j,0,2.35,4,0,16,1,1,,,,,
0.54,,,,,,,,,f,blue,616f2dc24df7a8664076ceab,2021-11-01_13h29.48.138,forced_choiceRT_color,2021.2.3,Win32,60.0240096,,,,,,,,4,Ontime,long,f,1,2.002,4,1,17,1,1,,,,,
1.89,,,,,,,,,j,red,616f2dc24df7a8664076ceab,2021-11-01_13h29.48.138,forced_choiceRT_color,2021.2.3,Win32,60.0240096,,,,,,,,4,Slow,long,k,0,2.3,4,2,18,2,1,,,,,
1.62,,,,,,,,,k,purple,616f2dc24df7a8664076ceab,2021-11-01_13h29.48.138,forced_choiceRT_color,2021.2.3,Win32,60.0240096,,,,,,,,4,Slow,long,j,0,2.216,4,3,19,3,1,,,,,
1.88,,,,,,,,,d,orange,616f2dc24df7a8664076ceab,2021-11-01_13h29.48.138,forced_choiceRT_color,2021.2.3,Win32,60.0240096,,,,,,,,4,Slow,long,d,1,2.268,5,0,20,0,1,,,,,
0.51,,,,,,,,,j,red,616f2dc24df7a8664076ceab,2021-11-01_13h29.48.138,forced_choiceRT_color,2021.2.3,Win32,60.0240096,,,,,,,,4,Slow,long,j,1,2.102,5,1,21,2,1,,,,,
1.21,,,,,,,,,j,red,616f2dc24df7a8664076ceab,2021-11-01_13h29.48.138,forced_choiceRT_color,2021.2.3,Win32,60.0240096,,,,,,,,4,Ontime,long,j,1,1.933,5,2,22,2,1,,,,,
0.58,,,,,,,,,f,blue,616f2dc24df7a8664076ceab,2021-11-01_13h29.48.138,forced_choiceRT_color,2021.2.3,Win32,60.0240096,,,,,,,,4,Ontime,long,f,1,2.018,5,3,23,1,1,,,,,
0.81,,,,,,,,,d,orange,616f2dc24df7a8664076ceab,2021-11-01_13h29.48.138,forced_choiceRT_color,2021.2.3,Win32,60.0240096,,,,,,,,4,Ontime,long,d,1,2.001,6,0,24,0,1,,,,,
1.68,,,,,,,,,k,purple,616f2dc24df7a8664076ceab,2021-11-01_13h29.48.138,forced_choiceRT_color,2021.2.3,Win32,60.0240096,,,,,,,,4,Slow,long,j,0,2.118,6,1,25,3,1,,,,,
0.92,,,,,,,,,f,blue,616f2dc24df7a8664076ceab,2021-11-01_13h29.48.138,forced_choiceRT_color,2021.2.3,Win32,60.0240096,,,,,,,,4,Ontime,long,f,1,2.087,6,2,26,1,1,,,,,
0.6,,,,,,,,,k,purple,616f2dc24df7a8664076ceab,2021-11-01_13h29.48.138,forced_choiceRT_color,2021.2.3,Win32,60.0240096,,,,,,,,4,Ontime,long,k,1,2.018,6,3,27,3,1,,,,,
0.48,,,,,,,,,f,blue,616f2dc24df7a8664076ceab,2021-11-01_13h29.48.138,forced_choiceRT_color,2021.2.3,Win32,60.0240096,,,,,,,,4,Ontime,long,f,1,2.017,7,0,28,1,1,,,,,
0.32,,,,,,,,,f,blue,616f2dc24df7a8664076ceab,2021-11-01_13h29.48.138,forced_choiceRT_color,2021.2.3,Win32,60.0240096,,,,,,,,4,Ontime,long,f,1,2.066,7,1,29,1,1,,,,,
1.91,,,,,,,,,j,red,616f2dc24df7a8664076ceab,2021-11-01_13h29.48.138,forced_choiceRT_color,2021.2.3,Win32,60.0240096,,,,,,,,4,Slow,long,k,0,2.283,7,2,30,2,1,,,,,
0.22,,,,,,,,,f,blue,616f2dc24df7a8664076ceab,2021-11-01_13h29.48.138,forced_choiceRT_color,2021.2.3,Win32,60.0240096,,,,,,,,4,Ontime,long,f,1,2.085,7,3,31,1,1,,,,,
0.87,,,,,,,,,d,orange,616f2dc24df7a8664076ceab,2021-11-01_13h29.48.138,forced_choiceRT_color,2021.2.3,Win32,60.0240096,,,,,,,,4,Ontime,long,d,1,1.99,8,0,32,0,1,,,,,
0.46,,,,,,,,,k,purple,616f2dc24df7a8664076ceab,2021-11-01_13h29.48.138,forced_choiceRT_color,2021.2.3,Win32,60.0240096,,,,,,,,4,Ontime,long,k,1,2.092,8,1,33,3,1,,,,,
0.47,,,,,,,,,j,red,616f2dc24df7a8664076ceab,2021-11-01_13h29.48.138,forced_choiceRT_color,2021.2.3,Win32,60.0240096,,,,,,,,4,Ontime,long,j,1,2.073,8,2,34,2,1,,,,,
1.49,,,,,,,,,k,purple,616f2dc24df7a8664076ceab,2021-11-01_13h29.48.138,forced_choiceRT_color,2021.2.3,Win32,60.0240096,,,,,,,,4,Ontime,long,d,0,1.971,8,3,35,3,1,,,,,
0.77,,,,,,,,,d,orange,616f2dc24df7a8664076ceab,2021-11-01_13h29.48.138,forced_choiceRT_color,2021.2.3,Win32,60.0240096,,,,,,,,4,Ontime,long,d,1,2.035,9,0,36,0,1,,,,,
1.25,,,,,,,,,k,purple,616f2dc24df7a8664076ceab,2021-11-01_13h29.48.138,forced_choiceRT_color,2021.2.3,Win32,60.0240096,,,,,,,,4,Slow,long,f,0,2.101,9,1,37,3,1,,,,,
0.05,,,,,,,,,k,purple,616f2dc24df7a8664076ceab,2021-11-01_13h29.48.138,forced_choiceRT_color,2021.2.3,Win32,60.0240096,,,,,,,,4,Ontime,long,k,1,2.017,9,2,38,3,1,,,,,
0.41,,,,,,,,,d,orange,616f2dc24df7a8664076ceab,2021-11-01_13h29.48.138,forced_choiceRT_color,2021.2.3,Win32,60.0240096,,,,,,,,4,Ontime,long,d,1,2.033,9,3,39,0,1,,,,,
,,,,,,,,,,,616f2dc24df7a8664076ceab,2021-11-01_13h29.48.138,forced_choiceRT_color,2021.2.3,Win32,60.0240096,,,,,,,,,,,,,,,,,,,3,0,3,0,1
0.7,,,,,,,,,j,red,616f2dc24df7a8664076ceab,2021-11-01_13h29.48.138,forced_choiceRT_color,2021.2.3,Win32,60.0240096,,,,,,,,5,Ontime,long,j,1,1.954,0,0,0,2,1,,,,,
0.4,,,,,,,,,f,blue,616f2dc24df7a8664076ceab,2021-11-01_13h29.48.138,forced_choiceRT_color,2021.2.3,Win32,60.0240096,,,,,,,,5,Ontime,long,f,1,2.051,0,1,1,1,1,,,,,
0.1,,,,,,,,,d,orange,616f2dc24df7a8664076ceab,2021-11-01_13h29.48.138,forced_choiceRT_color,2021.2.3,Win32,60.0240096,,,,,,,,5,Ontime,long,d,1,2.051,0,2,2,0,1,,,,,
1.84,,,,,,,,,j,red,616f2dc24df7a8664076ceab,2021-11-01_13h29.48.138,forced_choiceRT_color,2021.2.3,Win32,60.0240096,,,,,,,,5,Slow,long,j,1,2.303,0,3,3,2,1,,,,,
0.1,,,,,,,,,k,purple,616f2dc24df7a8664076ceab,2021-11-01_13h29.48.138,forced_choiceRT_color,2021.2.3,Win32,60.0240096,,,,,,,,5,Ontime,long,k,1,2.049,1,0,4,3,1,,,,,
1.72,,,,,,,,,j,red,616f2dc24df7a8664076ceab,2021-11-01_13h29.48.138,forced_choiceRT_color,2021.2.3,Win32,60.0240096,,,,,,,,5,Ontime,long,j,1,2.089,1,1,5,2,1,,,,,
0.05,,,,,,,,,k,purple,616f2dc24df7a8664076ceab,2021-11-01_13h29.48.138,forced_choiceRT_color,2021.2.3,Win32,60.0240096,,,,,,,,5,Ontime,long,k,1,2.017,1,2,6,3,1,,,,,
1.34,,,,,,,,,f,blue,616f2dc24df7a8664076ceab,2021-11-01_13h29.48.138,forced_choiceRT_color,2021.2.3,Win32,60.0240096,,,,,,,,5,Ontime,long,f,1,1.937,1,3,7,1,1,,,,,
0.79,,,,,,,,,j,red,616f2dc24df7a8664076ceab,2021-11-01_13h29.48.138,forced_choiceRT_color,2021.2.3,Win32,60.0240096,,,,,,,,5,Ontime,long,j,1,2.08,2,0,8,2,1,,,,,
1.67,,,,,,,,,f,blue,616f2dc24df7a8664076ceab,2021-11-01_13h29.48.138,forced_choiceRT_color,2021.2.3,Win32,60.0240096,,,,,,,,5,Slow,long,k,0,2.552,2,1,9,1,1,,,,,
0.44,,,,,,,,,f,blue,616f2dc24df7a8664076ceab,2021-11-01_13h29.48.138,forced_choiceRT_color,2021.2.3,Win32,60.0240096,,,,,,,,5,Ontime,long,f,1,2.033,2,2,10,1,1,,,,,
1.99,,,,,,,,,k,purple,616f2dc24df7a8664076ceab,2021-11-01_13h29.48.138,forced_choiceRT_color,2021.2.3,Win32,60.0240096,,,,,,,,5,Slow,long,k,1,2.701,2,3,11,3,1,,,,,
0.67,,,,,,,,,k,purple,616f2dc24df7a8664076ceab,2021-11-01_13h29.48.138,forced_choiceRT_color,2021.2.3,Win32,60.0240096,,,,,,,,5,Ontime,long,k,1,1.991,3,0,12,3,1,,,,,
0.89,,,,,,,,,k,purple,616f2dc24df7a8664076ceab,2021-11-01_13h29.48.138,forced_choiceRT_color,2021.2.3,Win32,60.0240096,,,,,,,,5,Ontime,long,k,1,2.066,3,1,13,3,1,,,,,
0.28,,,,,,,,,k,purple,616f2dc24df7a8664076ceab,2021-11-01_13h29.48.138,forced_choiceRT_color,2021.2.3,Win32,60.0240096,,,,,,,,5,Ontime,long,k,1,2.067,3,2,14,3,1,,,,,
1.4,,,,,,,,,k,purple,616f2dc24df7a8664076ceab,2021-11-01_13h29.48.138,forced_choiceRT_color,2021.2.3,Win32,60.0240096,,,,,,,,5,Slow,long,k,1,2.15,3,3,15,3,1,,,,,
0.74,,,,,,,,,d,orange,616f2dc24df7a8664076ceab,2021-11-01_13h29.48.138,forced_choiceRT_color,2021.2.3,Win32,60.0240096,,,,,,,,5,Ontime,long,d,1,2.005,4,0,16,0,1,,,,,
0.71,,,,,,,,,d,orange,616f2dc24df7a8664076ceab,2021-11-01_13h29.48.138,forced_choiceRT_color,2021.2.3,Win32,60.0240096,,,,,,,,5,Ontime,long,d,1,2.017,4,1,17,0,1,,,,,
0.98,,,,,,,,,j,red,616f2dc24df7a8664076ceab,2021-11-01_13h29.48.138,forced_choiceRT_color,2021.2.3,Win32,60.0240096,,,,,,,,5,Ontime,long,j,1,2.068,4,2,18,2,1,,,,,
0.29,,,,,,,,,f,blue,616f2dc24df7a8664076ceab,2021-11-01_13h29.48.138,forced_choiceRT_color,2021.2.3,Win32,60.0240096,,,,,,,,5,Ontime,long,f,1,2.032,4,3,19,1,1,,,,,
1.85,,,,,,,,,f,blue,616f2dc24df7a8664076ceab,2021-11-01_13h29.48.138,forced_choiceRT_color,2021.2.3,Win32,60.0240096,,,,,,,,5,Slow,long,j,0,2.286,5,0,20,1,1,,,,,
0.17,,,,,,,,,d,orange,616f2dc24df7a8664076ceab,2021-11-01_13h29.48.138,forced_choiceRT_color,2021.2.3,Win32,60.0240096,,,,,,,,5,Ontime,long,d,1,2.016,5,1,21,0,1,,,,,
1.6,,,,,,,,,f,blue,616f2dc24df7a8664076ceab,2021-11-01_13h29.48.138,forced_choiceRT_color,2021.2.3,Win32,60.0240096,,,,,,,,5,Slow,long,f,1,2.186,5,2,22,1,1,,,,,
1.39,,,,,,,,,d,orange,616f2dc24df7a8664076ceab,2021-11-01_13h29.48.138,forced_choiceRT_color,2021.2.3,Win32,60.0240096,,,,,,,,5,Ontime,long,d,1,2.016,5,3,23,0,1,,,,,
1.1,,,,,,,,,f,blue,616f2dc24df7a8664076ceab,2021-11-01_13h29.48.138,forced_choiceRT_color,2021.2.3,Win32,60.0240096,,,,,,,,5,Slow,long,f,1,2.101,6,0,24,1,1,,,,,
0.16,,,,,,,,,f,blue,616f2dc24df7a8664076ceab,2021-11-01_13h29.48.138,forced_choiceRT_color,2021.2.3,Win32,60.0240096,,,,,,,,5,Ontime,long,f,1,2.034,6,1,25,1,1,,,,,
1.38,,,,,,,,,d,orange,616f2dc24df7a8664076ceab,2021-11-01_13h29.48.138,forced_choiceRT_color,2021.2.3,Win32,60.0240096,,,,,,,,5,Ontime,long,j,0,1.99,6,2,26,0,1,,,,,
1.21,,,,,,,,,k,purple,616f2dc24df7a8664076ceab,2021-11-01_13h29.48.138,forced_choiceRT_color,2021.2.3,Win32,60.0240096,,,,,,,,5,Ontime,long,k,1,2.067,6,3,27,3,1,,,,,
0.32,,,,,,,,,f,blue,616f2dc24df7a8664076ceab,2021-11-01_13h29.48.138,forced_choiceRT_color,2021.2.3,Win32,60.0240096,,,,,,,,5,Ontime,long,f,1,2.016,7,0,28,1,1,,,,,
0.8,,,,,,,,,d,orange,616f2dc24df7a8664076ceab,2021-11-01_13h29.48.138,forced_choiceRT_color,2021.2.3,Win32,60.0240096,,,,,,,,5,Ontime,long,d,1,1.988,7,1,29,0,1,,,,,
0.2,,,,,,,,,j,red,616f2dc24df7a8664076ceab,2021-11-01_13h29.48.138,forced_choiceRT_color,2021.2.3,Win32,60.0240096,,,,,,,,5,Ontime,long,j,1,2.017,7,2,30,2,1,,,,,
0.65,,,,,,,,,d,orange,616f2dc24df7a8664076ceab,2021-11-01_13h29.48.138,forced_choiceRT_color,2021.2.3,Win32,60.0240096,,,,,,,,5,Ontime,long,d,1,2.001,7,3,31,0,1,,,,,
1.19,,,,,,,,,k,purple,616f2dc24df7a8664076ceab,2021-11-01_13h29.48.138,forced_choiceRT_color,2021.2.3,Win32,60.0240096,,,,,,,,5,Ontime,long,k,1,1.967,8,0,32,3,1,,,,,
1.6,,,,,,,,,d,orange,616f2dc24df7a8664076ceab,2021-11-01_13h29.48.138,forced_choiceRT_color,2021.2.3,Win32,60.0240096,,,,,,,,5,Slow,long,f,0,2.116,8,1,33,0,1,,,,,
1.92,,,,,,,,,j,red,616f2dc24df7a8664076ceab,2021-11-01_13h29.48.138,forced_choiceRT_color,2021.2.3,Win32,60.0240096,,,,,,,,5,Slow,long,k,0,2.351,8,2,34,2,1,,,,,
0.82,,,,,,,,,j,red,616f2dc24df7a8664076ceab,2021-11-01_13h29.48.138,forced_choiceRT_color,2021.2.3,Win32,60.0240096,,,,,,,,5,Ontime,long,j,1,1.984,8,3,35,2,1,,,,,
0.81,,,,,,,,,d,orange,616f2dc24df7a8664076ceab,2021-11-01_13h29.48.138,forced_choiceRT_color,2021.2.3,Win32,60.0240096,,,,,,,,5,Ontime,long,d,1,2.05,9,0,36,0,1,,,,,
0.37,,,,,,,,,j,red,616f2dc24df7a8664076ceab,2021-11-01_13h29.48.138,forced_choiceRT_color,2021.2.3,Win32,60.0240096,,,,,,,,5,Ontime,long,j,1,1.989,9,1,37,2,1,,,,,
1.92,,,,,,,,,k,purple,616f2dc24df7a8664076ceab,2021-11-01_13h29.48.138,forced_choiceRT_color,2021.2.3,Win32,60.0240096,,,,,,,,5,Slow,long,f,0,2.45,9,2,38,3,1,,,,,
0.28,,,,,,,,,j,red,616f2dc24df7a8664076ceab,2021-11-01_13h29.48.138,forced_choiceRT_color,2021.2.3,Win32,60.0240096,,,,,,,,5,Ontime,long,j,1,2.033,9,3,39,2,1,,,,,
,,,,,,,,,,,616f2dc24df7a8664076ceab,2021-11-01_13h29.48.138,forced_choiceRT_color,2021.2.3,Win32,60.0240096,,,,,,,,,,,,,,,,,,,4,0,4,0,1
1.92,,,,,,,,,k,purple,616f2dc24df7a8664076ceab,2021-11-01_13h29.48.138,forced_choiceRT_color,2021.2.3,Win32,60.0240096,,,,,,,,6,Slow,long,k,1,2.355,0,0,0,3,1,,,,,
1.79,,,,,,,,,d,orange,616f2dc24df7a8664076ceab,2021-11-01_13h29.48.138,forced_choiceRT_color,2021.2.3,Win32,60.0240096,,,,,,,,6,Slow,long,d,1,2.42,0,1,1,0,1,,,,,
0.85,,,,,,,,,f,blue,616f2dc24df7a8664076ceab,2021-11-01_13h29.48.138,forced_choiceRT_color,2021.2.3,Win32,60.0240096,,,,,,,,6,Ontime,long,f,1,1.969,0,2,2,1,1,,,,,
0.28,,,,,,,,,d,orange,616f2dc24df7a8664076ceab,2021-11-01_13h29.48.138,forced_choiceRT_color,2021.2.3,Win32,60.0240096,,,,,,,,6,Ontime,long,d,1,1.973,0,3,3,0,1,,,,,
0.12,,,,,,,,,j,red,616f2dc24df7a8664076ceab,2021-11-01_13h29.48.138,forced_choiceRT_color,2021.2.3,Win32,60.0240096,,,,,,,,6,Ontime,long,j,1,2.068,1,0,4,2,1,,,,,
0.47,,,,,,,,,d,orange,616f2dc24df7a8664076ceab,2021-11-01_13h29.48.138,forced_choiceRT_color,2021.2.3,Win32,60.0240096,,,,,,,,6,Ontime,long,d,1,1.949,1,1,5,0,1,,,,,
0.63,,,,,,,,,f,blue,616f2dc24df7a8664076ceab,2021-11-01_13h29.48.138,forced_choiceRT_color,2021.2.3,Win32,60.0240096,,,,,,,,6,Ontime,long,f,1,2,1,2,6,1,1,,,,,
0.21,,,,,,,,,k,purple,616f2dc24df7a8664076ceab,2021-11-01_13h29.48.138,forced_choiceRT_color,2021.2.3,Win32,60.0240096,,,,,,,,6,Ontime,long,k,1,1.967,1,3,7,3,1,,,,,
0.42,,,,,,,,,d,orange,616f2dc24df7a8664076ceab,2021-11-01_13h29.48.138,forced_choiceRT_color,2021.2.3,Win32,60.0240096,,,,,,,,6,Ontime,long,d,1,2.034,2,0,8,0,1,,,,,
1.12,,,,,,,,,j,red,616f2dc24df7a8664076ceab,2021-11-01_13h29.48.138,forced_choiceRT_color,2021.2.3,Win32,60.0240096,,,,,,,,6,Ontime,long,j,1,2.036,2,1,9,2,1,,,,,
1.12,,,,,,,,,f,blue,616f2dc24df7a8664076ceab,2021-11-01_13h29.48.138,forced_choiceRT_color,2021.2.3,Win32,60.0240096,,,,,,,,6,Ontime,long,f,1,2.034,2,2,10,1,1,,,,,
1.38,,,,,,,,,d,orange,616f2dc24df7a8664076ceab,2021-11-01_13h29.48.138,forced_choiceRT_color,2021.2.3,Win32,60.0240096,,,,,,,,6,Ontime,long,d,1,2.098,2,3,11,0,1,,,,,
0.69,,,,,,,,,j,red,616f2dc24df7a8664076ceab,2021-11-01_13h29.48.138,forced_choiceRT_color,2021.2.3,Win32,60.0240096,,,,,,,,6,Ontime,long,j,1,2.018,3,0,12,2,1,,,,,
0.14,,,,,,,,,f,blue,616f2dc24df7a8664076ceab,2021-11-01_13h29.48.138,forced_choiceRT_color,2021.2.3,Win32,60.0240096,,,,,,,,6,Ontime,long,f,1,2.066,3,1,13,1,1,,,,,
0.33,,,,,,,,,f,blue,616f2dc24df7a8664076ceab,2021-11-01_13h29.48.138,forced_choiceRT_color,2021.2.3,Win32,60.0240096,,,,,,,,6,Ontime,long,f,1,2.049,3,2,14,1,1,,,,,
1.05,,,,,,,,,f,blue,616f2dc24df7a8664076ceab,2021-11-01_13h29.48.138,forced_choiceRT_color,2021.2.3,Win32,60.0240096,,,,,,,,6,Ontime,long,f,1,2.053,3,3,15,1,1,,,,,
1.66,,,,,,,,,d,orange,616f2dc24df7a8664076ceab,2021-11-01_13h29.48.138,forced_choiceRT_color,2021.2.3,Win32,60.0240096,,,,,,,,6,Slow,long,d,1,2.238,4,0,16,0,1,,,,,
0.97,,,,,,,,,j,red,616f2dc24df7a8664076ceab,2021-11-01_13h29.48.138,forced_choiceRT_color,2021.2.3,Win32,60.0240096,,,,,,,,6,Ontime,long,j,1,2.089,4,1,17,2,1,,,,,
0.2,,,,,,,,,j,red,616f2dc24df7a8664076ceab,2021-11-01_13h29.48.138,forced_choiceRT_color,2021.2.3,Win32,60.0240096,,,,,,,,6,Ontime,long,j,1,1.985,4,2,18,2,1,,,,,
1.61,,,,,,,,,d,orange,616f2dc24df7a8664076ceab,2021-11-01_13h29.48.138,forced_choiceRT_color,2021.2.3,Win32,60.0240096,,,,,,,,6,Slow,long,d,1,2.104,4,3,19,0,1,,,,,
0.67,,,,,,,,,f,blue,616f2dc24df7a8664076ceab,2021-11-01_13h29.48.138,forced_choiceRT_color,2021.2.3,Win32,60.0240096,,,,,,,,6,Ontime,long,f,1,2.001,5,0,20,1,1,,,,,
0.76,,,,,,,,,j,red,616f2dc24df7a8664076ceab,2021-11-01_13h29.48.138,forced_choiceRT_color,2021.2.3,Win32,60.0240096,,,,,,,,6,Ontime,long,j,1,2.039,5,1,21,2,1,,,,,
0.94,,,,,,,,,d,orange,616f2dc24df7a8664076ceab,2021-11-01_13h29.48.138,forced_choiceRT_color,2021.2.3,Win32,60.0240096,,,,,,,,6,Ontime,long,d,1,2.016,5,2,22,0,1,,,,,
0.15,,,,,,,,,j,red,616f2dc24df7a8664076ceab,2021-11-01_13h29.48.138,forced_choiceRT_color,2021.2.3,Win32,60.0240096,,,,,,,,6,Ontime,long,j,1,2.001,5,3,23,2,1,,,,,
0.74,,,,,,,,,f,blue,616f2dc24df7a8664076ceab,2021-11-01_13h29.48.138,forced_choiceRT_color,2021.2.3,Win32,60.0240096,,,,,,,,6,Ontime,long,f,1,2.049,6,0,24,1,1,,,,,
1.38,,,,,,,,,k,purple,616f2dc24df7a8664076ceab,2021-11-01_13h29.48.138,forced_choiceRT_color,2021.2.3,Win32,60.0240096,,,,,,,,6,Slow,long,k,1,2.15,6,1,25,3,1,,,,,
1.58,,,,,,,,,k,purple,616f2dc24df7a8664076ceab,2021-11-01_13h29.48.138,forced_choiceRT_color,2021.2.3,Win32,60.0240096,,,,,,,,6,Ontime,long,k,1,1.985,6,2,26,3,1,,,,,
1.52,,,,,,,,,f,blue,616f2dc24df7a8664076ceab,2021-11-01_13h29.48.138,forced_choiceRT_color,2021.2.3,Win32,60.0240096,,,,,,,,6,Slow,long,f,1,2.101,6,3,27,1,1,,,,,
0.24,,,,,,,,,k,purple,616f2dc24df7a8664076ceab,2021-11-01_13h29.48.138,forced_choiceRT_color,2021.2.3,Win32,60.0240096,,,,,,,,6,Ontime,long,k,1,2.05,7,0,28,3,1,,,,,
1.3,,,,,,,,,k,purple,616f2dc24df7a8664076ceab,2021-11-01_13h29.48.138,forced_choiceRT_color,2021.2.3,Win32,60.0240096,,,,,,,,6,Ontime,long,k,1,1.932,7,1,29,3,1,,,,,
1.03,,,,,,,,,j,red,616f2dc24df7a8664076ceab,2021-11-01_13h29.48.138,forced_choiceRT_color,2021.2.3,Win32,60.0240096,,,,,,,,6,Ontime,long,j,1,2.067,7,2,30,2,1,,,,,
0.6,,,,,,,,,k,purple,616f2dc24df7a8664076ceab,2021-11-01_13h29.48.138,forced_choiceRT_color,2021.2.3,Win32,60.0240096,,,,,,,,6,Ontime,long,k,1,2.001,7,3,31,3,1,,,,,
0.01,,,,,,,,,k,purple,616f2dc24df7a8664076ceab,2021-11-01_13h29.48.138,forced_choiceRT_color,2021.2.3,Win32,60.0240096,,,,,,,,6,Ontime,long,k,1,2.036,8,0,32,3,1,,,,,
1.77,,,,,,,,,j,red,616f2dc24df7a8664076ceab,2021-11-01_13h29.48.138,forced_choiceRT_color,2021.2.3,Win32,60.0240096,,,,,,,,6,Slow,long,f,0,2.266,8,1,33,2,1,,,,,
1.94,,,,,,,,,d,orange,616f2dc24df7a8664076ceab,2021-11-01_13h29.48.138,forced_choiceRT_color,2021.2.3,Win32,60.0240096,,,,,,,,6,Slow,long,k,0,2.318,8,2,34,0,1,,,,,
0.24,,,,,,,,,d,orange,616f2dc24df7a8664076ceab,2021-11-01_13h29.48.138,forced_choiceRT_color,2021.2.3,Win32,60.0240096,,,,,,,,6,Ontime,long,d,1,2.018,8,3,35,0,1,,,,,
0.29,,,,,,,,,k,purple,616f2dc24df7a8664076ceab,2021-11-01_13h29.48.138,forced_choiceRT_color,2021.2.3,Win32,60.0240096,,,,,,,,6,Ontime,long,k,1,2.086,9,0,36,3,1,,,,,
0.27,,,,,,,,,k,purple,616f2dc24df7a8664076ceab,2021-11-01_13h29.48.138,forced_choiceRT_color,2021.2.3,Win32,60.0240096,,,,,,,,6,Ontime,long,k,1,1.999,9,1,37,3,1,,,,,
1.89,,,,,,,,,j,red,616f2dc24df7a8664076ceab,2021-11-01_13h29.48.138,forced_choiceRT_color,2021.2.3,Win32,60.0240096,,,,,,,,6,Slow,long,j,1,2.317,9,2,38,2,1,,,,,
0.77,,,,,,,,,f,blue,616f2dc24df7a8664076ceab,2021-11-01_13h29.48.138,forced_choiceRT_color,2021.2.3,Win32,60.0240096,,,,,,,,6,Ontime,long,f,1,2.001,9,3,39,1,1,,,,,
,,,,,,,,,,,616f2dc24df7a8664076ceab,2021-11-01_13h29.48.138,forced_choiceRT_color,2021.2.3,Win32,60.0240096,,,,,,,,,,,,,,,,,,,5,0,5,0,1
1.71,,,,,,,,,d,orange,616f2dc24df7a8664076ceab,2021-11-01_13h29.48.138,forced_choiceRT_color,2021.2.3,Win32,60.0240096,,,,,,,,7,Slow,long,j,0,2.167,0,0,0,0,1,,,,,
1.42,,,,,,,,,d,orange,616f2dc24df7a8664076ceab,2021-11-01_13h29.48.138,forced_choiceRT_color,2021.2.3,Win32,60.0240096,,,,,,,,7,Ontime,long,d,1,1.915,0,1,1,0,1,,,,,
1.19,,,,,,,,,j,red,616f2dc24df7a8664076ceab,2021-11-01_13h29.48.138,forced_choiceRT_color,2021.2.3,Win32,60.0240096,,,,,,,,7,Ontime,long,j,1,2.017,0,2,2,2,1,,,,,
1.72,,,,,,,,,d,orange,616f2dc24df7a8664076ceab,2021-11-01_13h29.48.138,forced_choiceRT_color,2021.2.3,Win32,60.0240096,,,,,,,,7,Slow,long,d,1,2.135,0,3,3,0,1,,,,,
1.63,,,,,,,,,k,purple,616f2dc24df7a8664076ceab,2021-11-01_13h29.48.138,forced_choiceRT_color,2021.2.3,Win32,60.0240096,,,,,,,,7,Slow,long,k,1,2.183,1,0,4,3,1,,,,,
1.91,,,,,,,,,f,blue,616f2dc24df7a8664076ceab,2021-11-01_13h29.48.138,forced_choiceRT_color,2021.2.3,Win32,60.0240096,,,,,,,,7,Ontime,long,d,0,1.983,1,1,5,1,1,,,,,
1.54,,,,,,,,,d,orange,616f2dc24df7a8664076ceab,2021-11-01_13h29.48.138,forced_choiceRT_color,2021.2.3,Win32,60.0240096,,,,,,,,7,Ontime,long,k,0,1.902,1,2,6,0,1,,,,,
1.94,,,,,,,,,j,red,616f2dc24df7a8664076ceab,2021-11-01_13h29.48.138,forced_choiceRT_color,2021.2.3,Win32,60.0240096,,,,,,,,7,Slow,long,d,0,2.181,1,3,7,2,1,,,,,
1.5,,,,,,,,,f,blue,616f2dc24df7a8664076ceab,2021-11-01_13h29.48.138,forced_choiceRT_color,2021.2.3,Win32,60.0240096,,,,,,,,7,Ontime,long,d,0,1.971,2,0,8,1,1,,,,,
0.38,,,,,,,,,f,blue,616f2dc24df7a8664076ceab,2021-11-01_13h29.48.138,forced_choiceRT_color,2021.2.3,Win32,60.0240096,,,,,,,,7,Ontime,long,f,1,2.055,2,1,9,1,1,,,,,
1.62,,,,,,,,,k,purple,616f2dc24df7a8664076ceab,2021-11-01_13h29.48.138,forced_choiceRT_color,2021.2.3,Win32,60.0240096,,,,,,,,7,Slow,long,k,1,2.103,2,2,10,3,1,,,,,
0.42,,,,,,,,,k,purple,616f2dc24df7a8664076ceab,2021-11-01_13h29.48.138,forced_choiceRT_color,2021.2.3,Win32,60.0240096,,,,,,,,7,Ontime,long,k,1,1.984,2,3,11,3,1,,,,,
1.53,,,,,,,,,k,purple,616f2dc24df7a8664076ceab,2021-11-01_13h29.48.138,forced_choiceRT_color,2021.2.3,Win32,60.0240096,,,,,,,,7,Slow,long,k,1,2.101,3,0,12,3,1,,,,,
0.74,,,,,,,,,j,red,616f2dc24df7a8664076ceab,2021-11-01_13h29.48.138,forced_choiceRT_color,2021.2.3,Win32,60.0240096,,,,,,,,7,Ontime,long,j,1,1.969,3,1,13,2,1,,,,,
0.1,,,,,,,,,k,purple,616f2dc24df7a8664076ceab,2021-11-01_13h29.48.138,forced_choiceRT_color,2021.2.3,Win32,60.0240096,,,,,,,,7,Ontime,long,k,1,1.974,3,2,14,3,1,,,,,
1.24,,,,,,,,,j,red,616f2dc24df7a8664076ceab,2021-11-01_13h29.48.138,forced_choiceRT_color,2021.2.3,Win32,60.0240096,,,,,,,,7,Slow,long,j,1,2.117,3,3,15,2,1,,,,,
0.02,,,,,,,,,f,blue,616f2dc24df7a8664076ceab,2021-11-01_13h29.48.138,forced_choiceRT_color,2021.2.3,Win32,60.0240096,,,,,,,,7,Ontime,long,f,1,1.968,4,0,16,1,1,,,,,
1.57,,,,,,,,,f,blue,616f2dc24df7a8664076ceab,2021-11-01_13h29.48.138,forced_choiceRT_color,2021.2.3,Win32,60.0240096,,,,,,,,7,Slow,long,j,0,2.137,4,1,17,1,1,,,,,
1.77,,,,,,,,,j,red,616f2dc24df7a8664076ceab,2021-11-01_13h29.48.138,forced_choiceRT_color,2021.2.3,Win32,60.0240096,,,,,,,,7,Slow,long,k,0,2.199,4,2,18,2,1,,,,,
1.72,,,,,,,,,k,purple,616f2dc24df7a8664076ceab,2021-11-01_13h29.48.138,forced_choiceRT_color,2021.2.3,Win32,60.0240096,,,,,,,,7,Slow,long,k,1,2.25,4,3,19,3,1,,,,,
0.78,,,,,,,,,j,red,616f2dc24df7a8664076ceab,2021-11-01_13h29.48.138,forced_choiceRT_color,2021.2.3,Win32,60.0240096,,,,,,,,7,Ontime,long,j,1,2,5,0,20,2,1,,,,,
1.09,,,,,,,,,d,orange,616f2dc24df7a8664076ceab,2021-11-01_13h29.48.138,forced_choiceRT_color,2021.2.3,Win32,60.0240096,,,,,,,,7,Ontime,long,d,1,1.971,5,1,21,0,1,,,,,
0.28,,,,,,,,,d,orange,616f2dc24df7a8664076ceab,2021-11-01_13h29.48.138,forced_choiceRT_color,2021.2.3,Win32,60.0240096,,,,,,,,7,Ontime,long,d,1,2.02,5,2,22,0,1,,,,,
1.94,,,,,,,,,j,red,616f2dc24df7a8664076ceab,2021-11-01_13h29.48.138,forced_choiceRT_color,2021.2.3,Win32,60.0240096,,,,,,,,7,Slow,long,k,0,2.35,5,3,23,2,1,,,,,
1.25,,,,,,,,,f,blue,616f2dc24df7a8664076ceab,2021-11-01_13h29.48.138,forced_choiceRT_color,2021.2.3,Win32,60.0240096,,,,,,,,7,Ontime,long,f,1,1.942,6,0,24,1,1,,,,,
1.87,,,,,,,,,j,red,616f2dc24df7a8664076ceab,2021-11-01_13h29.48.138,forced_choiceRT_color,2021.2.3,Win32,60.0240096,,,,,,,,7,Slow,long,k,0,2.24,6,1,25,2,1,,,,,
0.78,,,,,,,,,k,purple,616f2dc24df7a8664076ceab,2021-11-01_13h29.48.138,forced_choiceRT_color,2021.2.3,Win32,60.0240096,,,,,,,,7,Ontime,long,k,1,2.051,6,2,26,3,1,,,,,
1.21,,,,,,,,,j,red,616f2dc24df7a8664076ceab,2021-11-01_13h29.48.138,forced_choiceRT_color,2021.2.3,Win32,60.0240096,,,,,,,,7,Fast,long,j,1,1.884,6,3,27,2,1,,,,,
1.09,,,,,,,,,d,orange,616f2dc24df7a8664076ceab,2021-11-01_13h29.48.138,forced_choiceRT_color,2021.2.3,Win32,60.0240096,,,,,,,,7,Ontime,long,d,1,2.051,7,0,28,0,1,,,,,
1.06,,,,,,,,,d,orange,616f2dc24df7a8664076ceab,2021-11-01_13h29.48.138,forced_choiceRT_color,2021.2.3,Win32,60.0240096,,,,,,,,7,Ontime,long,d,1,1.949,7,1,29,0,1,,,,,
0.59,,,,,,,,,d,orange,616f2dc24df7a8664076ceab,2021-11-01_13h29.48.138,forced_choiceRT_color,2021.2.3,Win32,60.0240096,,,,,,,,7,Ontime,long,d,1,2,7,2,30,0,1,,,,,
1.78,,,,,,,,,k,purple,616f2dc24df7a8664076ceab,2021-11-01_13h29.48.138,forced_choiceRT_color,2021.2.3,Win32,60.0240096,,,,,,,,7,Slow,long,k,1,2.291,7,3,31,3,1,,,,,
0.49,,,,,,,,,f,blue,616f2dc24df7a8664076ceab,2021-11-01_13h29.48.138,forced_choiceRT_color,2021.2.3,Win32,60.0240096,,,,,,,,7,Ontime,long,f,1,2.05,8,0,32,1,1,,,,,
1.44,,,,,,,,,k,purple,616f2dc24df7a8664076ceab,2021-11-01_13h29.48.138,forced_choiceRT_color,2021.2.3,Win32,60.0240096,,,,,,,,7,Ontime,long,k,1,2.033,8,1,33,3,1,,,,,
1.96,,,,,,,,,d,orange,616f2dc24df7a8664076ceab,2021-11-01_13h29.48.138,forced_choiceRT_color,2021.2.3,Win32,60.0240096,,,,,,,,7,Slow,long,j,0,2.416,8,2,34,0,1,,,,,
0.23,,,,,,,,,f,blue,616f2dc24df7a8664076ceab,2021-11-01_13h29.48.138,forced_choiceRT_color,2021.2.3,Win32,60.0240096,,,,,,,,7,Ontime,long,f,1,2.001,8,3,35,1,1,,,,,
0.03,,,,,,,,,f,blue,616f2dc24df7a8664076ceab,2021-11-01_13h29.48.138,forced_choiceRT_color,2021.2.3,Win32,60.0240096,,,,,,,,7,Ontime,long,f,1,2.017,9,0,36,1,1,,,,,
0.38,,,,,,,,,k,purple,616f2dc24df7a8664076ceab,2021-11-01_13h29.48.138,forced_choiceRT_color,2021.2.3,Win32,60.0240096,,,,,,,,7,Ontime,long,k,1,2.033,9,1,37,3,1,,,,,
0.58,,,,,,,,,j,red,616f2dc24df7a8664076ceab,2021-11-01_13h29.48.138,forced_choiceRT_color,2021.2.3,Win32,60.0240096,,,,,,,,7,Ontime,long,j,1,2.049,9,2,38,2,1,,,,,
1.94,,,,,,,,,f,blue,616f2dc24df7a8664076ceab,2021-11-01_13h29.48.138,forced_choiceRT_color,2021.2.3,Win32,60.0240096,,,,,,,,7,Slow,long,k,0,2.366,9,3,39,1,1,,,,,
,,,,,,,,,,,616f2dc24df7a8664076ceab,2021-11-01_13h29.48.138,forced_choiceRT_color,2021.2.3,Win32,60.0240096,,,,,,,,,,,,,,,,,,,6,0,6,0,1
0.63,,,,,,,,,d,orange,616f2dc24df7a8664076ceab,2021-11-01_13h29.48.138,forced_choiceRT_color,2021.2.3,Win32,60.0240096,,,,,,,,8,Fast,long,d,1,1.585,0,0,0,0,1,,,,,
1.52,,,,,,,,,d,orange,616f2dc24df7a8664076ceab,2021-11-01_13h29.48.138,forced_choiceRT_color,2021.2.3,Win32,60.0240096,,,,,,,,8,Ontime,long,d,1,2.049,0,1,1,0,1,,,,,
0.64,,,,,,,,,f,blue,616f2dc24df7a8664076ceab,2021-11-01_13h29.48.138,forced_choiceRT_color,2021.2.3,Win32,60.0240096,,,,,,,,8,Ontime,long,f,1,2.054,0,2,2,1,1,,,,,
0.87,,,,,,,,,d,orange,616f2dc24df7a8664076ceab,2021-11-01_13h29.48.138,forced_choiceRT_color,2021.2.3,Win32,60.0240096,,,,,,,,8,Ontime,long,d,1,1.984,0,3,3,0,1,,,,,
1.84,,,,,,,,,d,orange,616f2dc24df7a8664076ceab,2021-11-01_13h29.48.138,forced_choiceRT_color,2021.2.3,Win32,60.0240096,,,,,,,,8,Slow,long,d,1,2.287,1,0,4,0,1,,,,,
0,,,,,,,,,j,red,616f2dc24df7a8664076ceab,2021-11-01_13h29.48.138,forced_choiceRT_color,2021.2.3,Win32,60.0240096,,,,,,,,8,Ontime,long,j,1,2.016,1,1,5,2,1,,,,,
0.85,,,,,,,,,d,orange,616f2dc24df7a8664076ceab,2021-11-01_13h29.48.138,forced_choiceRT_color,2021.2.3,Win32,60.0240096,,,,,,,,8,Ontime,long,d,1,2.05,1,2,6,0,1,,,,,
1.62,,,,,,,,,k,purple,616f2dc24df7a8664076ceab,2021-11-01_13h29.48.138,forced_choiceRT_color,2021.2.3,Win32,60.0240096,,,,,,,,8,Slow,long,k,1,2.133,1,3,7,3,1,,,,,
1.82,,,,,,,,,f,blue,616f2dc24df7a8664076ceab,2021-11-01_13h29.48.138,forced_choiceRT_color,2021.2.3,Win32,60.0240096,,,,,,,,8,Slow,long,j,0,2.35,2,0,8,1,1,,,,,
1.33,,,,,,,,,d,orange,616f2dc24df7a8664076ceab,2021-11-01_13h29.48.138,forced_choiceRT_color,2021.2.3,Win32,60.0240096,,,,,,,,8,Ontime,long,d,1,2.056,2,1,9,0,1,,,,,
0.18,,,,,,,,,f,blue,616f2dc24df7a8664076ceab,2021-11-01_13h29.48.138,forced_choiceRT_color,2021.2.3,Win32,60.0240096,,,,,,,,8,Ontime,long,f,1,2.002,2,2,10,1,1,,,,,
0.42,,,,,,,,,j,red,616f2dc24df7a8664076ceab,2021-11-01_13h29.48.138,forced_choiceRT_color,2021.2.3,Win32,60.0240096,,,,,,,,8,Slow,long,j,1,2.13,2,3,11,2,1,,,,,
0.42,,,,,,,,,j,red,616f2dc24df7a8664076ceab,2021-11-01_13h29.48.138,forced_choiceRT_color,2021.2.3,Win32,60.0240096,,,,,,,,8,Ontime,long,j,1,2.032,3,0,12,2,1,,,,,
1.55,,,,,,,,,j,red,616f2dc24df7a8664076ceab,2021-11-01_13h29.48.138,forced_choiceRT_color,2021.2.3,Win32,60.0240096,,,,,,,,8,Slow,long,j,1,2.139,3,1,13,2,1,,,,,
0.79,,,,,,,,,k,purple,616f2dc24df7a8664076ceab,2021-11-01_13h29.48.138,forced_choiceRT_color,2021.2.3,Win32,60.0240096,,,,,,,,8,Ontime,long,k,1,2.006,3,2,14,3,1,,,,,
0.44,,,,,,,,,j,red,616f2dc24df7a8664076ceab,2021-11-01_13h29.48.138,forced_choiceRT_color,2021.2.3,Win32,60.0240096,,,,,,,,8,Ontime,long,j,1,1.95,3,3,15,2,1,,,,,
0.15,,,,,,,,,k,purple,616f2dc24df7a8664076ceab,2021-11-01_13h29.48.138,forced_choiceRT_color,2021.2.3,Win32,60.0240096,,,,,,,,8,Ontime,long,k,1,2.002,4,0,16,3,1,,,,,
0.94,,,,,,,,,k,purple,616f2dc24df7a8664076ceab,2021-11-01_13h29.48.138,forced_choiceRT_color,2021.2.3,Win32,60.0240096,,,,,,,,8,Ontime,long,k,1,2.016,4,1,17,3,1,,,,,
1.4,,,,,,,,,f,blue,616f2dc24df7a8664076ceab,2021-11-01_13h29.48.138,forced_choiceRT_color,2021.2.3,Win32,60.0240096,,,,,,,,8,Ontime,long,d,0,1.967,4,2,18,1,1,,,,,
1.62,,,,,,,,,k,purple,616f2dc24df7a8664076ceab,2021-11-01_13h29.48.138,forced_choiceRT_color,2021.2.3,Win32,60.0240096,,,,,,,,8,Slow,long,k,1,2.217,4,3,19,3,1,,,,,
0.36,,,,,,,,,d,orange,616f2dc24df7a8664076ceab,2021-11-01_13h29.48.138,forced_choiceRT_color,2021.2.3,Win32,60.0240096,,,,,,,,8,Ontime,long,d,1,2.039,5,0,20,0,1,,,,,
0.56,,,,,,,,,f,blue,616f2dc24df7a8664076ceab,2021-11-01_13h29.48.138,forced_choiceRT_color,2021.2.3,Win32,60.0240096,,,,,,,,8,Ontime,long,f,1,2.067,5,1,21,1,1,,,,,
1.39,,,,,,,,,j,red,616f2dc24df7a8664076ceab,2021-11-01_13h29.48.138,forced_choiceRT_color,2021.2.3,Win32,60.0240096,,,,,,,,8,Slow,long,k,0,2.133,5,2,22,2,1,,,,,
1.13,,,,,,,,,f,blue,616f2dc24df7a8664076ceab,2021-11-01_13h29.48.138,forced_choiceRT_color,2021.2.3,Win32,60.0240096,,,,,,,,8,Ontime,long,f,1,2.024,5,3,23,1,1,,,,,
0.61,,,,,,,,,k,purple,616f2dc24df7a8664076ceab,2021-11-01_13h29.48.138,forced_choiceRT_color,2021.2.3,Win32,60.0240096,,,,,,,,8,Ontime,long,k,1,2.018,6,0,24,3,1,,,,,
0.89,,,,,,,,,d,orange,616f2dc24df7a8664076ceab,2021-11-01_13h29.48.138,forced_choiceRT_color,2021.2.3,Win32,60.0240096,,,,,,,,8,Ontime,long,d,1,2.069,6,1,25,0,1,,,,,
1.92,,,,,,,,,j,red,616f2dc24df7a8664076ceab,2021-11-01_13h29.48.138,forced_choiceRT_color,2021.2.3,Win32,60.0240096,,,,,,,,8,Slow,long,d,0,2.269,6,2,26,2,1,,,,,
1.83,,,,,,,,,d,orange,616f2dc24df7a8664076ceab,2021-11-01_13h29.48.138,forced_choiceRT_color,2021.2.3,Win32,60.0240096,,,,,,,,8,Slow,long,d,1,2.386,6,3,27,0,1,,,,,
0.77,,,,,,,,,f,blue,616f2dc24df7a8664076ceab,2021-11-01_13h29.48.138,forced_choiceRT_color,2021.2.3,Win32,60.0240096,,,,,,,,8,Ontime,long,f,1,1.951,7,0,28,1,1,,,,,
1.32,,,,,,,,,k,purple,616f2dc24df7a8664076ceab,2021-11-01_13h29.48.138,forced_choiceRT_color,2021.2.3,Win32,60.0240096,,,,,,,,8,Ontime,long,k,1,1.92,7,1,29,3,1,,,,,
0.89,,,,,,,,,j,red,616f2dc24df7a8664076ceab,2021-11-01_13h29.48.138,forced_choiceRT_color,2021.2.3,Win32,60.0240096,,,,,,,,8,Ontime,long,j,1,1.99,7,2,30,2,1,,,,,
0.06,,,,,,,,,k,purple,616f2dc24df7a8664076ceab,2021-11-01_13h29.48.138,forced_choiceRT_color,2021.2.3,Win32,60.0240096,,,,,,,,8,Ontime,long,k,1,2,7,3,31,3,1,,,,,
1.05,,,,,,,,,f,blue,616f2dc24df7a8664076ceab,2021-11-01_13h29.48.138,forced_choiceRT_color,2021.2.3,Win32,60.0240096,,,,,,,,8,Ontime,long,f,1,2.051,8,0,32,1,1,,,,,
0.42,,,,,,,,,k,purple,616f2dc24df7a8664076ceab,2021-11-01_13h29.48.138,forced_choiceRT_color,2021.2.3,Win32,60.0240096,,,,,,,,8,Ontime,long,k,1,2.019,8,1,33,3,1,,,,,
1.08,,,,,,,,,j,red,616f2dc24df7a8664076ceab,2021-11-01_13h29.48.138,forced_choiceRT_color,2021.2.3,Win32,60.0240096,,,,,,,,8,Ontime,long,j,1,2.017,8,2,34,2,1,,,,,
0.51,,,,,,,,,f,blue,616f2dc24df7a8664076ceab,2021-11-01_13h29.48.138,forced_choiceRT_color,2021.2.3,Win32,60.0240096,,,,,,,,8,Ontime,long,f,1,2.017,8,3,35,1,1,,,,,
0.07,,,,,,,,,d,orange,616f2dc24df7a8664076ceab,2021-11-01_13h29.48.138,forced_choiceRT_color,2021.2.3,Win32,60.0240096,,,,,,,,8,Ontime,long,d,1,2.018,9,0,36,0,1,,,,,
0.44,,,,,,,,,f,blue,616f2dc24df7a8664076ceab,2021-11-01_13h29.48.138,forced_choiceRT_color,2021.2.3,Win32,60.0240096,,,,,,,,8,Ontime,long,f,1,1.968,9,1,37,1,1,,,,,
0.03,,,,,,,,,k,purple,616f2dc24df7a8664076ceab,2021-11-01_13h29.48.138,forced_choiceRT_color,2021.2.3,Win32,60.0240096,,,,,,,,8,Ontime,long,k,1,1.924,9,2,38,3,1,,,,,
1.02,,,,,,,,,j,red,616f2dc24df7a8664076ceab,2021-11-01_13h29.48.138,forced_choiceRT_color,2021.2.3,Win32,60.0240096,,,,,,,,8,Ontime,long,j,1,1.969,9,3,39,2,1,,,,,
,,,,,,,,,,,616f2dc24df7a8664076ceab,2021-11-01_13h29.48.138,forced_choiceRT_color,2021.2.3,Win32,60.0240096,,,,,,,,,,,,,,,,,,,7,0,7,0,1
0.03,,,,,,,,,f,blue,616f2dc24df7a8664076ceab,2021-11-01_13h29.48.138,forced_choiceRT_color,2021.2.3,Win32,60.0240096,,,,,,,,9,Ontime,long,f,1,1.968,0,0,0,1,1,,,,,
0.39,,,,,,,,,k,purple,616f2dc24df7a8664076ceab,2021-11-01_13h29.48.138,forced_choiceRT_color,2021.2.3,Win32,60.0240096,,,,,,,,9,Ontime,long,k,1,2.036,0,1,1,3,1,,,,,
0.34,,,,,,,,,j,red,616f2dc24df7a8664076ceab,2021-11-01_13h29.48.138,forced_choiceRT_color,2021.2.3,Win32,60.0240096,,,,,,,,9,Ontime,long,j,1,2.018,0,2,2,2,1,,,,,
0.77,,,,,,,,,k,purple,616f2dc24df7a8664076ceab,2021-11-01_13h29.48.138,forced_choiceRT_color,2021.2.3,Win32,60.0240096,,,,,,,,9,Ontime,long,k,1,2.099,0,3,3,3,1,,,,,
1.93,,,,,,,,,f,blue,616f2dc24df7a8664076ceab,2021-11-01_13h29.48.138,forced_choiceRT_color,2021.2.3,Win32,60.0240096,,,,,,,,9,Slow,long,j,0,2.305,1,0,4,1,1,,,,,
1.4,,,,,,,,,f,blue,616f2dc24df7a8664076ceab,2021-11-01_13h29.48.138,forced_choiceRT_color,2021.2.3,Win32,60.0240096,,,,,,,,9,Ontime,long,f,1,1.97,1,1,5,1,1,,,,,
1.26,,,,,,,,,d,orange,616f2dc24df7a8664076ceab,2021-11-01_13h29.48.138,forced_choiceRT_color,2021.2.3,Win32,60.0240096,,,,,,,,9,Ontime,long,d,1,1.919,1,2,6,0,1,,,,,
0.78,,,,,,,,,j,red,616f2dc24df7a8664076ceab,2021-11-01_13h29.48.138,forced_choiceRT_color,2021.2.3,Win32,60.0240096,,,,,,,,9,Ontime,long,j,1,1.955,1,3,7,2,1,,,,,
0.53,,,,,,,,,k,purple,616f2dc24df7a8664076ceab,2021-11-01_13h29.48.138,forced_choiceRT_color,2021.2.3,Win32,60.0240096,,,,,,,,9,Ontime,long,k,1,2.007,2,0,8,3,1,,,,,
0.89,,,,,,,,,j,red,616f2dc24df7a8664076ceab,2021-11-01_13h29.48.138,forced_choiceRT_color,2021.2.3,Win32,60.0240096,,,,,,,,9,Fast,long,j,1,1.87,2,1,9,2,1,,,,,
1.83,,,,,,,,,d,orange,616f2dc24df7a8664076ceab,2021-11-01_13h29.48.138,forced_choiceRT_color,2021.2.3,Win32,60.0240096,,,,,,,,9,Slow,long,d,1,2.29,2,2,10,0,1,,,,,
1.37,,,,,,,,,f,blue,616f2dc24df7a8664076ceab,2021-11-01_13h29.48.138,forced_choiceRT_color,2021.2.3,Win32,60.0240096,,,,,,,,9,Slow,long,d,0,2.117,2,3,11,1,1,,,,,
1.04,,,,,,,,,f,blue,616f2dc24df7a8664076ceab,2021-11-01_13h29.48.138,forced_choiceRT_color,2021.2.3,Win32,60.0240096,,,,,,,,9,Ontime,long,f,1,1.935,3,0,12,1,1,,,,,
1.93,,,,,,,,,j,red,616f2dc24df7a8664076ceab,2021-11-01_13h29.48.138,forced_choiceRT_color,2021.2.3,Win32,60.0240096,,,,,,,,9,Slow,long,d,0,2.323,3,1,13,2,1,,,,,
0.7,,,,,,,,,k,purple,616f2dc24df7a8664076ceab,2021-11-01_13h29.48.138,forced_choiceRT_color,2021.2.3,Win32,60.0240096,,,,,,,,9,Ontime,long,k,1,2.016,3,2,14,3,1,,,,,
1.27,,,,,,,,,d,orange,616f2dc24df7a8664076ceab,2021-11-01_13h29.48.138,forced_choiceRT_color,2021.2.3,Win32,60.0240096,,,,,,,,9,Ontime,long,d,1,2.003,3,3,15,0,1,,,,,
0.91,,,,,,,,,j,red,616f2dc24df7a8664076ceab,2021-11-01_13h29.48.138,forced_choiceRT_color,2021.2.3,Win32,60.0240096,,,,,,,,9,Ontime,long,j,1,1.983,4,0,16,2,1,,,,,
0.17,,,,,,,,,d,orange,616f2dc24df7a8664076ceab,2021-11-01_13h29.48.138,forced_choiceRT_color,2021.2.3,Win32,60.0240096,,,,,,,,9,Ontime,long,d,1,1.985,4,1,17,0,1,,,,,
0.27,,,,,,,,,j,red,616f2dc24df7a8664076ceab,2021-11-01_13h29.48.138,forced_choiceRT_color,2021.2.3,Win32,60.0240096,,,,,,,,9,Ontime,long,j,1,2.016,4,2,18,2,1,,,,,
0.06,,,,,,,,,k,purple,616f2dc24df7a8664076ceab,2021-11-01_13h29.48.138,forced_choiceRT_color,2021.2.3,Win32,60.0240096,,,,,,,,9,Ontime,long,k,1,1.983,4,3,19,3,1,,,,,
0.12,,,,,,,,,k,purple,616f2dc24df7a8664076ceab,2021-11-01_13h29.48.138,forced_choiceRT_color,2021.2.3,Win32,60.0240096,,,,,,,,9,Ontime,long,k,1,1.987,5,0,20,3,1,,,,,
1.17,,,,,,,,,d,orange,616f2dc24df7a8664076ceab,2021-11-01_13h29.48.138,forced_choiceRT_color,2021.2.3,Win32,60.0240096,,,,,,,,9,Ontime,long,d,1,2.073,5,1,21,0,1,,,,,
0.42,,,,,,,,,j,red,616f2dc24df7a8664076ceab,2021-11-01_13h29.48.138,forced_choiceRT_color,2021.2.3,Win32,60.0240096,,,,,,,,9,Ontime,long,j,1,2.05,5,2,22,2,1,,,,,
1.46,,,,,,,,,k,purple,616f2dc24df7a8664076ceab,2021-11-01_13h29.48.138,forced_choiceRT_color,2021.2.3,Win32,60.0240096,,,,,,,,9,Ontime,long,k,1,2.05,5,3,23,3,1,,,,,
0.52,,,,,,,,,f,blue,616f2dc24df7a8664076ceab,2021-11-01_13h29.48.138,forced_choiceRT_color,2021.2.3,Win32,60.0240096,,,,,,,,9,Ontime,long,f,1,1.983,6,0,24,1,1,,,,,
0.26,,,,,,,,,f,blue,616f2dc24df7a8664076ceab,2021-11-01_13h29.48.138,forced_choiceRT_color,2021.2.3,Win32,60.0240096,,,,,,,,9,Ontime,long,f,1,1.955,6,1,25,1,1,,,,,
0.23,,,,,,,,,k,purple,616f2dc24df7a8664076ceab,2021-11-01_13h29.48.138,forced_choiceRT_color,2021.2.3,Win32,60.0240096,,,,,,,,9,Ontime,long,k,1,1.967,6,2,26,3,1,,,,,
0,,,,,,,,,j,red,616f2dc24df7a8664076ceab,2021-11-01_13h29.48.138,forced_choiceRT_color,2021.2.3,Win32,60.0240096,,,,,,,,9,Fast,long,j,1,1.899,6,3,27,2,1,,,,,
1.64,,,,,,,,,j,red,616f2dc24df7a8664076ceab,2021-11-01_13h29.48.138,forced_choiceRT_color,2021.2.3,Win32,60.0240096,,,,,,,,9,Ontime,long,f,0,2.088,7,0,28,2,1,,,,,
0.23,,,,,,,,,d,orange,616f2dc24df7a8664076ceab,2021-11-01_13h29.48.138,forced_choiceRT_color,2021.2.3,Win32,60.0240096,,,,,,,,9,Ontime,long,d,1,1.986,7,1,29,0,1,,,,,
1.48,,,,,,,,,f,blue,616f2dc24df7a8664076ceab,2021-11-01_13h29.48.138,forced_choiceRT_color,2021.2.3,Win32,60.0240096,,,,,,,,9,Slow,long,j,0,2.118,7,2,30,1,1,,,,,
1.38,,,,,,,,,k,purple,616f2dc24df7a8664076ceab,2021-11-01_13h29.48.138,forced_choiceRT_color,2021.2.3,Win32,60.0240096,,,,,,,,9,Ontime,long,j,0,2.018,7,3,31,3,1,,,,,
0.93,,,,,,,,,k,purple,616f2dc24df7a8664076ceab,2021-11-01_13h29.48.138,forced_choiceRT_color,2021.2.3,Win32,60.0240096,,,,,,,,9,Ontime,long,k,1,2.083,8,0,32,3,1,,,,,
0.49,,,,,,,,,d,orange,616f2dc24df7a8664076ceab,2021-11-01_13h29.48.138,forced_choiceRT_color,2021.2.3,Win32,60.0240096,,,,,,,,9,Ontime,long,d,1,2.018,8,1,33,0,1,,,,,
0.69,,,,,,,,,f,blue,616f2dc24df7a8664076ceab,2021-11-01_13h29.48.138,forced_choiceRT_color,2021.2.3,Win32,60.0240096,,,,,,,,9,Fast,long,f,1,1.867,8,2,34,1,1,,,,,
0.37,,,,,,,,,d,orange,616f2dc24df7a8664076ceab,2021-11-01_13h29.48.138,forced_choiceRT_color,2021.2.3,Win32,60.0240096,,,,,,,,9,Ontime,long,d,1,2.034,8,3,35,0,1,,,,,
1.92,,,,,,,,,d,orange,616f2dc24df7a8664076ceab,2021-11-01_13h29.48.138,forced_choiceRT_color,2021.2.3,Win32,60.0240096,,,,,,,,9,Slow,long,k,0,2.118,9,0,36,0,1,,,,,
1.41,,,,,,,,,f,blue,616f2dc24df7a8664076ceab,2021-11-01_13h29.48.138,forced_choiceRT_color,2021.2.3,Win32,60.0240096,,,,,,,,9,Ontime,long,f,1,2.068,9,1,37,1,1,,,,,
0.25,,,,,,,,,j,red,616f2dc24df7a8664076ceab,2021-11-01_13h29.48.138,forced_choiceRT_color,2021.2.3,Win32,60.0240096,,,,,,,,9,Ontime,long,j,1,2.051,9,2,38,2,1,,,,,
0.75,,,,,,,,,d,orange,616f2dc24df7a8664076ceab,2021-11-01_13h29.48.138,forced_choiceRT_color,2021.2.3,Win32,60.0240096,,,,,,,,9,Ontime,long,d,1,1.983,9,3,39,0,1,,,,,
,,,,,,,,,,,616f2dc24df7a8664076ceab,2021-11-01_13h29.48.138,forced_choiceRT_color,2021.2.3,Win32,60.0240096,,,,,,,,,,,,,,,,,,,8,0,8,0,1
1.03,,,,,,,,,d,orange,616f2dc24df7a8664076ceab,2021-11-01_13h29.48.138,forced_choiceRT_color,2021.2.3,Win32,60.0240096,,,,,,,,10,Ontime,long,d,1,1.937,0,0,0,0,1,,,,,
0.58,,,,,,,,,f,blue,616f2dc24df7a8664076ceab,2021-11-01_13h29.48.138,forced_choiceRT_color,2021.2.3,Win32,60.0240096,,,,,,,,10,Ontime,long,f,1,1.951,0,1,1,1,1,,,,,
1.74,,,,,,,,,j,red,616f2dc24df7a8664076ceab,2021-11-01_13h29.48.138,forced_choiceRT_color,2021.2.3,Win32,60.0240096,,,,,,,,10,Ontime,long,k,0,2.1,0,2,2,2,1,,,,,
1.61,,,,,,,,,d,orange,616f2dc24df7a8664076ceab,2021-11-01_13h29.48.138,forced_choiceRT_color,2021.2.3,Win32,60.0240096,,,,,,,,10,Ontime,long,j,0,2.016,0,3,3,0,1,,,,,
0.6,,,,,,,,,d,orange,616f2dc24df7a8664076ceab,2021-11-01_13h29.48.138,forced_choiceRT_color,2021.2.3,Win32,60.0240096,,,,,,,,10,Ontime,long,d,1,2.051,1,0,4,0,1,,,,,
0.94,,,,,,,,,j,red,616f2dc24df7a8664076ceab,2021-11-01_13h29.48.138,forced_choiceRT_color,2021.2.3,Win32,60.0240096,,,,,,,,10,Ontime,long,j,1,1.933,1,1,5,2,1,,,,,
0.67,,,,,,,,,f,blue,616f2dc24df7a8664076ceab,2021-11-01_13h29.48.138,forced_choiceRT_color,2021.2.3,Win32,60.0240096,,,,,,,,10,Ontime,long,f,1,2.017,1,2,6,1,1,,,,,
1.66,,,,,,,,,k,purple,616f2dc24df7a8664076ceab,2021-11-01_13h29.48.138,forced_choiceRT_color,2021.2.3,Win32,60.0240096,,,,,,,,10,Slow,long,k,1,2.233,1,3,7,3,1,,,,,
1.05,,,,,,,,,d,orange,616f2dc24df7a8664076ceab,2021-11-01_13h29.48.138,forced_choiceRT_color,2021.2.3,Win32,60.0240096,,,,,,,,10,Ontime,long,d,1,2.037,2,0,8,0,1,,,,,
0.35,,,,,,,,,j,red,616f2dc24df7a8664076ceab,2021-11-01_13h29.48.138,forced_choiceRT_color,2021.2.3,Win32,60.0240096,,,,,,,,10,Ontime,long,j,1,1.999,2,1,9,2,1,,,,,
1.83,,,,,,,,,k,purple,616f2dc24df7a8664076ceab,2021-11-01_13h29.48.138,forced_choiceRT_color,2021.2.3,Win32,60.0240096,,,,,,,,10,Ontime,long,k,1,2.017,2,2,10,3,1,,,,,
0.77,,,,,,,,,f,blue,616f2dc24df7a8664076ceab,2021-11-01_13h29.48.138,forced_choiceRT_color,2021.2.3,Win32,60.0240096,,,,,,,,10,Ontime,long,j,0,1.984,2,3,11,1,1,,,,,
0.06,,,,,,,,,d,orange,616f2dc24df7a8664076ceab,2021-11-01_13h29.48.138,forced_choiceRT_color,2021.2.3,Win32,60.0240096,,,,,,,,10,Ontime,long,d,1,2.034,3,0,12,0,1,,,,,
1.16,,,,,,,,,d,orange,616f2dc24df7a8664076ceab,2021-11-01_13h29.48.138,forced_choiceRT_color,2021.2.3,Win32,60.0240096,,,,,,,,10,Ontime,long,d,1,2,3,1,13,0,1,,,,,
1.64,,,,,,,,,f,blue,616f2dc24df7a8664076ceab,2021-11-01_13h29.48.138,forced_choiceRT_color,2021.2.3,Win32,60.0240096,,,,,,,,10,Slow,long,k,0,2.139,3,2,14,1,1,,,,,
1.71,,,,,,,,,f,blue,616f2dc24df7a8664076ceab,2021-11-01_13h29.48.138,forced_choiceRT_color,2021.2.3,Win32,60.0240096,,,,,,,,10,Slow,long,f,1,2.15,3,3,15,1,1,,,,,
1.52,,,,,,,,,f,blue,616f2dc24df7a8664076ceab,2021-11-01_13h29.48.138,forced_choiceRT_color,2021.2.3,Win32,60.0240096,,,,,,,,10,Ontime,long,f,1,1.987,4,0,16,1,1,,,,,
1.37,,,,,,,,,f,blue,616f2dc24df7a8664076ceab,2021-11-01_13h29.48.138,forced_choiceRT_color,2021.2.3,Win32,60.0240096,,,,,,,,10,Slow,long,f,1,2.104,4,1,17,1,1,,,,,
1.83,,,,,,,,,j,red,616f2dc24df7a8664076ceab,2021-11-01_13h29.48.138,forced_choiceRT_color,2021.2.3,Win32,60.0240096,,,,,,,,10,Ontime,long,k,0,2.033,4,2,18,2,1,,,,,
1.73,,,,,,,,,j,red,616f2dc24df7a8664076ceab,2021-11-01_13h29.48.138,forced_choiceRT_color,2021.2.3,Win32,60.0240096,,,,,,,,10,Ontime,long,f,0,2.038,4,3,19,2,1,,,,,
1.09,,,,,,,,,k,purple,616f2dc24df7a8664076ceab,2021-11-01_13h29.48.138,forced_choiceRT_color,2021.2.3,Win32,60.0240096,,,,,,,,10,Ontime,long,k,1,1.917,5,0,20,3,1,,,,,
0.6,,,,,,,,,d,orange,616f2dc24df7a8664076ceab,2021-11-01_13h29.48.138,forced_choiceRT_color,2021.2.3,Win32,60.0240096,,,,,,,,10,Ontime,long,d,1,2.035,5,1,21,0,1,,,,,
0.89,,,,,,,,,k,purple,616f2dc24df7a8664076ceab,2021-11-01_13h29.48.138,forced_choiceRT_color,2021.2.3,Win32,60.0240096,,,,,,,,10,Ontime,long,k,1,2.019,5,2,22,3,1,,,,,
0.69,,,,,,,,,k,purple,616f2dc24df7a8664076ceab,2021-11-01_13h29.48.138,forced_choiceRT_color,2021.2.3,Win32,60.0240096,,,,,,,,10,Ontime,long,k,1,2.053,5,3,23,3,1,,,,,
0.38,,,,,,,,,d,orange,616f2dc24df7a8664076ceab,2021-11-01_13h29.48.138,forced_choiceRT_color,2021.2.3,Win32,60.0240096,,,,,,,,10,Ontime,long,d,1,2.074,6,0,24,0,1,,,,,
0.01,,,,,,,,,j,red,616f2dc24df7a8664076ceab,2021-11-01_13h29.48.138,forced_choiceRT_color,2021.2.3,Win32,60.0240096,,,,,,,,10,Ontime,long,j,1,2.02,6,1,25,2,1,,,,,
1.72,,,,,,,,,d,orange,616f2dc24df7a8664076ceab,2021-11-01_13h29.48.138,forced_choiceRT_color,2021.2.3,Win32,60.0240096,,,,,,,,10,Slow,long,d,1,2.201,6,2,26,0,1,,,,,
1.77,,,,,,,,,k,purple,616f2dc24df7a8664076ceab,2021-11-01_13h29.48.138,forced_choiceRT_color,2021.2.3,Win32,60.0240096,,,,,,,,10,Slow,long,k,1,2.232,6,3,27,3,1,,,,,
0.01,,,,,,,,,f,blue,616f2dc24df7a8664076ceab,2021-11-01_13h29.48.138,forced_choiceRT_color,2021.2.3,Win32,60.0240096,,,,,,,,10,Ontime,long,f,1,2.033,7,0,28,1,1,,,,,
0.97,,,,,,,,,f,blue,616f2dc24df7a8664076ceab,2021-11-01_13h29.48.138,forced_choiceRT_color,2021.2.3,Win32,60.0240096,,,,,,,,10,Ontime,long,f,1,2.069,7,1,29,1,1,,,,,
1.96,,,,,,,,,j,red,616f2dc24df7a8664076ceab,2021-11-01_13h29.48.138,forced_choiceRT_color,2021.2.3,Win32,60.0240096,,,,,,,,10,Slow,long,k,0,2.399,7,2,30,2,1,,,,,
1.89,,,,,,,,,j,red,616f2dc24df7a8664076ceab,2021-11-01_13h29.48.138,forced_choiceRT_color,2021.2.3,Win32,60.0240096,,,,,,,,10,Ontime,long,d,0,2.088,7,3,31,2,1,,,,,
0.56,,,,,,,,,k,purple,616f2dc24df7a8664076ceab,2021-11-01_13h29.48.138,forced_choiceRT_color,2021.2.3,Win32,60.0240096,,,,,,,,10,Ontime,long,k,1,2.029,8,0,32,3,1,,,,,
0.21,,,,,,,,,j,red,616f2dc24df7a8664076ceab,2021-11-01_13h29.48.138,forced_choiceRT_color,2021.2.3,Win32,60.0240096,,,,,,,,10,Ontime,long,j,1,2.035,8,1,33,2,1,,,,,
1.78,,,,,,,,,k,purple,616f2dc24df7a8664076ceab,2021-11-01_13h29.48.138,forced_choiceRT_color,2021.2.3,Win32,60.0240096,,,,,,,,10,Slow,long,k,1,2.319,8,2,34,3,1,,,,,
0.83,,,,,,,,,j,red,616f2dc24df7a8664076ceab,2021-11-01_13h29.48.138,forced_choiceRT_color,2021.2.3,Win32,60.0240096,,,,,,,,10,Ontime,long,j,1,2.015,8,3,35,2,1,,,,,
0.24,,,,,,,,,f,blue,616f2dc24df7a8664076ceab,2021-11-01_13h29.48.138,forced_choiceRT_color,2021.2.3,Win32,60.0240096,,,,,,,,10,Ontime,long,f,1,2.004,9,0,36,1,1,,,,,
0.46,,,,,,,,,d,orange,616f2dc24df7a8664076ceab,2021-11-01_13h29.48.138,forced_choiceRT_color,2021.2.3,Win32,60.0240096,,,,,,,,10,Ontime,long,d,1,2.05,9,1,37,0,1,,,,,
1.85,,,,,,,,,k,purple,616f2dc24df7a8664076ceab,2021-11-01_13h29.48.138,forced_choiceRT_color,2021.2.3,Win32,60.0240096,,,,,,,,10,Slow,long,k,1,2.388,9,2,38,3,1,,,,,
0.63,,,,,,,,,k,purple,616f2dc24df7a8664076ceab,2021-11-01_13h29.48.138,forced_choiceRT_color,2021.2.3,Win32,60.0240096,,,,,,,,10,Ontime,long,k,1,2.037,9,3,39,3,1,,,,,
,,,,,,,,,,,616f2dc24df7a8664076ceab,2021-11-01_13h29.48.138,forced_choiceRT_color,2021.2.3,Win32,60.0240096,,,,,,,,,,,,,,,,,,,9,0,9,0,1
